[{"nsides":6,"instructions":"Let's define a new operation <img src=\"./images/hexagon_symbol.png\" style=\"width:14px;height:14px\">. This operation will give us a way of combining two of the numbers 0, 1, 2, 3, 4, 5 to get another one of them back. Consider the hexagon at the right, where I've labeled each point with one of the numbers. To perform <img src=\"./images/hexagon_symbol.png\" style=\"width:14px;height:14px\">, you can use the interactive diagram on the right, or perform the operation in your mind. or perform the operation in your mind. Point the arrow at the first number on the hexagon, then move the arrow the second number of points clockwise around the hexagon. The number the arrow arrives at is your result. (The operation is called <img src=\"./images/hexagon_symbol.png\" style=\"width:14px;height:14px\"> because it uses the hexagon, which has 6 sides.) <br /><br />For example, 3 <img src=\"./images/hexagon_symbol.png\" style=\"width:14px;height:14px\"> 5 = 2,  because  5 steps clockwise from 3 on the hexagon brings us to 2. So 3 <img src=\"./images/hexagon_symbol.png\" style=\"width:14px;height:14px\"> 5 = 2.<br /><br />Similarly, 1 <img src=\"./images/hexagon_symbol.png\" style=\"width:14px;height:14px\"> 4 = 5, because 4 steps clockwise from 1 brings us to 5. <br /><br />Click \"Continue\" when you are ready to move on.","orientation_history":[0],"rt":100971,"trial_type":"polygon-arrow-instructions","trial_index":0,"trial_index_global":1,"time_elapsed":134444,"internal_chunk_id":"0-0"},{"nsides":6,"question":"Now try one on your own! What is 4 <img src=\"./images/hexagon_symbol.png\" style=\"width:14px;height:14px\"> 5? <br /><br /> (Remember, to perform <img src=\"./images/hexagon_symbol.png\" style=\"width:14px;height:14px\">, you can use the interactive diagram on the right, or perform the operation in your mind. Point the arrow at the first number on the hexagon, then move the arrow the second number of points clockwise around the h exagon.  The number the arrow arrives at is your result.)","response_type":"free","response_choices":[],"correct_response":"3","response":"3","orientation_history":[[0]],"response_history":["3"],"rt":22377,"trial_type":"polygon-arrow-question","trial_index":0,"trial_index_global":2,"time_elapsed":156823,"internal_chunk_id":"0-0.2-0"},{"nsides":6,"feedback":"Correct! 4 <img src=\"./images/hexagon_symbol.png\" style=\"width:14px;height:14px\"> 5 = 3 because 5 steps clockwise on the hexagon from 4 brings us to 3","orientation_history":[0],"rt":1873,"trial_type":"polygon-arrow-feedback","trial_index":0,"trial_index_global":3,"time_elapsed":158697,"internal_chunk_id":"0-0.2-0"},{"nsides":6,"question":"What is 3 <img src=\"./images/hexagon_symbol.png\" style=\"width:14px;height:14px\"> 2? <br /><br /> (Remember, to perform <img src=\"./images/hexagon_symbol.png\" style=\"width:14px;height:14px\">, you can use the interactive diagram on the right, or perform the operation in your mind. Poin t the ar row at the first number on the hexagon, then move the arrow the second number of points clockwise around the hexagon. The number the arrow arrives at is your result.)","response_type":"free","response_choices":[],"correct_response":"5","response":"5","orientation_history":[[0]],"response_history":["5"],"rt":8681,"trial_type":"polygon-arrow-question","trial_index":0,"trial_index_global":4,"time_elapsed":167379,"internal_chunk_id":"0-0.2-0"},{"nsides":6,"feedback":"Correct! 3 <img src=\"./images/hexagon_symbol.png\" style=\"width:14px;height:14px\"> 2 = 5 because 2 steps clockwise on the hexagon from 3 brings us to 5","orientation_history":[0],"rt":1417,"trial_type":"polygon-arrow-feedback","trial_index":0,"trial_index_global":5,"time_elapsed":168796,"internal_chunk_id":"0-0.2-0"},{"nsides":6,"question":"What is 1 <img src=\"./images/hexagon_symbol.png\" style=\"width:14px;height:14px\"> 5? <br /><br /> (Remember, to perform <img src=\"./images/hexagon_symbol.png\" style=\"width:14px;height:14px\">, you can use the interactive diagram on the right, or perform the operation in your mind. Point the arrow at the first number on the hexagon, then move the arrow the second number of points clockwise around the hexagon. The number the arrow arrives at is your result.)","response_type":"free","response_choices":[],"correct_response":"0","response":"0","orientation_history":[[0]],"response_history":["0"],"rt":8153,"trial_type":"polygon-arrow-question","trial_index":0,"trial_index_global":6,"time_elapsed":176950,"internal_chunk_id":"0-0.2-0"},{"nsides":6,"feedback":"Correct! 1 <img src=\"./images/hexagon_symbol.png\" style=\"width:14px;height:14px\"> 5 = 0 because 5 steps clockwise on the hexagon from 1 brings us to 0","orientation_history":[0],"rt":1671,"trial_type":"polygon-arrow-feedback","trial_index":0,"trial_index_global":7,"time_elapsed":178622,"internal_chunk_id":"0-0.2-0"},{"nsides":6,"question":"What is 1 <img src=\"./images/hexagon_symbol.png\" style=\"width:14px;height:14px\"> 1? <br /><br /> (Remember, to perform <img src=\"./images/hexagon_symbol.png\" style=\"width:14px;height:14px\">, you can use the interactive diagram on the right, or perform the operation in your mind. Point the arrow at the first number on the hexagon, then move the arrow the second number of points clockwise around the hexagon. The number the arrow arrives at is your result.)","response_type":"free","response_choices":[],"correct_response":"2","response":"2","orientation_history":[[0]],"response_history":["2"],"rt":5769,"trial_type":"polygon-arrow-question","trial_index":0,"trial_index_global":8,"time_elapsed":184392,"internal_chunk_id":"0-0.2-0"},{"nsides":6,"feedback":"Correct! 1 <img src=\"./images/hexagon_symbol.png\" style=\"width:14px;height:14px\"> 1 = 2 because 1 steps clockwise on the hexagon from 1 brings us to 2","orientation_history":[0],"rt":1477,"trial_type":"polygon-arrow-feedback","trial_index":0,"trial_index_global":9,"time_elapsed":185870,"internal_chunk_id":"0-0.2-0"},{"nsides":6,"question":"What is 3 <img src=\"./images/hexagon_symbol.png\" style=\"width:14px;height:14px\"> 0? <br /><br /> (Remember, to perform <img src=\"./images/hexagon_symbol.png\" style=\"width:14px;height:14px\">, you can use the interactive diagram on the right, or perform the operation in your mind. Point the arrow at the first number on the hexagon, then move the arrow the second number of points clockwise around the hexagon. The number the arrow arrives at is your result.)","response_type":"free","response_choices":[],"correct_response":"3","response":"3","orientation_history":[[0]],"response_history":["3"],"rt":4739,"trial_type":"polygon-arrow-question","trial_index":0,"trial_index_global":10,"time_elapsed":190610,"internal_chunk_id":"0-0.2-0"},{"nsides":6,"feedback":"Correct! 3 <img src=\"./images/hexagon_symbol.png\" style=\"width:14px;height:14px\"> 0 = 3 because 0 steps clockwise on the hexagon from 3 brings us to 3","orientation_history":[0],"rt":1277,"trial_type":"polygon-arrow-feedback","trial_index":0,"trial_index_global":11,"time_elapsed":191888,"internal_chunk_id":"0-0.2-0"},{"nsides":6,"question":"What is 4 <img src=\"./images/hexagon_symbol.png\" style=\"width:14px;height:14px\"> 4? <br /><br /> (Remember, to perform <img src=\"./images/hexagon_symbol.png\" style=\"width:14px;height:14px\">, you can use the interactive diagram on the right, or perform the operation in your mind. Point the arrow at the first number on the hexagon, then move the arrow the second number of points clockwise around the hexagon. The number the arrow arrives at is your result.)","response_type":"free","response_choices":[],"correct_response":"2","response":"2","orientation_history":[[0]],"response_history":["2"],"rt":4893,"trial_type":"polygon-arrow-question","trial_index":0,"trial_index_global":12,"time_elapsed":196782,"internal_chunk_id":"0-0.2-0"},{"nsides":6,"feedback":"Correct! 4 <img src=\"./images/hexagon_symbol.png\" style= \"width:14px;height:14px\"> 4 = 2 because 4 steps clockwise on the hexagon from 4 brings us to 2","orientation_history":[0],"rt":1423,"trial_type":"polygon-arrow-feedback","trial_index":0,"trial_index_global":13,"time_elapsed":198206,"internal_chunk_id":"0-0.2-0"},{"nsides":6,"question":"What is 1 <img src=\"./images/hexagon_symbol.png\" style=\"width:14px;height:14px\"> 3? <br /><br /> (Remember, to perform <img src=\"./images/hexagon_symbol.png\" style=\"width:14px;height:14px\">, you can use the interactive diagram on the right, or perform the operation in your mind. Point the arrow at the first number on the hexagon, then move the arrow the second number of points clockwise around the hexagon. The number the arrow arrives at is your result.)","response_type":"free","response_choices":[],"correct_response":"4","response":"4","orientation_history":[[0]],"response_history":["4"],"rt":15303,"trial_type":"polygon-arrow-question","trial_index":0,"trial_index_global":14,"time_elapsed":213510,"internal_chunk_id":"0-0.2-0"},{"nsides":6,"feedback":"Correct! 1 <img src=\"./images/hexagon_symbol.png\" style=\"width:14px;height:14px\"> 3 = 4 because 3 steps clockwise on the hexagon from 1 brings us to 4","orientation_history":[0],"rt":1162,"trial_type":"polygon-arrow-feedback","trial_index":0,"trial_index_global":15,"time_elapsed":214672,"internal_chunk_id":"0-0.2-0"},{"nsides":6,"question":"What is 4 <img src=\"./images/hexagon_symbol.png\" style=\"width:14px;height:14px\"> 3? <br /><br /> (Remember, to perform <img src=\"./images/hexagon_symbol.png\" style=\"width:14px;height:14px\">, you can use the interactive diagram on the right, or perform the operation in your mind. Point the arrow at the first number on the hexagon, then move the arrow the second number of points clockwise around the hexagon. The number the arrow arrives at is your result.)","response_type":"free","response_choices":[],"correct_response":"1","response":"1","orientation_history":[[0]],"response_history":["1"],"rt":8029,"trial_type":"polygon-arrow-question","trial_index":0,"trial_index_global":16,"time_elapsed":222702,"internal_chunk_id":"0-0.2-0"},{"nsides":6,"feedback":"Correct! 4 <img src=\"./images/hexagon_symbol.png\" style=\"width:14px;height:14px\"> 3 = 1 because 3 steps clockwise on the hexagon from 4 brings us to 1","orientation_history":[0],"rt":1307,"trial_type":"polygon-arrow-feedback","trial_index":0,"trial_index_global":17,"time_elapsed":224010,"internal_chunk_id":"0-0.2-0"},{"nsides":6,"question":"What is 0 <img src=\"./images/hexagon_symbol.png\" style=\"width:14px;height:14px\"> 5? <br /><br /> (Remember, to perform <img src=\"./images/hexagon_symbol.png\" style=\"width:14px;height:14px\">, you can use the interactive diagram on the right, or perform the operation in your mind. Point the arrow at the first number on the hexagon, then move the arrow the second number of points clockwise around the hexagon. The number the arrow arrives at is your res ult.)","response_type":"free","response_choices":[],"correct_response":"5","response":"5","orientation_history":[[0]],"response_history":["5"],"rt":7179,"trial_type":"polygon-arrow-question","trial_index":0,"trial_index_global":18,"time_elapsed":231190,"internal_chunk_id":"0-0.2-0"},{"nsides":6,"feedback":"Correct! 0 <img src=\"./images/hexagon_symbol.png\" style=\"width:14px;height:14px\"> 5 = 5 because 5 steps clockwise on the hexagon from 0 brings us to 5","orientation_history":[0],"rt":1099,"trial_type":"polygon-arrow-feedback","trial_index":0,"trial_index_global":19,"time_elapsed":232290,"internal_chunk_id":"0-0.2-0"},{"nsides":6,"question":"What is 2 <img src=\"./images/hexagon_symbol.png\" style=\"width:14px;height:14px\"> 5? <br /><br /> (Remember, to perform <img src=\"./images/hexagon_symbol.png\" style=\"width:14px;height:14px\">, you can use the interactive diagram on the right, or perform the operation in your mind. Point the arrow at the first number on the hexagon, th en move  the arrow the second number of points clockwise around the hexagon. The number the arrow arrives at is your result.)","response_type":"free","response_choices":[],"correct_response":"1","response":"1","orientation_history":[[0]],"response_history":["1"],"rt":7503,"trial_type":"polygon-arrow-question","trial_index":0,"trial_index_global":20,"time_elapsed":239794,"internal_chunk_id":"0-0.2-0"},{"nsides":6,"feedback":"Correct! 2 <img src=\"./images/hexagon_symbol.png\" style=\"width:14px;height:14px\"> 5 = 1 because 5 steps clockwise on the hexagon from 2 brings us to 1","orientation_history":[0],"rt":1167,"trial_type":"polygon-arrow-feedback","trial_index":0,"trial_index_global":21,"time_elapsed":240962,"internal_chunk_id":"0-0.2-0"},{"nsides":6,"instructions":"Now we're going to discuss a couple special properties of this new operation, <img src=\"./images/hexagon_symbol.png\" style=\"width:14px;height:14px\"> that we've learned. First, notice that the number 0 behaves in a s pecial w ay under <img src=\"./images/hexagon_symbol.png\" style=\"width:14px;height:14px\">. Whenever we combine 0 with anything else, we get that same thing back. We'll say that 0 is the <i>identity</i> under <img src=\"./images/hexagon_symbol.png\" style=\"width:14px;height:14px\">, because when you combine it with something it gives you that identical thing back.","orientation_history":[0],"rt":11258,"trial_type":"polygon-arrow-instructions","trial_index":0,"trial_index_global":22,"time_elapsed":252222,"internal_chunk_id":"0-0"},{"nsides":6,"instructions":"Now that we know 0 is the identity under <img src=\"./images/hexagon_symbol.png\" style=\"width:14px;height:14px\">, we're going to make a new definition. We'll say that the <i>inverse</i> of a number is the thing that you combine with it to produce the identity under our operation. For example, 5 <img src=\"./images/hexagon_symbol.png\" style=\"width:14px;height:14px\"> 1 = 0, so we say 1 is the inverse of 5 under <img src=\"./images/hexagon_symbol.png\" style=\"width:14px;height:14px\">, (remember 0 is the identity under <img src=\"./images/hexagon_symbol.png\" style=\"width:14px;height:14px\">). Similarly, 3 is its own inverse under <img src=\"./images/hexagon_symbol.png\" style=\"width:14px;height:14px\">, because 3 <img src=\"./images/hexagon_symbol.png\" style=\"width:14px;height:14px\"> 3 = 0.","orientation_history":[0],"rt":56101,"trial_type":"polygon-arrow-instructions","trial_index":0,"trial_index_global":23,"time_elapsed":308324,"internal_chunk_id":"0-0"},{"nsides":6,"question":"Now you try! What is the inverse of 4 under <img src=\"./images/hexagon_symbol.png\" style=\"width:14px;height:14px\">? <br /><br /> (Remember, the inverse of an element is the thing which you combine with it to produce the identity.)","response_type":"free","response_choices":[],"correct_response":"2","response":"2","orientation_history":[[0]],"response_history":["2"],"rt":17921,"trial_type":"polygon-arrow-question","trial_index":0,"trial_index_global":24,"time_elapsed":326246,"internal_chunk_id":"0-0.6-0"},{"nsides":6,"feedback":"Correct! The inverse of 4 under <img src=\"./images/hexagon_symbol.png\" style=\"width:14px;height:14px\"> is 2 because 2 steps clockwise on the hexagon from 4 brings us to 0, and 0 is the identity under <img src=\"./images/hexagon_symbol.png\" style=\"width:14px;height:14px\">.","orientation_history":[0],"rt":1982,"trial_type":"polygon-arrow-feedback","trial_index":0,"trial_index_global":25,"time_elapsed":328228,"internal_chunk_id":"0-0.6-0"},{"nsides":6,"question":"What is the inverse of 1 under <img src=\"./images/hexagon_symbol.png\" style=\"width:14px;height:14px\">? <br /><br /> (Remember, the inverse of an element is the thing which you combine with it to produce the identity.)","response_type":"free","response_choices":[],"correct_response":"5","response":"5","orientation_history":[[0]],"response_history":["5"],"rt":9572,"trial_type":"polygon-arrow-question","trial_index":0,"trial_index_global":26,"time_elapsed":337800,"internal_chunk_id":"0-0.6-0"},{"nsides":6,"feedback":"Correct! The inverse of 1 under <img src=\"./images/hexagon_symbol.png\" style=\"width:14px;height:14px\"> is 5 because 5 steps clockwise on the hexagon from 1 brings us to 0, and 0 is the identity under <img src=\"./images/hexagon_symbol.png\" style=\"width:14px;height:14px\">.","orientation_history":[0],"rt":1410,"trial_type":"polygon-arrow-feedback","trial_index":0,"trial_index_global":27,"time_elapsed":339210,"internal_chunk_id":"0-0.6-0"},{"nsides":6,"question":"What is the inverse of 3 under <img src=\"./images/hexagon_symbol.png\" style=\"width:14px;height:14px\">? <br /><br /> (Remember, the inverse of an element is the thing which you combine with it to produce the identity.)","response_type":"free","response_choices":[],"correct_response":"3","response":"3","orientation_history":[[0]],"response_history":["3"],"rt":5025,"trial_type":"polygon-arrow-question","trial_index":0,"trial_index_global":28,"time_elapsed":344236,"internal_chunk_id":"0-0.6-0"},{"nsides":6,"feedback":"Correct! The inverse of 3 under <img src=\"./images/hexagon_symbol.png\" style=\"width:14px;height:14px\"> is 3 because 3 steps clockwise on the hexagon from 3 brings us to 0, and 0 is the identity under <img src=\"./images/hexagon_symbol.png\" style=\"width:14px;height:14px\">.","orientation_history":[0],"rt":1121,"trial_type":"polygon-arrow-feedback","trial_index":0,"trial_index_global":29,"time_elapsed":345358,"internal_chunk_id":"0-0.6-0"},{"nsides":6,"question":"What is the inverse of 2 under <img src=\"./images/hexagon_symbol.png\" style=\"width:14px;height:14px\">? <br /><br /> (Remember, the inverse of an element is the thing which you combine with it to produce the identity.)","response_type":"free","response_choices":[],"correct_response":"4","response":"4","orientation_history":[[0]],"response_history":["4"],"rt":7652,"trial_type":"polygon-arrow-question","trial_index":0,"trial_index_global":30,"time_elapsed":353010,"internal_chunk_id":"0-0.6-0"},{"nsides":6,"feedback":"Correct! The inverse of 2 under <img src=\"./images/hexagon_symbol.png\" style=\"width:14px;height:14px\"> is 4 because 4 steps clockwise on the hexagon from 2 brings us to 0, and 0 is the identity under <img src=\"./images/hexagon_symbol.png\" style=\"width:14px;height:14px\">.","orientation_history":[0],"rt":1052,"trial_type":"polygon-arrow-feedback","trial_index":0,"trial_index_global":31,"time_elapsed":354062,"internal_chunk_id":"0-0.6-0"},{"nsides":6,"question":"What is the inverse of 0 under <img src=\"./images/hexagon_symbol.png\" style=\"width:14px;height:14px\">? <br /><br /> (Remember, the inverse of an element is the thing which you combine with it to produce the identity.)","response_type":"free","response_choices":[],"correct_response":"0","response":"0","orientation_history":[[0]],"response_history":["0"],"rt":3656,"trial_type":"polygon-arrow-question","trial_index":0,"trial_index_global":32,"time_elapsed":357718,"internal_chunk_id":"0-0.6-0"},{"nsides":6,"feedback":"Correct! The inverse of 0 under <img src=\"./images/hexagon_symbol.png\" style=\"width:14px;height:14px\"> is 0 because 0 steps clockwise on the hexagon from 0 brings us to 0, and 0 is the identity under <img src=\"./images/hexagon_symbol.png\" style=\"width:14px;height:14px\">.","orientation_history":[0],"rt":906,"trial_type":"polygon-arrow-feedback","trial_index":0,"trial_index_global":33,"time_elapsed":358624,"internal_chunk_id":"0-0.6-0"},{"instructions":"It is also possible to successively apply <img src=\"./images/hexagon_symbol.png\" style=\"width:14px;height:14px\">, and the operation can simply be performed starting with the left-most pair. For example, 2 <img src=\"./images/hexagon_symbol.png\" style=\"width:14px;height:14px\"> 3 <img src=\"./images/hexagon_symbol.png\" style=\"width:14px;height:14px\"> 4 = 5 <img src=\"./images/hexagon_symbol.png\" style=\"width:14px;height:14px\"> 4 = 3.","rt":38086,"trial_type":"instructions","trial_index":0,"trial_index_global":34,"time_elapsed":396710,"internal_chunk_id":"0-0"},{"nsides":6,"instructions":"We have one last definition to learn today. Let's start with an example. Under our operation <img src=\"./images/hexagon_symbol.png\" style=\"width:14px;height:14px\"> we can make every other number using just 1: 2 = 1 <img src=\"./images/hexagon_symbol.png\" style=\"width:14px;height:14px\"> 1, 3 = 1 <img src=\"./images/hexagon_symbol.png\" style=\"width:14px;height:14px\"> 1 <img src=\"./images/hexagon_symbol.png\" style=\"width:14px;height:14px\"> 1, 4 = 1 <img src=\"./images/hexagon_symbol.png\" style=\"width:14px;height:14px\"> 1 <img src=\"./images/hexagon_symbol.png\" style=\"width:14px;height:14px\"> 1 <img src=\"./images/hexagon_symbol.png\" style=\"width:14px;height:14px\"> 1, 5 = 1 <img src=\"./images/hexagon_symbol.png\" style=\"width:14px;height:14px\"> 1 <img src=\"./images/hexagon_symbol.png\" s tyle=\"width:14px;height:14px\"> 1 <img src=\"./images/hexagon_symbol.png\" style=\"width:14px;height:14px\"> 1 <img src=\"./images/hexagon_symbol.png\" style=\"width:14px;height:14px\"> 1, and 0 = 1 <img src=\"./images/hexagon_symbol.png\" style=\"width:14px;height:14px\"> 1 <img src=\"./images/hexagon_symbol.png\" style=\"width:14px;height:14px\"> 1 <img src=\"./images/hexagon_symbol.png\" style=\"width:14px;height:14px\"> 1 <img src=\"./images/hexagon_symbol.png\" style=\"width:14px;height:14px\"> 1 <img src=\"./images/hexagon_symbol.png\" style=\"width:14px;height:14px\"> 1. Because 1 can make every other element under <img src=\"./images/hexagon_symbol.png\" style=\"width:14px;height:14px\">, we say that 1 is a <i>generator</i> under <img src=\"./images/hexagon_symbol.png\" style=\"width:14px;height:14px\">. <br /><br /> However, 2 is not a generator under <img src=\"./images/hexagon_symbol.png\" style=\"width:14px;height:14px\">, because 4 = 2 <img src=\"./images/hexagon_symbol.png\" style=\"width:14px;height:14px\"> 2, and 0 = 2 <img src=\"./images/hexagon_symbol.png\" style=\"width:14px;height:14px\"> 2 <img src=\"./images/hexagon_symbol.png\" style=\"width:14px;height:14px\"> 2, but there is no way to make 1, 3, or 5 using just 2.","orientation_history":[0],"rt":97307,"trial_type":"polygon-arrow-instructions","trial_index":0,"trial_index_global":35,"time_elapsed":494018,"internal_chunk_id":"0-0"},{"nsides":6,"question":"Now you try! Is 3 a generator under <img src=\"./images/hexagon_symbol.png\" style=\"width:14px;height:14px\">? <br /><br /> (Remember, a generator is an element which can make every other element.)","response_type":"multi","response_choices":["Yes","No"],"correct_response":"No","response":"No","orientation_history":[[0]],"response_history":["No"],"rt":18207,"trial_type":"polygon-arrow-question","trial_index":0,"trial_index_global":36,"time_elapsed":512226,"internal_chunk_id":"0-0.9-0"},{"nsides":6,"feedback":"Correct! 3 is not  a gener ator under <img src=\"./images/hexagon_symbol.png\" style=\"width:14px;height:14px\">, because 3 = 3, 0 = 3 <img src=\"./images/hexagon_symbol.png\" style=\"width:14px;height:14px\"> 3, but there is no way to make 1, 2, 4, or 5 using just 3.","orientation_history":[0],"rt":9461,"trial_type":"polygon-arrow-feedback","trial_index":0,"trial_index_global":37,"time_elapsed":521687,"internal_chunk_id":"0-0.9-0"},{"nsides":6,"question":"Is 5 a generator under <img src=\"./images/hexagon_symbol.png\" style=\"width:14px;height:14px\">? <br /><br /> (Remember, a generator is an element which can make every other element.)","response_type":"multi","response_choices":["Yes","No"],"correct_response":"Yes","response":"No","orientation_history":[[0]],"response_history":["No"],"rt":14125,"trial_type":"polygon-arrow-question","trial_index":0,"trial_index_global":38,"time_elapsed":535813,"internal_chunk_id":"0-0.9-0"},{"nsides":6,"feedback":"Sorry, that's incorrect. 5 is a generator under <im g src=\"./images/hexagon_symbol.png\" style=\"width:14px;height:14px\">, because 5 = 5, 4 = 5 <img src=\"./images/hexagon_symbol.png\" style=\"width:14px;height:14px\"> 5, 3 = 5 <img src=\"./images/hexagon_symbol.png\" style=\"width:14px;height:14px\"> 5 <img src=\"./images/hexagon_symbol.png\" style=\"width:14px;height:14px\"> 5, 2 = 5 <img src=\"./images/hexagon_symbol.png\" style=\"width:14px;height:14px\"> 5 <img src=\"./images/hexagon_symbol.png\" style=\"width:14px;height:14px\"> 5 <img src=\"./images/hexagon_symbol.png\" style=\"width:14px;height:14px\"> 5, 1 = 5 <img src=\"./images/hexagon_symbol.png\" style=\"width:14px;height:14px\"> 5 <img src=\"./images/hexagon_symbol.png\" style=\"width:14px;height:14px\"> 5 <img src=\"./images/hexagon_symbol.png\" style=\"width:14px;height:14px\"> 5 <img src=\"./images/hexagon_symbol.png\" style=\"width:14px;height:14px\"> 5, and 0 = 5 <img src=\"./images/hexagon_symbol.png\" style=\"width:14px;height:14px\"> 5 <img src=\"./images/hexagon_symbol.png\" style=\"width:14px;height:14px\"> 5 <img src=\"./images/hexagon_symbol.png\" style=\"width:14px;height:14px\"> 5 <img src=\"./images/hexagon_symbol.png\" style=\"width:14px;height:14px\"> 5 <img src=\"./images/hexagon_symbol.png\" style=\"width:14px;height:14px\"> 5, so you can make all of the numbers under <img src=\"./images/hexagon_symbol.png\" style=\"width:14px;height:14px\"> using 5","orientation_history":[0],"rt":30396,"trial_type":"polygon-arrow-feedback","trial_index":0,"trial_index_global":39,"time_elapsed":566210,"internal_chunk_id":"0-0.9-0"},{"nsides":6,"question":"Is 4 a generator under <img src=\"./images/hexagon_symbol.png\" style=\"width:14px;height:14px\">? <br /><br /> (Remember, a generator is an element which can make every other element.)","response_type":"multi","response_choices":["Yes","No"],"correct_response":"No","response":"No","orientation_history":[[0]],"response_history":["No"],"rt":48787,"trial_type":"polygon-arrow-question","trial_index":0,"trial_index_global":40,"time_elapsed":614999,"internal_chunk_id":"0-0.9-0"},{"nsides":6,"feedback":"Correct! 4 is not a generator under <img src=\"./images/hexagon_symbol.png\" style=\"width:14px;height:14px\">, because 4 = 4, 2 = 4 <img src=\"./images/hexagon_symbol.png\" style=\"width:14px;height:14px\"> 4, and 0 = 4 <img src=\"./images/hexagon_symbol.png\" style=\"width:14px;height:14px\"> 4 <img src=\"./images/hexagon_symbol.png\" style=\"width:14px;height:14px\"> 4, but there is no way to make 1, 3, or 5 using just 4.","orientation_history":[0],"rt":4265,"trial_type":"polygon-arrow-feedback","trial_index":0,"trial_index_global":41,"time_elapsed":619265,"internal_chunk_id":"0-0.9-0"},{"nsides":6,"question":"Is 0 a generator under <img src=\"./images/hexagon_symbol.png\" style=\"width:14px;height:14px\">? <br /><br /> (Remember, a generator is an element which can make every other element.)","response_type":"multi","response_choices":["Yes","No"],"correct_response":"No","response":"Yes","orientation_history":[[0]],"response_history":["Yes"],"rt":8061,"trial_type":"polygon-arrow-question","trial_index":0,"trial_index_global":42,"time_elapsed":627327,"internal_chunk_id":"0-0.9-0"},{"nsides":6,"feedback":"Sorry, that's incorrect. 0 is not a generator under <img src=\"./images/hexagon_symbol.png\" style=\"width:14px;height:14px\">, because 0 = 0, but there is no way to make 1, 2, 3, 4, or 5 using just 0.","orientation_history":[0],"rt":5753,"trial_type":"polygon-arrow-feedback","trial_index":0,"trial_index_global":43,"time_elapsed":633081,"internal_chunk_id":"0-0.9-0"},{"nsides":9,"instructions":"Now we are going to ask you some questions about a new operation, <img src=\"./images/nonagon_symbol.png\" style=\"width:14px;height:14px\">, on the numbers 0, 1, 2, 3, 4, 5, 6, 7, 8. It works exactly like <img src=\"./images/hexagon_symbol.png\" style=\"width:14px;height:14px\">, except now you use the nonagon shown at the right. <br /><br />We'll give you one  practic e question with feedback to make sure you understand the new operation. After that, try to complete the remaining questions as accurately as possible.","orientation_history":[0],"rt":12885,"trial_type":"polygon-arrow-instructions","trial_index":0,"trial_index_global":44,"time_elapsed":645967,"internal_chunk_id":"0-0"},{"nsides":9,"question":"Practice: What is 5 <img src=\"./images/nonagon_symbol.png\" style=\"width:14px;height:14px\"> 5?","response_type":"free","response_choices":[],"correct_response":"1","response":"1","orientation_history":[[0]],"response_history":["1"],"rt":7789,"trial_type":"polygon-arrow-question","trial_index":0,"trial_index_global":45,"time_elapsed":653757,"internal_chunk_id":"0-0.11-0"},{"nsides":9,"feedback":"Correct! 5 <img src=\"./images/nonagon_symbol.png\" style=\"width:14px;height:14px\"> 5 = 1 because 5 steps clockwise on the nonagon from 5 brings us to 1","orientation_history":[0],"rt":773,"trial_type":"polygon-arrow-feedback","trial_index":0,"trial_index_global":46,"time_elapsed":654531,"internal_chunk_id":"0-0.11-0"},{"nsides":9,"question":"What is 3 <img src=\"./images/nonagon_symbol.png\" style=\"width:14px;height:14px\"> 3?","response_type":"free","response_choices":[],"correct_response":"6","response":"6","orientation_history":[[0]],"response_history":["6"],"rt":4127,"trial_type":"polygon-arrow-question","trial_index":0,"trial_index_global":47,"time_elapsed":658659,"internal_chunk_id":"0-0.11-0"},{"nsides":9,"question":"What is 7 <img src=\"./images/nonagon_symbol.png\" style=\"width:14px;height:14px\"> 4?","response_type":"free","response_choices":[],"correct_response":"2","response":"2","orientation_history":[[0]],"response_history":["2"],"rt":4374,"trial_type":"polygon-arrow-question","trial_index":0,"trial_index_global":48,"time_elapsed":663034,"internal_chunk_id":"0-0.11-0"},{"nsides":9,"question":"What is 1 <img src=\"./images/nonagon_symbol.png\" style=\"width:14px;height:14px\"> 8?","response_type":"free","response_choices":[],"correct_response":"0","response":"0","orientation_history":[[0]],"response_history":["0"],"rt":6456,"trial_type":"polygon-arrow-question","trial_index":0,"trial_index_global":49,"time_elapsed":669491,"internal_chunk_id":"0-0.11-0"},{"nsides":9,"question":"What is 5 <img src=\"./images/nonagon_symbol.png\" style=\"width:14px;height:14px\"> 4?","response_type":"free","response_choices":[],"correct_response":"0","response":"0","orientation_history":[[0]],"response_history":["0"],"rt":5901,"trial_type":"polygon-arrow-question","trial_index":0,"trial_index_global":50,"time_elapsed":675393,"internal_chunk_id":"0-0.11-0"},{"nsides":9,"question":"What is 6 <img src=\"./images/nonagon_symbol.png\" style=\"width:14px;height:14px\"> 6?","response_type":"free","response_choices":[],"correct_response":"3","response":"3","orientation_history":[[0]],"response_history":["3"],"rt":6573,"trial_type":"polygon-arrow-question","trial_index":0,"trial_index_global":51,"time_elapsed":681967,"internal_chunk_id":"0-0.11-0"},{"nsides":9,"question":"What is 4 <img src=\"./images/nonagon_symbol.png\" style=\"width:14px;height:14px\"> 1? Please explain in words how you got your answer.","response_type":"free","response_choices":[],"correct_response":"","response":"5, start at 4 and move 1 number clockwise","orientation_history":[[0]],"response_history":["1, start at 4 and move 1 space clock","1, start at 4 and move 1 space cloc","1, start at 4 and move 1 space clo","1, start at 4 and move 1 space cl","1, start at 4 and move 1 space c","1, start at 4 and move 1 space ","1, start at 4 and move 1 space","1, start at 4 and move 1 spac","1, start at 4 and move 1 spa","1, start at 4 and move 1 sp","1, start at 4 and move 1 s","1, start at 4 and move 1 number clockwise",", start at 4 and move 1 number clockwise","5, start at 4 and move 1 number clockwise"],"rt":38745,"trial_type":"polygon-arrow-question","trial_index":0,"trial_index_global":52,"time_elapsed":720713,"internal_chunk_id":"0-0.11-0"},{"nsides":9,"question":"What is 8 <img src=\"./images/nonagon_symbol.png\" style=\"width:14px;height:14px\"> 4? Please explain in words how you got your answer.","response_type":"free","response_choices":[],"correct_response":"","response":"3, start at 8 and move 4 numbers clockwise","orientation_history":[[0]],"response_history":["3, start at 8 and movi","3, start at 8 and move 4 numbers clocki","3, start at 8 and move 4 numbers clockwise"],"rt":21543,"trial_type":"polygon-arrow-question","trial_index":0,"trial_index_global":53,"time_elapsed":742257,"internal_chunk_id":"0-0.11-0"},{"nsides":9,"question":"What is the identity under <img src=\"./images/nonagon_symbol.png\" style=\"width:14px;height:14px\">? Please explain in words how you got your answer.","response_type":"free","response_choices":[],"correct_response":"0","response":"i don't know","orientation_history":[[0]],"response_history":["i don ","i don","i do k","i do not t","i do not know this","i do  not kno w thi","i do not know th","i don't know"],"rt":47145,"trial_type":"polygon-arrow-question","trial_index":0,"trial_index_global":54,"time_elapsed":789403,"internal_chunk_id":"0-0.11-0"},{"nsides":9,"question":"What is the inverse of 5 under <img src=\"./images/nonagon_symbol.png\" style=\"width:14px;height:14px\">?","response_type":"free","response_choices":[],"correct_response":"4","response":"4","orientation_history":[[0]],"response_history":["4"],"rt":14921,"trial_type":"polygon-arrow-question","trial_index":0,"trial_index_global":55,"time_elapsed":804325,"internal_chunk_id":"0-0.11-0"},{"nsides":9,"question":"What is the inverse of 2 under <img src=\"./images/nonagon_symbol.png\" style=\"width:14px;height:14px\">?","response_type":"free","response_choices":[],"correct_response":"7","response":"7","orientation_history":[[0]],"response_history":["7"],"rt":6843,"trial_type":"polygon-arrow-question","trial_index":0,"trial_index_global":56,"time_elapsed":811169,"internal_chunk_id":"0- 0.11-0"},{"nsides":9,"question":"What is the inverse of 3 under <img src=\"./images/nonagon_symbol.png\" style=\"width:14px;height:14px\">? Please explain in words how you got your answer.","response_type":"free","response_choices":[],"correct_response":"","response":"6, start at 3 and count clockwise until you reach 0","orientation_history":[[0]],"response_history":["6, start at 3 c","6, start at 3 ","6, start at 3 and go b","6, start at 3 and go clockwise until you rea","6, start at 3 and go clockwise until you reach 0","6, start at 3 and cclockwise until you reach 0","6, start at 3 and couclockwise until you reach 0","6, start at 3 and counclockwise until you reach 0","6, start at 3 and countclockwise until you reach 0","6, start at 3 and count clockwise until you reach 0"],"rt":32920,"trial_type":"polygon-arrow-question","trial_index":0,"trial_index_global":57,"time_elapsed":844089,"internal_chunk_id":"0-0.11-0"},{"nsides":9,"question":"Is 2 a generator under <img src=\"./images/nonagon_symbol.png\" style=\"width:14px;height:14px\">? Please explain in words how you got your answer.","response_type":"free","response_choices":[],"correct_response":"","response":"yes, it can generate all numbers using only 2","orientation_history":[[0]],"response_history":["no ","no, it can't ge","no, it can't g","no, it can't get ","46813570","yes, it can generate all numbers using only 2"],"rt":119861,"trial_type":"polygon-arrow-question","trial_index":0,"trial_index_global":58,"time_elapsed":963951,"internal_chunk_id":"0-0.11-0"},{"nsides":9,"question":"Is 3 a generator under <img src=\"./images/nonagon_symbol.png\" style=\"width:14px;height:14px\">? Please explain in words how you got your answer.","response_type":"free","response_choices":[],"correct_response":"","response":"no, it can't generate 4,5,7,8,1,2 using only 3","orientation_history":[[0]],"response_history":["603","no, it can't generate 4,5,6","no, it can't generate 4,5,7,8.","no, it can't generate 4,5 ,7,8,1,2  using only 3"],"rt":52807,"trial_type":"polygon-arrow-question","trial_index":0,"trial_index_global":59,"time_elapsed":1016759,"internal_chunk_id":"0-0.11-0"},{"nsides":9,"question":"Is 5 a generator under <img src=\"./images/nonagon_symbol.png\" style=\"width:14px;height:14px\">? Please explain in words how you got your answer.","response_type":"free","response_choices":[],"correct_response":"","response":"yes, it can generate all numbers using only 5","orientation_history":[[0]],"response_history":["16273845","yes, it can gern","yes, it can ger","yes, it can generate all nub","yes, it can generate all numbers using only 5"],"rt":51170,"trial_type":"polygon-arrow-question","trial_index":0,"trial_index_global":60,"time_elapsed":1067929,"internal_chunk_id":"0-0.11-0"},{"nsides":9,"question":"Is 6 a generator under <img src=\"./images/nonagon_symbol.png\" style=\"width:14px;height:14px\">? Please explain in words how you got your answer.","response_type":"free","response_choices":[],"correct_response":"","response":"no, it can't generate 1,2,4,5,7,8 using only 6","orientation_history":[[0]],"response_history":["306","no, it can'","no, it can't generate 1,2,4,5,7,8,","no, it can't generate 1,2,4,5,7,8 using only 6"],"rt":54610,"trial_type":"polygon-arrow-question","trial_index":0,"trial_index_global":61,"time_elapsed":1122539,"internal_chunk_id":"0-0.11-0"},{"nsides":"n","instructions":"Now we'd like to ask you some questions about <img src=\"./images/ngon_symbol.png\" style=\"width:14px;height:14px\">, where n could be any positive counting number. For example, n could be 3, and the polygon a triangle, or n could be any other counting number you can think of. If you need to write the operation, you can use \"(n)\", and your answers can include n to stand in for the arbitrary value if necessary. (You can use the polygon at the right to think, but it doesn't necessarily correspond to the real polygon, which is why we've left most of it dashed.)","orientation_history":[0],"rt":21468,"trial_type":"polygon-arrow-instructions","trial_index":0,"trial_index_global":62,"time_elapsed":1144008,"internal_chunk_id":"0-0"},{"nsides":"n","question":"What is the formula for the inverse of 1 under <img src=\"./images/ngon_symbol.png\" style=\"width:14px;height:14px\">?","response_type":"free","response_choices":[],"correct_response":"n-1","response":"1 + n","orientation_history":[[0]],"response_history":["n + 2","n","1 + n -1","n ","n","n + 1","n + ","1 + n"],"rt":102210,"trial_type":"polygon-arrow-question","trial_index":0,"trial_index_global":63,"time_elapsed":1246218,"internal_chunk_id":"0-0.13-0"},{"nsides":"n","question":"What is the formula for the inverse of an element x under <img src=\"./images/ngon_symbol.png\" style=\"width:14px;height:14px\">? Please explain in words why your answer is correct.","response_type":"free","response_choices":[],"correct_response":"n-x","response":"x + n, i don't know this is confusing","orientation_history":[[0]],"response_history":["x + 1","x + n, i don't know this is confusing"],"rt":30833,"trial_type":"polygon-arrow-question","trial_index":0,"trial_index_global":64,"time_elapsed":1277052,"internal_chunk_id":"0-0.13-0"},{"nsides":"n","question":"Is there a pattern to which elements are generators? How can you know if an element x is a generator under <img src=\"./images/ngon_symbol.png\" style=\"width:14px;height:14px\"> without seeing whether it can make all the elements?.","response_type":"free","response_choices":[],"correct_response":"","response":"odd or even","orientation_history":[[0]],"response_history":["odd or ee","odd or even"],"rt":45075,"trial_type":"polygon-arrow-question","trial_index":0,"trial_index_global":65,"time_elapsed":1322128,"internal_chunk_id":"0-0.13-0"},{"nsides":"n","question":"True or false: If x is an odd number, it must be a generator under <img src=\"./images/ngon_symbol.png\" style=\"width:14px;height:14px\">.","response_type":"multi","response_choices":["Tr ue","False"],"correct_response":"False","response":"True","orientation_history":[[0]],"response_history":["True"],"rt":17067,"trial_type":"polygon-arrow-question","trial_index":0,"trial_index_global":66,"time_elapsed":1339197,"internal_chunk_id":"0-0.13-0"},{"nsides":"n","question":"True or false: If x is an even number, it must not be a generator under <img src=\"./images/ngon_symbol.png\" style=\"width:14px;height:14px\">.","response_type":"multi","response_choices":["True","False"],"correct_response":"False","response":"True","orientation_history":[[0]],"response_history":["True"],"rt":4418,"trial_type":"polygon-arrow-question","trial_index":0,"trial_index_global":67,"time_elapsed":1343616,"internal_chunk_id":"0-0.13-0"},{"nsides":"n","question":"True or false: If x is not a generator under <img src=\"./images/ngon_symbol.png\" style=\"width:14px;height:14px\">, x must divide n.","response_type":"multi","response_choices":["True","False"],"correct_response":"False","response":"Fa lse","orientation_history":[[0]],"response_history":["False"],"rt":22899,"trial_type":"polygon-arrow-question","trial_index":0,"trial_index_global":68,"time_elapsed":1366516,"internal_chunk_id":"0-0.13-0"},{"nsides":"n","question":"True or false: If x is not a generator under <img src=\"./images/ngon_symbol.png\" style=\"width:14px;height:14px\">, x must be a multiple of a divisor of n. Please explain in words why your answer is correct.","response_type":"free","response_choices":[],"correct_response":"True","response":"true, because its even","orientation_history":[[0]],"response_history":["true, because it ","true, because its even"],"rt":60511,"trial_type":"polygon-arrow-question","trial_index":0,"trial_index_global":69,"time_elapsed":1427028,"internal_chunk_id":"0-0.13-0"},{"nsides":"n","question":"If an element x is a generator under <img src=\"./images/ngon_symbol.png\" style=\"width:14px;height:14px\">, is its inverse a generator under <img src=\"./images/ngon_symbol.png\" st yle=\"width:14px;height:14px\"> always, sometimes, or never?","response_type":"multi","response_choices":["Always","Sometimes","Never"],"correct_response":"Always","response":"Always","orientation_history":[[0]],"response_history":["Always"],"rt":9757,"trial_type":"polygon-arrow-question","trial_index":0,"trial_index_global":70,"time_elapsed":1436786,"internal_chunk_id":"0-0.13-0"},{"nsides":"n","question":"If an element x is not a generator under <img src=\"./images/ngon_symbol.png\" style=\"width:14px;height:14px\">, is x <img src=\"./images/ngon_symbol.png\" style=\"width:14px;height:14px\"> x a generator under <img src=\"./images/ngon_symbol.png\" style=\"width:14px;height:14px\"> always, sometimes, or never?","response_type":"multi","response_choices":["Always","Sometimes","Never"],"correct_response":"Never","response":"Never","orientation_history":[[0]],"response_history":["Never"],"rt":8455,"trial_type":"polygon-arrow-question","trial_index":0,"trial_index_global":71,"time_elapsed":1445242,"internal_chunk_id":"0-0.13-0"},{"nsides":"n","question":"If an element x is a generator under <img src=\"./images/ngon_symbol.png\" style=\"width:14px;height:14px\">, is x <img src=\"./images/ngon_symbol.png\" style=\"width:14px;height:14px\"> x a generator under <img src=\"./images/ngon_symbol.png\" style=\"width:14px;height:14px\"> always, sometimes, or never? Please explain in words why your answer is correct.","response_type":"free","response_choices":[],"correct_response":"Sometimes","response":"always, because its a generator","orientation_history":[[0]],"response_history":["alwa","alw","alay","ala","always ","never becua","never becu","never because ","always, becqu","always, becq","always, because its an ","always, because its an","always, because its a a","always, because its a ger","always, because its a generator"],"rt":85847,"trial_type":"polygon-arrow-question","trial_index":0,"trial_index_global":72,"time_elapsed":1531090,"internal_chunk_id":"0- 0.13-0"},{"instructions":"We would like to ask you some questions about your background. Please press \"Continue\" to continue.","rt":1587,"trial_type":"instructions","trial_index":0,"trial_index_global":73,"time_elapsed":1532678,"internal_chunk_id":"0-0.14-0"},{"question":"What is your age?","response_type":"free","response_choices":[],"correct_response":"","response":"24","response_history":["24"],"rt":2291,"trial_type":"question","trial_index":0,"trial_index_global":74,"time_elapsed":1534970,"internal_chunk_id":"0-0.14-0"},{"question":"What is your level of education?","response_type":"multi","response_choices":["Did not graduate high school","High school diploma","Some college, no degree","Associates Degree","Bachelors Degree","Some graduate school, no degree","Masters Degree","Doctorate, M.D., etc."],"correct_response":"","response":"Bachelors Degree","response_history":["Bachelors Degree"],"rt":3143,"trial_type":"question","trial_index":0,"trial_index_global":75,"time_elapsed":1538114,"internal_chunk_id":"0-0.14-0"},{"question":"What is the most advanced math class you've completed? If you have multiple classes and you're not sure which one is most advanced, please list them.","response_type":"free","response_choices":[],"correct_response":"","response":"algebra 2 trig","response_history":["al","a","algebra 2 trig"],"rt":28559,"trial_type":"question","trial_index":0,"trial_index_global":76,"time_elapsed":1566674,"internal_chunk_id":"0-0.14-0"},{"question":"How familiar are you with the concept of modular arithmetic?","response_type":"multi","response_choices":["1 - never heard of it","2 - heard of it but didn't know what it was","3 - seen it used or explained","4 - used it but not often or recently","5 - used it, remember and understand it"],"correct_response":"1","response":"1 - never heard of it","response_history":["1 - never heard of it"],"rt":4831,"trial_type":"question","trial_index":0,"trial_index_global":77,"time_elapsed":1571506,"internal_chunk_id":"0-0 .14-0"},{"question":"How familiar are you with the concept of a mathematical group?","response_type":"multi","response_choices":["1 - never heard of it","2 - heard of it but didn't know what it was","3 - seen it used or explained","4 - used it but not often or recently","5 - used it, remember and understand it"],"correct_response":"1","response":"1 - never heard of it","response_history":["1 - never heard of it"],"rt":2895,"trial_type":"question","trial_index":0,"trial_index_global":78,"time_elapsed":1574402,"internal_chunk_id":"0-0.14-0"},{"question":"Do you feel you learned something from this HIT?","response_type":"multi","response_choices":["1 - not at all","2 - somewhat","3 - definitely"],"correct_response":"1","response":"2 - somewhat","response_history":["2 - somewhat"],"rt":3516,"trial_type":"question","trial_index":0,"trial_index_global":79,"time_elapsed":1577918,"internal_chunk_id":"0-0.14-0"},{"question":"Do you feel you understood the concepts in this HIT?","response_type":"multi","response_choices":["1 - not at all","2 - somewhat","3 - definitely"],"correct_response":"1","response":"2 - somewhat","response_history":["2 - somewhat"],"rt":2680,"trial_type":"question","trial_index":0,"trial_index_global":80,"time_elapsed":1580598,"internal_chunk_id":"0-0.14-0"},{"question":"Did you enjoy this HIT?","response_type":"multi","response_choices":["1 - not at all","2 - somewhat","3 - definitely"],"correct_response":"1","response":"2 - somewhat","response_history":["2 - somewhat"],"rt":3530,"trial_type":"question","trial_index":0,"trial_index_global":81,"time_elapsed":1584128,"internal_chunk_id":"0-0.14-0"},{"question":"What is your gender?","response_type":"multi","response_choices":["Female","Male","Other"],"correct_response":"","response":"Male","response_history":["Male"],"rt":2059,"trial_type":"question","trial_index":0,"trial_index_global":82,"time_elapsed":1586188,"internal_chunk_id":"0-0.14-0"},{"question":"What is/are your native language(s )? (The  languages spoken in your household when you were a child.)","response_type":"free","response_choices":[],"correct_response":"","response":"english","response_history":["english"],"rt":3809,"trial_type":"question","trial_index":0,"trial_index_global":83,"time_elapsed":1589998,"internal_chunk_id":"0-0.14-0"},{"question":"Did you use pen and paper at any point on this HIT?","response_type":"free","response_choices":[],"correct_response":"","response":"no","response_history":["no"],"rt":4120,"trial_type":"question","trial_index":0,"trial_index_global":84,"time_elapsed":1594118,"internal_chunk_id":"0-0.14-0"},{"question":"Do you have any comments on this HIT?","response_type":"free","response_choices":[],"correct_response":"","response":"need more examples to learn the more difficult concepts in the later part","response_history":["need","nee","ne","n","more examples for h","more examples for the ab","more examples would be b","more examples would be easier to underst","m","neede d mo","n eeded m","needed ","needed","neede","need more examples to lean","need more examples to learn the more difficult exa","need more examples to learn the more difficult ex","need more examples to learn the more difficult e","need more examples to learn the more difficult concepts in the later part"],"rt":44077,"trial_type":"question","trial_index":0,"trial_index_global":85,"time_elapsed":1638195,"internal_chunk_id":"0-0.14-0"}]