[{"nsides":6,"instructions":"Let's define a new operation <img src=\"./images/hexagon_symbol.png\" style=\"width:14px;height:14px\">. This operation will give us a way of combining two of the numbers 0, 1, 2, 3, 4, 5 to get another one of them back. Consider the hexagon at the right, where I've labeled each point with one of the numbers. To perform <img src=\"./images/hexagon_symbol.png\" style=\"width:14px;height:14px\">, you can use the interactive diagram on the right, or perform the operation in your mind. or perform the operation in your mind. Point the arrow at the first number on the hexagon, then move the arrow the second number of points clockwise around the hexagon. The number the arrow arrives at is your result. (The operation is called <img src=\"./images/hexagon_symbol.png\" style=\"width:14px;height:14px\"> because it uses the hexagon, which has 6 sides.) <br /><br />For example, 3 <img src=\"./images/hexagon_symbol.png\" style=\"width:14px;height:14px\"> 5 = 2,  because  5 steps clockwise from 3 on the hexagon brings us to 2. So 3 <img src=\"./images/hexagon_symbol.png\" style=\"width:14px;height:14px\"> 5 = 2.<br /><br />Similarly, 1 <img src=\"./images/hexagon_symbol.png\" style=\"width:14px;height:14px\"> 4 = 5, because 4 steps clockwise from 1 brings us to 5. <br /><br />Click \"Continue\" when you are ready to move on.","orientation_history":[0],"rt":103113,"trial_type":"polygon-arrow-instructions","trial_index":0,"trial_index_global":1,"time_elapsed":113691,"internal_chunk_id":"0-0"},{"nsides":6,"question":"Now try one on your own! What is 4 <img src=\"./images/hexagon_symbol.png\" style=\"width:14px;height:14px\"> 5? <br /><br /> (Remember, to perform <img src=\"./images/hexagon_symbol.png\" style=\"width:14px;height:14px\">, you can use the interactive diagram on the right, or perform the operation in your mind. Point the arrow at the first number on the hexagon, then move the arrow the second number of points clockwise around the h exagon.  The number the arrow arrives at is your result.)","response_type":"free","response_choices":[],"correct_response":"3","response":"3","orientation_history":[[0]],"response_history":["3"],"rt":14314,"trial_type":"polygon-arrow-question","trial_index":0,"trial_index_global":2,"time_elapsed":128008,"internal_chunk_id":"0-0.2-0"},{"nsides":6,"feedback":"Correct! 4 <img src=\"./images/hexagon_symbol.png\" style=\"width:14px;height:14px\"> 5 = 3 because 5 steps clockwise on the hexagon from 4 brings us to 3","orientation_history":[0],"rt":2827,"trial_type":"polygon-arrow-feedback","trial_index":0,"trial_index_global":3,"time_elapsed":130838,"internal_chunk_id":"0-0.2-0"},{"nsides":6,"question":"What is 3 <img src=\"./images/hexagon_symbol.png\" style=\"width:14px;height:14px\"> 2? <br /><br /> (Remember, to perform <img src=\"./images/hexagon_symbol.png\" style=\"width:14px;height:14px\">, you can use the interactive diagram on the right, or perform the operation in your mind. Poin t the ar row at the first number on the hexagon, then move the arrow the second number of points clockwise around the hexagon. The number the arrow arrives at is your result.)","response_type":"free","response_choices":[],"correct_response":"5","response":"2","orientation_history":[[0],[0.005347542609150491,0.032246882435253754,0.06099295544893324,0.16710179993110552,0.2805367917383219,2.0344439357957027,2.5535900500422253,2.842565460034792,2.8928826644962697,2.914156050520331,2.929230285515291,2.9491612007850323,2.953494346510345,2.9584818363273087,2.9584818363273087,2.9596092315655573,2.9596092315655573,2.9596092315655573,2.9596092315655573,2.9596092315655573,2.9596092315655573,2.9606942220982146,2.961739153797315,2.9637173905837164,2.96465459743209,2.96465459743209,2.9664339549848098,2.9664339549848098,2.983916663164784,2.984462514638956,3.000845684735026,3.033629633351037,3.033629633351037,3.033629633351037,3.033629633351037,3.033629633351037,3.033629633351037,3.0500128034471077,3.049484541478286,3.096436730012483,3.096436730012483,3.1107144402016207,3.124516514691434,3.139698716460373,3.139698716460373,3.137861327623134,3.152765373028532,3.152765373028532,3.152765373028532,3.152765373028532,3.152765373028532,3.152765373028532,3.152765373028532,3.152765373028532,3.152765373028532,3.152765373028532,3.152765373028532,3.152765373028532,3.152765373028532,3.152765373028532,3.152765373028532,3.152765373028532,3.152765373028532,3.152765373028532,3.152765373028532,3.152765373028532,3.152765373028532,3.152765373028532,3.152765373028532,3.152765373028532,3.152765373028532,3.152765373028532,3.152765373028532,3.152765373028532,3.152765373028532,3.152765373028532,3.152765373028532,3.152765373028532,3.152765373028532,3.152765373028532,3.152765373028532,3.152765373028532,3.152765373028532,3.152765373028532,3.152765373028532,3.152765373028532,3.152765373028532,3.152765373028532,3.152765373028532,3.152765373028532,3.152765373028532,3.152765373028532,3.152765373028532,3.152765373028532,3.152765373028532,3.152765373028532,3.1823863364576583,3.1823863364576583,3.269333639711106,3.329729218777551,3.403120328441106,3.499750954065509,3.5624648145803066,3.64704099446345,3.7360676586646564,3.775119833155026,3.8026358224404797,3.880737500160466,3.90571743096318,3.9374071069182115,3.9810463217915206,3.9810463217915206,3.987492854458921,4.003156372117894,4.003156372117894,4.003156372117894,4.049526529126355,4.084207007396639,4.109681554459271,4.1194603083087,4.14877178600984,4.14877178600984,4.14877178600984,4.14877178600984,4.14877178600984,4.14877178600984,4.168692338287898,4.168692338287898,4.168692338287898,4.168692338287898,4.173128228147053,4.173128228147053,4.173128228147053,4.173128228147053,4.173128228147053,4.173128228147053,4.173128228147053,4.173128228147053,4.183142199552845,4.207527608725563,4.2383186954714205,4.294444998429178,4.359537346546066,4.44939424870377,4.576406602881544,4.622503086837436,4.645442100474728,4.691115594360628,4.736361819959693,4.75876919731321,4.824882746784848,4.846488922045946,4.870934839366013,4.906250986036708,4.906250986036708,4.906250986036708,4.916826677342883,4.916826677342883,4.916826677342883,4.916826677342883,4.916826677342883,4.916826677342883,4.916826677342883,4.916826677342883,4.916826677342883,4.916826677342883,4.9273266002919724,4.9415759455890464,4.972638700660141,4.997279881036961,5.007375633387958,5.007375633387958,5.017381327199094,5.017381327199094,5.017381327199094,5.037119517445996,5.071002861694489,5.095132490230265,5.15230217469586,5.184859889823629,5.184859889823629,5.184859889823629,5.184859889823629,5.184859889823629,5.184859889823629,5.184859889823629,5.184859889823629,5.184859889823629,5.184859889823629,5.184859889823629,5.184859889823629,5.184859889823629,5.184859889823629,5.184859889823629,5.184859889823629,5.184859889823629,5.184859889823629,5.184859889823629,5.193578649442898,5.2021934131299385,5.2021934131299385,5.27743185886589,5.322381653474366,5.380839421166542,5.409912308358326,5.445769479773971,5.505020290693297,5.533807593211327,5.565080645922054,5.634509600329403,5.657816925829235,5.657816925829235,5.6998996497804235,5.6998996497804235,5.709399755161507,5.742765806909002,5.756716296981062,5.776343740088892,5.796286075368317,5.843836412171967,5.8642839296333955,5.8746047970664454,5.905936247537227,5.916497145979809,5.972140981818575,5.982890687180297,5.995464164524549,6.0169332580286605,6.0623565374502375,6.073928519183102,6.116749905190934,6.127261856145046,6.148304385601099,-0.09311516111649332,-0.0827124154481731,-0.07231867973754524,-0.07231867973754524,-0.07231867973754524,-0.07285418359553608,-0.07285418359553608,-0.07285418359553608,-0.07285418359553608,-0.07285418359553608,-0.07285418359553608,-0.07285418359553608,-0.07285418359553608,-0.07285418359553608,-0.07285418359553608,-0.07285418359553608,-0.07285418359553608,-0.07285418359553608,-0.07285418359553608,-0.07285418359553608,-0.07285418359553608,-0.07285418359553608,-0.07285418359553608,-0.07285418359553608,-0.07285418359553608,-0.07285418359553608,-0.07285418359553608,-0.07285418359553608,-0.07285418359553608,-0.07285418359553608,-0.07285418359553608,-0.07285418359553608,-0.07285418359553608,-0.07285418359553608,-0.07285418359553608,-0.07285418359553608,-0.07285418359553608,-0.07285418359553608,-0.07285418359553608,-0.07285418359553608,-0.07285418359553608,-0.07285418359553608,-0.07285418359553608,-0.07285418359553608,-0.07285418359553608,-0.07285418359553608,-0.07285418359553608,-0.07285418359553608,-0.07285418359553608,-0.07285418359553608,-0.07285418359553608,-0.07285418359553608,-0.07285418359553608,-0.05231492915993363,-0.011435333794158842,-0.011435333794158842,0.032246882435253754,0.08147918355736361,0.15687720737153366,0.22441600903714543,0.3724558069566093,0.4898044327452491,0.5664359337309571,0.6680360618560202,0.6955122698501948,0.7294295124411903,0.7673080317417655,0.7862131591420236,0.7918705649247437,0.7992296653450847,0.7992296653450847,0.7992296653450847,0.7992296653450847,0.7992296653450847,0.7992296653450847,0.7992296653450847,0.7992296653450847,0.804781841999013,0.8176450458327021,0.8230105208367222,0.8335062403775169,0.8335062403775169,0.8510314567694025,0.8510314567694025,0.8559877532163218,0.8708143344877689,0.8756360503419104,0.8831250707561671,0.8831250707561671,0.8906856111358215,0.9029637375350916,0.9029637375350916,0.9151679184063208,0.9272952180016121,0.9272952180016121,0.9393428278557983,0.9470946105680049,0.9470946105680049,0.9470946105680049,0.9470946105680049,0.9631883923901243,0.9631883923901243,0.9631883923901243,0.9631883923901243,0.9631883923901243,0.9631883923901243,0.9631883923901243,0.9631883923901243,0.9631883923901243,0.9631883923901243,0.9631883923901243,0.9631883923901243,0.9631883923901243,0.9631883923901243,0.9631883923901243,0.9631883923901243,0.9631883923901243,0.9631883923901243,0.9631883923901243,0.9631883923901243,0.9631883923901243,0.9631883923901243,0.9631883923901243,0.9631883923901243,0.9631883923901243,0.9631883923901243,0.9631883923901243,1.0027910572204795,1.0027910572204795,1.0190681271043778,1.0355901409463497,1.0865860637043718,1.121723427510418,1.121723427510418,1.1944860381294988,1.241441356244561,1.2796875197754338,1.3772450536295524,1.4167470926412256,1.4563419988361237,1.535315507061243,1.5549246438031066,1.5841775232084796,1.6323870108038459,1.641932132496816,1.6703458323784846,1.7076598668626701,1.7351708607605325,1.7532676216546923,1.7711592369858522,1.7888379201789955,1.8149414252356897,1.8320583974027866,1.84894077859964,1.8572925235499205,1.8572925235499205,1.8572925235499205,1.8572925235499205,1.8572925235499205,1.8738145373918924,1.8981373191080328,1.9061207081099079,1.9140414898356914,1.9218994157032563,1.9296942721061459,1.9450940915136419,1.9526987939455893,1.9602399038855076,1.9751311652121977,1.982481298475424,1.982481298475424,1.982481298475424,1.982481298475424,1.982481298475424,1.9897678010744644,1.996990732032003,1.996990732032003,1.996990732032003,1.996990732032003,1.996990732032003,1.996990732032003,1.996990732032003,1.996990732032003,1.996990732032003,1.996990732032003,1.996990732032003,1.996990732032003,1.996990732032003,1.996990732032003,1.996990732032003,1.996990732032003,1.996990732032003,1.996990732032003,1.996990732032003,1.996990732032003,1.996990732032003,2.018279062165095,2.045781318496579,2.0525006638467778,2.0591580040275783,2.0591580040275783,2.0591580040275783,2.0591580040275783,2.0591580040275783,2.0591580040275783,2.0591580040275783,2.0591580040275783,2.0591580040275783,2.0591580040275783,2.0591580040275783,2.0591580040275783,2.0591580040275783,2.0591580040275783,2.0591580040275783,2.0591580040275783,2.0591580040275783,2.0591580040275783,2.0591580040275783,2.0591580040275783,2.0591580040275783,2.0591580040275783,2.0591580040275783,2.0591580040275783,2.0591580040275783,2.0591580040275783,2.0591580040275783,2.0591580040275783,2.0591580040275783,2.0591580040275783,2.0591580040275783,2.0591580040275783,2.0591580040275783,2.0591580040275783,2.0591580040275783,2.0591580040275783,2.0591580040275783,2.0591580040275783,2.0591580040275783,2.0591580040275783,2.0591580040275783,2.0591580040275783,2.0591580040275783,2.0591580040275783,2.0943951023931953]],"response_history":["2"],"rt":30849,"trial_type":"polygon-arrow-question","trial_index":0,"trial_index_global":4,"time_elapsed":161689,"internal_chunk_id":"0-0.2-0"},{"nsides":6,"feedback":"Sorry, that was incorrect. 3 <img src=\"./images/hexagon_symbol.png\" style=\"width:14px;height:14px\"> 2 = 5 because 2 steps clockwise on the hexagon from 3 brings us to 5","orientation_history":[0,[0,0,0,0,0,0,0,-0.0005458514741718545,0.015827614597670348,-6.2328681027181085,-6.19591870653478,-5.969177960857216,-5.775399406510414,-5.388240108108285,-5.388240108108285,-4.598161791674743,-4.399077044242293,-4.299107458868249,-4.147291324747768,-4.123447605860161,-4.082437177887937,-4.013056017150931,-3.988822907702896,-3.973187780324558,-3.929166469113819,-3.901208565588499,-3.880327676652199,-3.8122082270569804,-3.792526820820089,-3.7598942306301977,-3.704473024551428,-3.666449706842406,-3.629084699195764,-3.5924624521596744,-3.5804330770480455,-3.576417666773274,-3.576417666773274,-3.576417666773274,-3.5605134960456155,-3.5605134960456155,-3.5605134960456155,-3.5605134960456155,-3.5524677842133734,-3.527960112152389,-3.5113169555372226,-3.494434574340369,-3.459971351786365,-3.4393654905761397,-3.4128184485258624,-3.401164775378355,-3.3832660960865555,-3.371812240866637,-3.3425606900546194,-3.3314784498220824,-3.322486496725701,-3.3134593190154957,-3.302615962248055,-3.2845558058710846,-3.2635343742627825,-3.254565635894155,-3.2443452231712184,-3.2342811507283775,-3.2254035146470335,-3.2254035146470335,-3.2254035146470335,-3.2254035146470335,-3.2254035146470335,-3.2254035146470335,-3.2254035146470335,-3.2254035146470335,-3.2254035146470335,-3.2165073800185384,-3.2165073800185384,-3.2165073800185384,-3.2165073800185384,-3.2165073800185384,-3.2165073800185384,-3.2165073800185384,-3.2165073800185384,-3.2165073800185384,-3.2165073800185384,-3.2165073800185384,-3.2165073800185384,-3.2165073800185384,-3.2165073800185384,-3.2165073800185384,-3.2165073800185384,-3.2165073800185384,-3.2165073800185384,-3.2165073800185384,-3.2165073800185384,-3.2165073800185384,-3.2165073800185384,-3.2165073800185384,-3.2165073800185384,-3.2165073800185384,-3.2165073800185384,-3.20759410125338,-3.1897216083409483,-3.1807651787491,-3.171797171618662,-3.171797171618662,-3.171797171618662,-3.171797171618662,-3.171797171618662,-3.171797171618662,-3.171797171618662,-3.171797171618662,-3.171797171618662,-3.171797171618662,-3.171797171618662,-3.171797171618662,-3.171797171618662,-3.171797171618662,-3.171797171618662,-3.171797171618662,-3.171797171618662,-3.171797171618662,-3.171797171618662,-3.171797171618662,-3.171797171618662,-3.171797171618662,-3.171797171618662,-3.171797171618662,-3.171797171618662,-3.171797171618662,-3.171797171618662,-3.171797171618662,-3.171797171618662,-3.171797171618662,-3.171797171618662,-3.171797171618662,-3.171797171618662,-3.171797171618662,-3.171797171618662,-3.171797171618662,-3.171797171618662,-3.171797171618662,-3.171797171618662,-3.171797171618662,-3.171797171618662,-3.171797171618662,-3.171797171618662,-3.171797171618662,-3.171797171618662,-3.171797171618662,-3.171797171618662,-3.171797171618662,-3.171797171618662,-3.171797171618662,-3.171797171618662,-3.171797171618662,-3.171797171618662,-3.171797171618662,-3.171797171618662,-3.171797171618662,-3.171797171618662,-3.171797171618662,-3.171797171618662,-3.171797171618662,-3.171797171618662,-3.171797171618662,-3.171797171618662,-3.171797171618662,-3.171797171618662,-3.171797171618662,-3.171797171618662,-3.171797171618662,-3.171797171618662,-3.171797171618662,-3.171797171618662,-3.171797171618662,-3.171797171618662,-3.171797171618662,-3.171797171618662,-3.171797171618662,-3.171797171618662,-3.171797171618662,-3.171797171618662,-3.171797171618662,-3.171797171618662,-3.171797171618662,-3.171797171618662,-3.171797171618662,-3.171797171618662,-3.171797171618662,-3.171797171618662,-3.171797171618662,-3.171797171618662,-3.171797171618662,-3.171797171618662,-3.171797171618662,-3.171797171618662,-3.171797171618662,-3.171797171618662,-3.171797171618662,-3.171797171618662,-3.171797171618662,-3.171797171618662,-3.171797171618662,-3.171797171618662,-3.171797171618662,-3.171797171618662,-3.171797171618662,-3.171797171618662,-3.171797171618662,-3.171797171618662,-3.171797171618662,-3.171797171618662,-3.171797171618662,-3.171797171618662,-3.171797171618662,-3.171797171618662,-3.171797171618662,-3.171797171618662,-3.171797171618662,-3.171797171618662,-3.171797171618662,-3.171797171618662,-3.171797171618662,-3.171797171618662,-3.171797171618662,-3.171797171618662,-3.171797171618662,-3.171797171618662,-3.171797171618662,-3.171797171618662,-3.171797171618662,-3.171797171618662,-3.171797171618662,-3.171797171618662,-3.171797171618662,-3.171797171618662,-3.171797171618662,-3.171797171618662,-3.171797171618662,-3.171797171618662,-3.171797171618662,-3.171797171618662,-3.171797171618662,-3.171797171618662,-3.171797171618662,-3.171797171618662,-3.171797171618662,-3.171797171618662,-3.171797171618662,-3.171797171618662,-3.171797171618662,-3.171797171618662,-3.171797171618662,-3.171797171618662,-3.171797171618662,-3.171797171618662,-3.171797171618662,-3.171797171618662,-3.171797171618662,-3.171797171618662,-3.171797171618662,-3.171797171618662,-3.171797171618662,-3.171797171618662,-3.171797171618662,-3.171797171618662,-3.171797171618662,-3.171797171618662,-3.171797171618662,-3.171797171618662,-3.171797171618662,-3.171797171618662,-3.171797171618662,-3.171797171618662,-3.171797171618662,-3.171797171618662,-3.171797171618662,-3.171797171618662,-3.171797171618662,-3.171797171618662,-3.171797171618662,-3.171797171618662,-3.171797171618662,-3.171797171618662,-3.171797171618662,-3.171797171618662,-3.171797171618662,-3.171797171618662,-3.171797171618662,-3.171797171618662,-3.171797171618662,-3.171797171618662,-3.171797171618662,-3.171797171618662,-3.171797171618662,-3.171797171618662,-3.171797171618662,-3.171797171618662,-3.171797171618662,-3.171797171618662,-3.171797171618662,-3.171797171618662,-3.171797171618662,-3.171797171618662,-3.171797171618662,-3.171797171618662,-3.171797171618662,-3.171797171618662,-3.171797171618662,-3.171797171618662,-3.171797171618662,-3.171797171618662,-3.171797171618662,-3.171797171618662,-3.171797171618662,-3.171797171618662,-3.171797171618662,-3.171797171618662,-3.171797171618662,-3.171797171618662,-3.171797171618662,-3.171797171618662,-3.171797171618662,-3.171797171618662,-3.171797171618662,-3.171797171618662,-3.171797171618662,-3.171797171618662,-3.171797171618662,-3.171797171618662,-3.171797171618662,-3.171797171618662,-3.171797171618662,-3.171797171618662,-3.171797171618662,-3.171797171618662,-3.171797171618662,-3.171797171618662,-3.171797171618662,-3.171797171618662,-3.171797171618662,-3.171797171618662,-3.171797171618662,-3.171797171618662,-3.171797171618662,-3.162819009561686,-3.162819009561686,-3.162819009561686,-3.162819009561686,-3.162819009561686,-3.153832124960245,-3.153832124960245,-3.153832124960245,-3.153832124960245,-3.153832124960245,-3.153832124960245,-3.144837958614907,-3.144837958614907,-3.144837958614907,-3.126833577739773,-3.1179081678507776,-3.099726850520658,-3.0904709440725977,-3.0714517313829344,-3.0327739499066007,-3.023312215507513,-3.023312215507513,-2.9228718306300068,-2.9228718306300068,-2.846932244505199,-2.846932244505199,-2.774489001776793,-2.739483851512092,-2.717117569748294,-2.6540982343647483,-2.6317778437086665,-2.5735437610955585,-2.551276394505369,-2.5459492763376073,-2.529102008742039,-2.485115792958826,-2.4555127929131375,-2.41901746445211,-2.3981100746100683,-2.3908843703101743,-2.350079694162867,-2.3300417655309373,-2.3167969260456016,-2.3035544095371043,-2.28396614469123,-2.2715179473300964,-2.2585753182350627,-2.2585753182350627,-2.2397442111208736,-2.2397442111208736,-2.214178554262025,-2.1998688562972255,-2.1942720556602495,-2.17610718165968,-2.17610718165968,-2.1688188003570685,-2.1688188003570685,-2.1688188003570685,-2.1688188003570685,-2.1688188003570685,-2.1688188003570685,-2.1688188003570685,-2.1688188003570685,-2.1688188003570685,-2.1688188003570685,-2.1582706683736426,-2.1582706683736426,-2.1582706683736426,-2.1582706683736426,-2.1582706683736426,-2.1582706683736426,-2.1582706683736426,-2.1582706683736426,-2.1582706683736426,-2.1582706683736426,-2.1582706683736426,-2.1582706683736426,-2.1582706683736426,-2.1582706683736426,-2.1582706683736426,-2.1582706683736426,-2.1582706683736426,-2.1582706683736426,-2.1582706683736426,-2.1582706683736426,-2.150956274261439,-2.1435658459957914,-2.1360990117625285,-2.1209347713465547,-2.089676164919368,-2.031962551310402,-1.9704289579613583,-1.9204002164901741,-1.797961322579349,-1.7655886698014047,-1.7150943371696963,-1.7150943371696963,-1.5906042440017627,-1.5906042440017627,-1.5274952553590957,-1.4331442436605872,-1.381419305408806,-1.3507672626573388,-1.2513999401653688,-1.222599657410381,-1.1757943046840502,-1.1089917723457763,-1.074373573390015,-1.0574975385430943,-1.0119547633940584,-1.003950803154213,-0.9960219046034897,-0.9960219046034897,-0.9726847216269388,-0.9352776319079439,-0.9208297908504592,-0.8997013743817757,-0.8859732731649252,-0.872527004358397,-0.872527004358397,-0.872527004358397,-0.872527004358397,-0.872527004358397,-0.872527004358397,-0.872527004358397,-0.872527004358397,-0.872527004358397,-0.872527004358397,-0.872527004358397,-0.872527004358397,-0.872527004358397,-0.872527004358397,-0.872527004358397,-0.8928018622299829,-0.9066722531470441,-0.9137149235309536,-0.9280172395367954,-0.9352776319079439,-0.9475676033590084,-0.9475676033590084,-0.9475676033590084,-0.9475676033590084,-0.9475676033590084,-0.9475676033590084,-0.9623941846304547,-0.9623941846304547,-0.9623941846304547,-0.9623941846304547,-0.9623941846304547,-0.9623941846304547,-0.9623941846304547,-0.9623941846304547,-0.9623941846304547,-0.9623941846304547,-0.9623941846304547,-0.9623941846304547,-0.9623941846304547,-0.9623941846304547,-0.9623941846304547,-0.9623941846304547,-0.9623941846304547,-0.9623941846304547,-0.9623941846304547,-0.9623941846304547,-0.9623941846304547,-0.9623941846304547,-0.9623941846304547,-0.9623941846304547,-0.9623941846304547,-0.9623941846304547,-0.9623941846304547,-0.9623941846304547,-0.9623941846304547,-0.9623941846304547,-0.9623941846304547,-0.9623941846304547,-0.9623941846304547,-0.9623941846304547,-0.9623941846304547,-0.9623941846304547,-0.9623941846304547,-0.9699164499163935,-0.9699164499163935,-0.9699164499163935,-0.9699164499163935,-0.9699164499163935,-0.9699164499163935,-0.9699164499163935,-0.9699164499163935,-0.9699164499163935,-0.9699164499163935,-0.9699164499163935,-0.9699164499163935,-0.9699164499163935,-0.9699164499163935,-0.9699164499163935,-0.9699164499163935,-0.9699164499163935,-0.9699164499163935,-0.9699164499163935,-0.9699164499163935,-0.9699164499163935,-0.9699164499163935,-0.9699164499163935,-0.9699164499163935,-0.9699164499163935,-0.9699164499163935,-0.9699164499163935,-0.9699164499163935,-0.9699164499163935,-0.9699164499163935,-0.9699164499163935,-0.9699164499163935,-0.9699164499163935,-0.9699164499163935,-0.9699164499163935,-0.9699164499163935,-0.9699164499163935,-0.9699164499163935,-0.9699164499163935,-0.9699164499163935,-0.9699164499163935,-0.9699164499163935,-0.9699164499163935,-0.9699164499163935,-0.9699164499163935,-0.9699164499163935,-0.9699164499163935,-0.9699164499163935,-0.9699164499163935,-0.9699164499163935,-0.9699164499163935,-0.9699164499163935,-0.9699164499163935,-0.9699164499163935,-0.9699164499163935,-0.9699164499163935,-0.9699164499163935,-0.9699164499163935,-0.9699164499163935,-0.9699164499163935,-0.9699164499163935,-0.9699164499163935,-0.9699164499163935,-0.9699164499163935,-0.9699164499163935,-0.9699164499163935,-0.9699164499163935,-0.9699164499163935,-0.9699164499163935,-0.9699164499163935,-0.9699164499163935,-0.9699164499163935,-0.9699164499163935,-0.9699164499163935,-0.9699164499163935,-0.9699164499163935,-0.9699164499163935,-0.9699164499163935,-0.9699164499163935,-0.9699164499163935,-0.9699164499163935,-0.9699164499163935,-0.9699164499163935,-0.9699164499163935,-0.9699164499163935,-0.9699164499163935,-0.9699164499163935,-0.9699164499163935,-0.9699164499163935,-0.9699164499163935,-0.9699164499163935,-0.9699164499163935,-0.9699164499163935,-0.9699164499163935,-0.9699164499163935,-0.9699164499163935,-0.9699164499163935,-0.9699164499163935,-0.9699164499163935,-0.9699164499163935,-0.9699164499163935,-0.9699164499163935,-0.9699164499163935,-0.9699164499163935,-0.9699164499163935,-0.9699164499163935,-0.9699164499163935,-0.9699164499163935,-0.9699164499163935,-0.9699164499163935,-0.9699164499163935,-0.9699164499163935,-0.9699164499163935,-0.9699164499163935,-0.9699164499163935,-0.9699164499163935,-0.9699164499163935,-0.9699164499163935,-0.9699164499163935,-0.9699164499163935,-0.9699164499163935,-0.9699164499163935,-0.9699164499163935,-0.9699164499163935,-0.9699164499163935,-0.9699164499163935,-0.9699164499163935,-0.9699164499163935,-0.9699164499163935,-0.9699164499163935,-0.9699164499163935,-0.9699164499163935,-0.9699164499163935,-0.9699164499163935,-0.9699164499163935,-0.9699164499163935,-0.9699164499163935,-0.9699164499163935,-0.9699164499163935,-0.9699164499163935,-0.9699164499163935,-0.9699164499163935,-0.9699164499163935,-0.9699164499163935,-0.9699164499163935,-0.9699164499163935,-0.9699164499163935,-0.9699164499163935,-0.9699164499163935,-0.9699164499163935,-0.9699164499163935,-0.9699164499163935,-0.9699164499163935,-0.9699164499163935,-0.9699164499163935,-0.9699164499163935,-0.9699164499163935,-0.9699164499163935,-0.9699164499163935,-0.9699164499163935,-0.9699164499163935,-0.9699164499163935,-0.9699164499163935,-0.9699164499163935,-0.9699164499163935,-0.9699164499163935,-0.9775116496954164,-0.9929215290841444,-0.9929215290841444,-1.0072476851879149,-1.0072476851879149,-1.035599912366191,-1.0474742335639124,-1.0696787722025203,-1.0936019724897221,-1.1086738410296553,-1.119796852811592,-1.1316026797346765,-1.1377805253568471,-1.1597271910493614,-1.1665033272441123,-1.1924656018091095,-1.2122220671181507,-1.216270627994179,-1.2828387917700024,-1.3177724590001318,-1.3435410661757157,-1.4430694760480645,-1.4888804479748012,-1.5380211823908212,-1.6093286471761115,-1.6486784035647162,-1.6486784035647162,-1.9067170850488715,-1.9067170850488715,-2.062816954040928,-2.2237506932971076,-2.5975867969079283,-2.7548200723538216,-2.835808806099007,-2.986622338494363,-3.0270331285677217,-3.061234405908734,-3.1237417741758025,-3.1233092482512177,-3.137794903037279,-3.137794903037279,-3.137794903037279,-3.137794903037279,-3.1516484418544453,-3.179123973304342,-3.258377249059421,-3.2827186983236043,-3.306213069035598,-3.3288792118192827,-3.3384599514708526,-3.3507380778701226,-3.3507380778701226,-3.3507380778701226,-3.3507380778701226,-3.3507380778701226,-3.3507380778701226,-3.3507380778701226,-3.3507380778701226,-3.3507380778701226,-3.3507380778701226,-3.3507380778701226,-3.3507380778701226,-3.3507380778701226,-3.3507380778701226,-3.3507380778701226,-3.3507380778701226,-3.3507380778701226,-3.3507380778701226,-3.3507380778701226,-3.3507380778701226,-3.3384599514708526,-3.3261109401087388,-3.30121311070164,-3.288671008978196,-3.276071446647979,-3.2634180546169187,-3.2634180546169187,-3.2507145637898818,-3.2507145637898818,-3.2251726743925926,-3.2251726743925926,-3.2123421836962622,-3.2123421836962622,-3.199477396386463,-3.18658244878845,-3.18658244878845,-3.1736615367389245,-3.1736615367389245,-3.1736615367389245,-3.1736615367389245,-3.1736615367389245,-3.1736615367389245,-3.1736615367389245,-3.1736615367389245,-3.1736615367389245,-3.1736615367389245,-3.1736615367389245,-3.1736615367389245,-3.1736615367389245,-3.172024341083178,-3.172024341083178,-3.172024341083178,-3.172024341083178,-3.1594072179551023,-3.134128558328566,-3.0961599573516656,-3.0835064600428694,-3.0456106772882574,-2.9669204545815537,-2.9415635717234565,-2.901321282750515,-2.8392284312647913,-2.7870669547890756,-2.7470882676657853,-2.661742968297529,-2.507743754687968,-2.4358464766184595,-2.2869391866653195,-2.2007506902838125,-2.126023785938388,-1.9877807954606599,-1.9525280569756074,-1.934462465609263,-1.9081920102330372,-1.9081920102330372,-1.9056912940839297,-1.9056912940839297,-1.9056912940839297,-1.9056912940839297,-1.9056912940839297,-1.9056912940839297,-1.9056912940839297,-1.9056912940839297,-1.9056912940839297,-1.8992249378845028,-1.8992249378845028,-1.8992249378845028,-1.8861973020472815,-1.8597717367874633,-1.8396402286570606,-1.796792074354519,-1.7621333093435734,-1.6840334401020964,-1.5012730273478256,-1.4054696500941475,-1.2806974674197331,-1.2437866172796337,-1.213982302468958,-1.1724188506838544,-1.1724188506838544,-1.1724188506838544,-1.1724188506838544,-1.1724188506838544,-1.1724188506838544,-1.1724188506838544,-1.1724188506838544,-1.1724188506838544,-1.1724188506838544,-1.1724188506838544,-1.1724188506838544,-1.1724188506838544,-1.1656227357140665,-1.1588625133573789,-1.1588625133573789,-1.1588625133573789,-1.1388004128155682,-1.1388004128155682,-1.1388004128155682,-1.1388004128155682,-1.1388004128155682,-1.1388004128155682,-1.1388004128155682,-1.1388004128155682,-1.1388004128155682,-1.1388004128155682,-1.1388004128155682,-1.1388004128155682,-1.1388004128155682,-1.1388004128155682,-1.1388004128155682,-1.1388004128155682,-1.1388004128155682,-1.1388004128155682,-1.1388004128155682,-1.1388004128155682,-1.1388004128155682,-1.1388004128155682,-1.1388004128155682,-1.1388004128155682,-1.1388004128155682,-1.1388004128155682,-1.1388004128155682,-1.1388004128155682,-1.1388004128155682,5.235987755982988]],"rt":28578,"trial_type":"polygon-arrow-feedback","trial_index":0,"trial_index_global":5,"time_elapsed":190268,"internal_chunk_id":"0-0.2-0"},{"nsides":6,"question":"What is 1 <img src=\"./images/hexagon_symbol.png\" style=\"width:14px;height:14px\"> 5? <br /><br /> (Remember, to perform <img src=\"./images/hexagon_symbol.png\" style=\"width:14px;height:14px\">, you can use the interactive diagram on the right, or perform the operation in your mind. Point the arrow at the first number on the hexagon, then move the arrow the second number of points clockwise around the hexagon. The number the arrow arrives at is your result.)","response_type":"free","response_choices":[],"correct_response":"0","response":"0","orientation_history":[[0],[0,0,0,0,0,0,0,0,0,0,0,-6.205638422523245,-6.177946639400199,-6.124258268943347,-6.071185399150333,-6.019009790196771,-5.91832748755947,-5.91832748755947,-5.846790633412693,-5.823799036021079,-5.779169667952631,-5.75754825698426,-5.695512682171437,-5.675781909655715,-5.637734435975734,-5.60154671830266,-5.5841367128490695,-5.53455734990646,-5.53455734990646,-5.516856440497344,-5.502048481624437,-5.487622754969173,-5.487622754969173,-5.473570425565984,-5.473570425565984,-5.473570425565984,-5.473570425565984,-5.473570425565984,-5.446549976378719,-5.433563693458547,-5.433563693458547,-5.433563693458547,-5.408593531190405,-5.408593531190405,-5.396591580656777,-5.38489980573946,-5.362411735847548,-5.351598270035963,-5.341060667853629,-5.330790758657908,-5.3207805556181915,-5.3207805556181915,-5.288781238782765,-5.27957980735379,-5.270610350926192,-5.249154416528839,-5.249154416528839,-5.249154416528839,-5.249154416528839,-5.240715798274594,-5.240715798274594,-5.240715798274594,-5.240715798274594,-5.240715798274594,-5.240715798274594,-5.240715798274594,-5.240715798274594,-5.240715798274594,-5.240715798274594,-5.240715798274594,-5.240715798274594,-5.240715798274594,-5.240715798274594,-5.240715798274594,-5.240715798274594,-5.240715798274594,-5.240715798274594,-5.240715798274594,-5.240715798274594,-5.240715798274594,-5.240715798274594,-5.240715798274594,-5.240715798274594,-5.240715798274594,-5.240715798274594,-5.240715798274594,-5.240715798274594,-5.240715798274594,-5.240715798274594,-5.240715798274594,-5.240715798274594,-5.240715798274594,-5.240715798274594,-5.240715798274594,-5.240715798274594,-5.240715798274594,-5.240715798274594,-5.240715798274594,-5.240715798274594,-5.240715798274594,-5.240715798274594,-5.240715798274594,-5.240715798274594,-5.240715798274594,-5.227881030504777,-5.227881030504777,-5.159268522981585,-5.13179231498741,-5.096834686012212,-5.047489027802586,-5.0328607630998565,-4.987978465911212,-4.941688604719593,-4.902269491432739,-4.823640922198474,-4.791555120870404,-4.75919709027511,-4.725578652406824,-4.725578652406824,-4.677279446824907,-4.645024179137635,-4.564678037798684,-4.516997425868117,-4.501238689823052,-4.454468594497022,-4.439069911075791,-4.408597537203212,-4.363786667757347,-4.334570378290652,-4.320172859484922,-4.291818155307645,-4.264072367756288,-4.177372695850062,-4.164183208102218,-4.138362727600869,-4.061101599579517,-4.017650704187987,-3.9864108707577186,-3.95558363529606,-3.8757536495838227,-3.86623012799021,-3.86623012799021,-3.856887963562152,-3.856887963562152,-3.856887963562152,-3.856887963562152,-3.856887963562152,-3.856887963562152,-3.856887963562152,-3.856887963562152,-3.856887963562152,-3.856887963562152,-3.8272480373434394,-3.807896826727519,-3.7974825090625446,-3.778026742225104,-3.7477445909106257,-3.720158821606793,-3.659203344607733,-3.628399694011999,-3.5852429286174488,-3.57868943724278,-3.5601379875450565,-3.5353717109419156,-3.5043544887985743,-3.4988443792590016,-3.48620592752379,-3.48620592752379,-3.48620592752379,-3.4605263140285913,-3.4605263140285913,-3.447489496707168,-3.4379623459422763,-3.3990063532632395,-3.359058510821545,-3.345537876807193,-3.290536554152263,-3.2625463007093134,-3.220058023342286,-3.1758607798645793,-3.1474362685926387,-3.1189191440251345,-3.0760707435989776,-3.047524553517647,-3.0048501925081696,-2.920577212218036,-2.8792621529636278,-2.838665514428188,-2.747331545765671,-2.7098491090740096,-2.6447781992117925,-2.566175857403461,-2.5288618229192754,-2.5288618229192754,-2.4873727298714368,-2.4113501774878303,-2.3921145973432094,-2.381729214058704,-2.37281414564523,-2.37281414564523,-2.37281414564523,-2.37281414564523,-2.37281414564523,-2.37281414564523,-2.37281414564523,-2.37281414564523,-2.37281414564523,-2.37281414564523,-2.37281414564523,-2.37281414564523,-2.37281414564523,-2.37281414564523,-2.37281414564523,-2.363713145504649,-2.3544218913905173,-2.2641636399210605,-2.2641636399210605,-2.187224747984833,-2.187224747984833,-2.0946314491238684,-2.0545142331775743,-1.9611515216987696,-1.693230357733051,-1.5721422210024194,-1.5020170993340756,-1.4320638185890866,-1.3289202534773823,-1.2664835072268756,-1.2029899057790745,-1.0022717790638564,-0.9395563851837965,-0.8385421489443603,-0.7607034337454275,-0.7341609959940296,-0.7002756660899125,-0.5900066088808753,-0.5163004573813321,-0.30753350286715353,-0.2571808436990777,-0.18399521564084953,-0.10196464712347808,-0.05474719058618138,-0.009092218136274255,-0.009092218136274255,-0.009092218136274255,-0.009092218136274255,-0.009092218136274255,-0.009092218136274255,-0.009092218136274255,-0.009092218136274255,-0.009092218136274255,-0.009092218136274255,-0.009092218136274255,-0.009092218136274255,-0.009092218136274255,-0.009092218136274255,-0.009092218136274255,-0.009092218136274255,-0.009092218136274255,-0.009092218136274255,-0.009092218136274255,-0.009092218136274255,-0.009092218136274255,-0.009092218136274255,-0.009092218136274255,-0.009092218136274255,-0.009092218136274255,-0.009092218136274255,-0.009092218136274255,-0.009092218136274255,-0.009092218136274255,-0.009092218136274255,-0.009092218136274255,-0.009092218136274255,-0.009092218136274255,-0.009092218136274255,-0.009092218136274255,-0.009092218136274255,-0.009092218136274255,-0.11509494141140131,-0.7922351555569831,-0.7922351555569831,-0.7922351555569831,-0.7922351555569831,-0.7922351555569831,-0.7922351555569831,-0.7922351555569831,-0.7922351555569831,-0.7922351555569831,-0.7922351555569831,-0.7922351555569831,-0.7922351555569831,-0.7922351555569831,-0.7922351555569831,-0.7922351555569831,-0.7922351555569831,-0.7922351555569831,-0.7922351555569831,-0.7922351555569831,-0.7922351555569831,-0.7922351555569831,-0.7922351555569831,-0.7922351555569831,-0.7922351555569831,-0.7922351555569831,-0.7922351555569831,-0.7922351555569831,-0.7922351555569831,-0.7922351555569831,-0.7922351555569831,-0.7922351555569831,-0.7922351555569831,-0.7922351555569831,-0.7922351555569831,-0.7922351555569831,-0.7922351555569831,-0.7922351555569831,-0.7922351555569831,-0.7922351555569831,-0.7922351555569831,-0.7922351555569831,-0.7922351555569831,-0.7922351555569831,-0.7922351555569831,-0.7922351555569831,-0.7922351555569831,-0.7922351555569831,-0.7922351555569831,-0.7922351555569831,-0.7922351555569831,-0.7922351555569831,-0.7922351555569831,-0.7922351555569831,-0.7922351555569831,-0.7922351555569831,-0.7922351555569831,-0.7922351555569831,-0.7922351555569831,-0.7922351555569831,-0.7922351555569831,-0.7922351555569831,-0.7922351555569831,-0.7922351555569831,-0.7922351555569831,-0.7922351555569831,-0.7922351555569831,-0.7922351555569831,-0.7922351555569831,-0.7922351555569831,-0.7922351555569831,-0.7922351555569831,-0.7922351555569831,-0.7922351555569831,-0.7922351555569831,-0.7922351555569831,-0.7922351555569831,-0.7922351555569831,-0.7922351555569831,-0.7922351555569831,-0.7922351555569831,-0.7922351555569831,-0.7922351555569831,-0.7922351555569831,-0.7922351555569831,-0.7922351555569831,-0.7922351555569831,-0.7922351555569831,-0.7922351555569831,-0.7922351555569831,-0.7922351555569831,-0.7922351555569831,-0.7922351555569831,-0.7922351555569831,-0.7922351555569831,-0.7922351555569831,-0.7922351555569831,-0.7922351555569831,-0.7922351555569831,-0.7922351555569831,-0.7922351555569831,-0.7922351555569831,-0.7922351555569831,-0.7922351555569831,-0.7922351555569831,-0.7922351555569831,-0.7922351555569831,-0.7922351555569831,-0.7922351555569831,-0.7922351555569831,-0.7922351555569831,-0.7922351555569831,-0.7922351555569831,-0.7922351555569831,-0.7922351555569831,-0.7922351555569831,-0.7922351555569831,-0.7922351555569831,-0.7922351555569831,-0.7922351555569831,-0.7922351555569831,-0.7922351555569831,-0.7922351555569831,-0.7922351555569831,-0.7922351555569831,-0.7922351555569831,-0.7922351555569831,-0.7922351555569831,-0.7922351555569831,-0.7922351555569831,-0.7922351555569831,-0.7922351555569831,-0.7922351555569831,-0.7922351555569831,-0.7922351555569831,-0.7922351555569831,-0.7922351555569831,-0.7922351555569831,-0.7922351555569831,-0.7922351555569831,-0.7922351555569831,-0.7922351555569831,-0.7922351555569831,-0.7922351555569831,-0.7922351555569831,-0.7922351555569831,-0.7922351555569831,-0.7922351555569831,-0.7922351555569831,-0.7922351555569831,-0.7922351555569831,-0.7922351555569831,-0.7922351555569831,-0.7922351555569831,-0.7922351555569831,-0.7922351555569831,-0.7922351555569831,-0.7922351555569831,-0.7922351555569831,-0.7922351555569831,-0.7922351555569831,-0.7922351555569831,-0.7922351555569831,-0.7922351555569831,-0.7922351555569831,-0.7922351555569831,-0.7922351555569831,-0.7922351555569831,-0.7922351555569831,-0.7922351555569831,-0.7922351555569831,-0.7922351555569831,-0.7922351555569831,-0.7922351555569831,-0.7922351555569831,-0.7922351555569831,-0.7922351555569831,-0.7922351555569831,-0.7922351555569831,-0.7922351555569831,-0.7922351555569831,-0.7922351555569831,-0.7922351555569831,-0.7922351555569831,-0.7922351555569831,-0.7922351555569831,-0.7922351555569831,-0.7922351555569831,-0.7922351555569831,-0.7922351555569831,-0.7922351555569831,-0.7922351555569831,-0.7922351555569831,-0.7922351555569831,-0.7922351555569831,-0.7922351555569831,-0.7922351555569831,-0.7922351555569831,-0.7922351555569831,-0.7922351555569831,-0.7922351555569831,-0.7922351555569831,-0.7922351555569831,-0.7922351555569831,-0.7922351555569831,-0.7922351555569831,-0.7922351555569831,-0.7922351555569831,-0.7922351555569831,-0.7922351555569831,-0.7922351555569831,-0.7922351555569831,-0.7922351555569831,-0.7922351555569831,-0.7922351555569831,-0.7922351555569831,-0.7922351555569831,-0.7922351555569831,-0.7922351555569831,-0.7922351555569831,-0.7922351555569831,-0.7922351555569831,-0.7922351555569831,-0.7922351555569831,-0.7922351555569831,-0.7922351555569831,-0.7922351555569831,-0.7922351555569831,-0.7922351555569831,-0.7922351555569831,-0.7922351555569831,-0.7922351555569831,-0.7922351555569831,-0.7922351555569831,-0.7922351555569831,-0.7922351555569831,-0.7922351555569831,-0.7922351555569831,-0.7922351555569831,-0.7922351555569831,-0.7922351555569831,-0.7922351555569831,-0.7922351555569831,-0.7922351555569831,-0.7922351555569831,-0.7922351555569831,-0.7922351555569831,-0.7922351555569831,-0.7922351555569831,-0.7922351555569831,-0.7922351555569831,-0.7922351555569831,-0.7922351555569831,-0.7922351555569831,-0.7922351555569831,-0.7922351555569831,-0.7922351555569831,-0.7922351555569831,-0.7922351555569831,-0.7922351555569831,-0.7922351555569831,-0.7922351555569831,-0.7922351555569831,-0.7922351555569831,-0.7922351555569831,-0.7922351555569831,-0.7922351555569831,-0.7922351555569831,-0.7922351555569831,-0.7922351555569831,-0.7922351555569831,-0.7922351555569831,-0.7922351555569831,-0.7922351555569831,-0.7922351555569831,-0.7922351555569831,-0.7922351555569831,-0.7922351555569831,-0.7922351555569831,-0.7922351555569831,-0.7922351555569831,-0.7922351555569831,-0.7922351555569831,-0.7922351555569831,-0.7922351555569831,-0.7922351555569831,-0.7922351555569831,-0.7922351555569831,-0.7922351555569831,-0.7922351555569831,-0.7922351555569831,-0.7922351555569831,-0.7922351555569831,-0.7922351555569831,-0.7922351555569831,-0.7922351555569831,-0.7922351555569831,-0.7922351555569831,-0.7922351555569831,-0.7922351555569831,-0.7922351555569831,-0.7922351555569831,-0.7922351555569831,-0.7922351555569831,-0.7922351555569831,-0.7922351555569831,-0.7922351555569831,-0.7922351555569831,-0.7922351555569831,-0.7922351555569831,-0.7922351555569831,-0.7922351555569831,-0.7922351555569831,-0.7922351555569831,-0.7922351555569831,-0.7922351555569831,-0.7922351555569831,-0.7922351555569831,-0.7922351555569831,-0.7922351555569831,-0.7922351555569831,-0.7922351555569831,-0.7922351555569831,-0.7922351555569831,-0.7922351555569831,-0.7922351555569831,-0.7922351555569831,-0.7922351555569831,-0.7922351555569831,-0.7922351555569831,-0.7922351555569831,-0.7922351555569831,-0.7922351555569831,-0.7922351555569831,-0.7922351555569831,-0.7922351555569831,-0.7922351555569831,-0.7922351555569831,-0.7922351555569831,-0.7922351555569831,-0.7922351555569831,-0.7922351555569831,-0.7922351555569831,-0.7922351555569831,-0.7922351555569831,-0.7922351555569831,-0.7922351555569831,-0.7922351555569831,-0.7922351555569831,-0.7922351555569831,-0.7922351555569831,-0.7922351555569831,-0.7922351555569831,-0.7922351555569831,-0.7922351555569831,-0.7922351555569831,-0.7922351555569831,-0.7922351555569831,-0.7922351555569831,-0.7922351555569831,-0.7922351555569831,-0.7922351555569831,-0.7922351555569831,-0.7922351555569831,-0.7922351555569831,-0.7922351555569831,-0.7922351555569831,-0.7922351555569831,-0.7922351555569831,-0.7922351555569831,-0.7922351555569831,-0.7922351555569831,-0.7922351555569831,-0.7922351555569831,-0.7922351555569831,-0.7922351555569831,-0.7922351555569831,-0.7922351555569831,-0.7922351555569831,-0.7922351555569831,-0.7922351555569831,-0.7922351555569831,-0.7922351555569831,-0.7922351555569831,-0.7922351555569831,-0.7922351555569831,-0.7922351555569831,-0.7922351555569831,-0.7922351555569831,-0.7922351555569831,-0.7922351555569831,-0.7922351555569831,-0.7922351555569831,-0.7922351555569831,-0.7922351555569831,-0.7922351555569831,-0.7922351555569831,-0.7922351555569831,-0.7922351555569831,-0.7922351555569831,-0.7922351555569831,-0.7922351555569831,-0.7922351555569831,-0.7922351555569831,-0.7922351555569831,-0.7922351555569831,-0.7922351555569831,-0.7922351555569831,-0.7922351555569831,-0.7922351555569831,-0.7922351555569831,-0.7922351555569831,-0.7922351555569831,-0.7922351555569831,-0.7922351555569831,-0.7922351555569831,-0.7922351555569831,-0.7922351555569831,-0.7922351555569831,-0.7922351555569831,-0.7922351555569831,-0.7922351555569831,-0.7922351555569831,-0.7922351555569831,-0.7922351555569831,-0.7922351555569831,-0.7922351555569831,-0.7922351555569831,-0.7922351555569831,-0.7922351555569831,-0.7922351555569831,-0.7922351555569831,-0.7922351555569831,-0.7922351555569831,-0.7922351555569831,-0.7922351555569831,-0.7922351555569831,-0.7922351555569831,-0.7922351555569831,-0.7922351555569831,-0.7922351555569831,-0.7922351555569831,-0.7922351555569831,-0.7922351555569831,-0.7922351555569831,-0.7922351555569831,-0.7922351555569831,-0.7922351555569831,-0.7922351555569831,-0.7922351555569831,-0.7922351555569831,-0.7922351555569831,-0.7922351555569831,-0.7922351555569831,-0.7922351555569831,-0.7922351555569831,-0.7922351555569831,-0.7922351555569831,-0.7922351555569831,-0.7922351555569831,-0.7922351555569831,-0.7922351555569831,-0.7922351555569831,-0.7922351555569831,-0.7922351555569831,-0.7922351555569831,-0.7922351555569831,-0.7922351555569831,-0.7922351555569831,-0.7922351555569831,-0.7922351555569831,-0.7922351555569831,-0.7922351555569831,-0.7922351555569831,-0.7922351555569831,-0.7922351555569831,-0.7922351555569831,-0.7922351555569831,-0.7922351555569831,-0.7922351555569831,-0.7922351555569831,-0.7922351555569831,-0.7922351555569831,-0.7922351555569831,-0.7922351555569831,-0.7922351555569831,-0.7922351555569831,-0.7922351555569831,-0.7922351555569831,-0.7922351555569831,-0.7922351555569831,-0.7922351555569831,-0.7922351555569831,-0.7922351555569831,-0.7922351555569831,-0.7922351555569831,-0.7922351555569831,-0.7922351555569831,-0.7922351555569831,-0.7922351555569831,-0.7922351555569831,-0.7922351555569831,-0.7922351555569831,-0.7922351555569831,-0.7922351555569831,-0.7922351555569831,-0.7922351555569831,-0.7922351555569831,-0.7922351555569831,-0.7922351555569831,-0.7922351555569831,-0.7922351555569831,-0.7922351555569831,-0.7922351555569831,-0.7922351555569831,-0.7922351555569831,-0.7922351555569831,-0.7922351555569831,-0.7922351555569831,-0.7922351555569831,-0.7922351555569831,-0.7922351555569831,-0.7922351555569831,-0.7922351555569831,-0.7922351555569831,-0.7922351555569831,-0.7922351555569831,-0.7922351555569831,-0.7922351555569831,-0.7922351555569831,-0.7922351555569831,-0.7922351555569831,-0.7922351555569831,-0.7922351555569831,-0.7922351555569831,-0.7922351555569831,-0.7922351555569831,-0.7922351555569831,-0.7922351555569831,-0.7922351555569831,-0.7922351555569831,-0.7922351555569831,-0.7922351555569831,-0.7922351555569831,-0.7922351555569831,-0.7922351555569831,-0.7922351555569831,-0.7922351555569831,-0.7922351555569831,-0.7922351555569831,-0.7922351555569831,-0.7922351555569831,-0.7922351555569831,-0.7922351555569831,-0.7922351555569831,-0.7922351555569831,-0.7922351555569831,-0.7922351555569831,-0.7922351555569831,-0.7922351555569831,-0.7922351555569831,-0.7922351555569831,-0.7922351555569831,-0.7922351555569831,-0.7922351555569831,-0.7922351555569831,-0.7922351555569831,-0.7922351555569831,-0.7922351555569831,-0.7922351555569831,-0.7922351555569831,-0.7922351555569831,-0.7922351555569831,-0.7922351555569831,-0.7922351555569831,-0.7922351555569831,-0.7922351555569831,-0.7922351555569831,-0.7922351555569831,-0.7922351555569831,-0.7922351555569831,-0.7922351555569831,-0.7922351555569831,-0.7922351555569831,-0.7922351555569831,-0.7922351555569831,-0.7922351555569831,-0.7922351555569831,-0.7922351555569831,-0.7922351555569831,-0.7922351555569831,-0.7922351555569831,-0.7922351555569831,-0.7922351555569831,-0.7922351555569831,-0.7922351555569831,-0.7922351555569831,-0.7922351555569831,-0.7922351555569831,-0.7922351555569831,-0.7922351555569831,-0.7922351555569831,-0.7922351555569831,-0.7922351555569831,-0.7922351555569831,-0.7922351555569831,-0.7922351555569831,-0.7922351555569831,-0.7922351555569831,-0.7922351555569831,-0.7922351555569831,-0.7922351555569831,-0.7922351555569831,-0.7922351555569831,-0.7922351555569831,-0.7922351555569831,-0.7922351555569831,-0.7922351555569831,-0.7922351555569831,-0.7922351555569831,-0.7922351555569831,-0.7922351555569831,-0.7922351555569831,-0.7922351555569831,-0.7922351555569831,-0.7922351555569831,-0.7922351555569831,-0.7922351555569831,-0.7922351555569831,-0.7922351555569831,-0.7922351555569831,-0.7922351555569831,-0.7922351555569831,-0.7922351555569831,-0.7922351555569831,-0.7922351555569831,-0.7922351555569831,-0.7922351555569831,-0.7922351555569831,-0.7922351555569831,-0.7922351555569831,-0.7922351555569831,-0.7922351555569831,-0.7922351555569831,-0.7922351555569831,-0.7922351555569831,-0.7922351555569831,-0.7922351555569831,-0.7922351555569831,-0.7922351555569831,-0.7922351555569831,-0.7922351555569831,-0.7922351555569831,-0.7922351555569831,-0.7922351555569831,-0.7922351555569831,-0.7922351555569831,-0.7922351555569831,-0.7922351555569831,-0.7922351555569831,-0.7922351555569831,-0.7922351555569831,-0.7922351555569831,-0.7922351555569831,-0.7922351555569831,-0.7922351555569831,-0.7922351555569831,-0.7922351555569831,-0.7922351555569831,-0.7922351555569831,-0.7922351555569831,-0.7922351555569831,-0.7922351555569831,-0.7922351555569831,-0.7922351555569831,-0.7922351555569831,-0.7922351555569831,-0.7922351555569831,-0.7922351555569831,-0.7922351555569831,-0.7922351555569831,-0.7922351555569831,-0.7922351555569831,-0.7922351555569831,-0.7922351555569831,-0.7922351555569831,-0.7922351555569831,-0.7922351555569831,-0.7922351555569831,-0.7922351555569831,-0.7922351555569831,-0.7922351555569831,-0.7922351555569831,-0.7922351555569831,-0.7922351555569831,-0.7922351555569831,-0.7922351555569831,-0.7922351555569831,-0.7922351555569831,-0.7922351555569831,-0.7922351555569831,-0.7922351555569831,-0.7922351555569831,-0.7922351555569831,-0.7922351555569831,-0.7922351555569831,-0.7922351555569831,-0.7922351555569831,-0.7922351555569831,-0.7922351555569831,-0.7922351555569831,-0.7922351555569831,-0.7922351555569831,-0.7922351555569831,-0.7922351555569831,-0.7922351555569831,-0.7922351555569831,-0.7922351555569831,-0.7922351555569831,-0.7922351555569831,-0.7922351555569831,-0.7922351555569831,-0.7922351555569831,-0.7922351555569831,-0.7922351555569831,-0.7922351555569831,-0.7922351555569831,-0.7922351555569831,-0.7922351555569831,-0.7922351555569831,-0.7922351555569831,-0.7922351555569831,-0.7922351555569831,-0.7922351555569831,-0.7922351555569831,-0.7922351555569831,-0.7922351555569831,-0.7922351555569831,-0.7922351555569831,-0.7922351555569831,-0.7922351555569831,-0.7922351555569831,-0.7922351555569831,-0.7922351555569831,-0.7922351555569831,-0.7922351555569831,-0.7922351555569831,-0.7922351555569831,-0.7922351555569831,-0.7922351555569831,-0.7922351555569831,-0.7922351555569831,-0.7922351555569831,-0.7922351555569831,-0.7922351555569831,-0.7922351555569831,-0.7922351555569831,-0.7922351555569831,-0.7922351555569831,-0.7922351555569831,-0.7922351555569831,-0.7922351555569831,-0.7922351555569831,-0.7922351555569831,-0.7922351555569831,-0.7922351555569831,-0.7922351555569831,-0.7922351555569831,-0.7922351555569831,-0.7922351555569831,-0.7922351555569831,-0.7922351555569831,-0.7922351555569831,-0.7922351555569831,-0.7922351555569831,-0.7922351555569831,-0.7922351555569831,-0.7922351555569831,-0.7922351555569831,-0.7922351555569831,-0.7922351555569831,-0.7922351555569831,-0.7922351555569831,-0.7922351555569831,-0.7922351555569831,-0.7922351555569831,-0.7922351555569831,-0.7922351555569831,-0.7922351555569831,-0.7922351555569831,-0.7922351555569831,-0.7922351555569831,-0.7922351555569831,-0.7922351555569831,-0.7922351555569831,-0.7922351555569831,-0.7922351555569831,-0.7922351555569831,-0.7922351555569831,-0.7922351555569831,-0.7922351555569831,-0.7922351555569831,-0.7922351555569831,-0.7922351555569831,-0.7922351555569831,-0.7922351555569831,-0.7922351555569831,-0.7922351555569831,-0.7922351555569831,-0.7922351555569831,-0.7922351555569831,-0.7922351555569831,-0.7922351555569831,-0.7922351555569831,-0.7922351555569831,-0.7922351555569831,-0.7922351555569831,-0.7922351555569831,-0.7922351555569831,-0.7922351555569831,-0.7922351555569831,-0.7922351555569831,-0.7922351555569831,-0.7922351555569831,-0.7922351555569831,-0.7922351555569831,-0.7922351555569831,-0.7922351555569831,-0.7922351555569831,-0.7922351555569831,-0.7922351555569831,-0.7922351555569831,-0.7922351555569831,-0.7922351555569831,-0.7922351555569831,-0.7922351555569831,-0.7922351555569831,-0.7922351555569831,-0.7922351555569831,-0.7922351555569831,-0.7922351555569831,-0.7922351555569831,-0.7922351555569831,-0.7922351555569831,-0.7922351555569831,-0.7922351555569831,-0.7922351555569831,-0.7922351555569831,-0.7922351555569831,-0.7922351555569831,-0.7922351555569831,-0.7922351555569831,-0.7922351555569831,-0.7922351555569831,-0.7922351555569831,-0.7922351555569831,-0.7922351555569831,-0.7922351555569831,-0.7922351555569831,-0.7922351555569831,-0.7922351555569831,-0.7922351555569831,-0.7922351555569831,-0.7922351555569831,-0.7922351555569831,-0.7922351555569831,-0.7922351555569831,-0.7922351555569831,-0.7922351555569831,-0.7922351555569831,-0.7922351555569831,-0.7922351555569831,-0.7922351555569831,-0.7922351555569831,-0.7922351555569831,-0.7922351555569831,-0.7922351555569831,-0.7922351555569831,-0.7922351555569831,-0.7922351555569831,-0.7922351555569831,-0.7922351555569831,-0.7922351555569831,-0.7922351555569831,-0.7922351555569831,-0.7922351555569831,-0.7922351555569831,-0.7922351555569831,-0.7922351555569831,-0.7922351555569831,-0.7922351555569831,-0.7922351555569831,-0.7922351555569831,-0.7922351555569831,-0.7922351555569831,-0.7922351555569831,-0.7922351555569831,-0.7922351555569831,-0.7922351555569831,-0.7922351555569831,-0.7922351555569831,-0.7922351555569831,-0.7922351555569831,-0.7922351555569831,-0.7922351555569831,-0.7922351555569831,-0.7922351555569831,-0.7922351555569831,-0.7922351555569831,-0.7922351555569831,-0.7922351555569831,-0.7922351555569831,-0.7922351555569831,-0.7922351555569831,-0.7922351555569831,-0.7922351555569831,-0.7922351555569831,-0.7922351555569831,-0.7922351555569831,-0.7922351555569831,-0.7922351555569831,-0.7922351555569831,-0.7922351555569831,-0.7922351555569831,-0.7922351555569831,-0.7922351555569831,-0.7922351555569831,-0.7922351555569831,-0.7922351555569831,-0.7922351555569831,-0.7922351555569831,-0.7922351555569831,-0.7922351555569831,-0.7922351555569831,-0.7922351555569831,-0.7922351555569831,-0.7922351555569831,-0.7922351555569831,-0.7922351555569831,-0.7922351555569831,-0.7922351555569831,-0.7922351555569831,-0.7922351555569831,-0.7922351555569831,-0.7922351555569831,-0.7922351555569831,-0.7922351555569831,-0.7922351555569831,-0.7922351555569831,-0.7922351555569831,-0.7922351555569831,-0.7922351555569831,-0.7922351555569831,-0.7922351555569831,-0.7922351555569831,-0.7922351555569831,-0.7922351555569831,-0.7922351555569831,-0.7922351555569831,-0.7922351555569831,-0.7922351555569831,-0.7922351555569831,-0.7922351555569831,-0.7922351555569831,-0.7922351555569831,-0.7922351555569831,-0.7922351555569831,-0.7922351555569831,-0.7922351555569831,-0.7922351555569831,-0.7922351555569831,-0.7922351555569831,-0.7922351555569831,-0.7922351555569831,-0.7922351555569831,-0.7922351555569831,-0.7922351555569831,-0.7922351555569831,-0.7922351555569831,-0.7922351555569831,-0.7922351555569831,-0.7922351555569831,-0.7922351555569831,-0.7922351555569831,-0.7922351555569831,-0.7922351555569831,-0.7922351555569831,-0.7922351555569831,-0.7922351555569831,-0.7922351555569831,-0.7922351555569831,-0.7922351555569831,-0.7922351555569831,-0.7922351555569831,-0.7922351555569831,-0.7922351555569831,-0.7922351555569831,-0.7922351555569831,-0.7922351555569831,-0.7922351555569831,-0.7922351555569831,-0.7922351555569831,-0.7922351555569831,-0.7922351555569831,-0.7922351555569831,-0.7922351555569831,-0.7922351555569831,-0.7922351555569831,-0.7922351555569831,-0.7922351555569831,-0.7922351555569831,-0.7922351555569831,-0.7922351555569831,-0.7922351555569831,-0.7922351555569831,-0.7922351555569831,-0.7922351555569831,-0.7922351555569831,-0.7922351555569831,-0.7922351555569831,-0.7922351555569831,-0.7922351555569831,-0.7922351555569831,-0.7922351555569831,-0.7922351555569831,-0.7922351555569831,-0.7922351555569831,-0.7922351555569831,-0.7922351555569831,-0.7922351555569831,-0.7922351555569831,-0.7922351555569831,-0.7922351555569831,-0.7922351555569831,-0.7922351555569831,-0.7922351555569831,-0.7922351555569831,-0.7922351555569831,-0.7922351555569831,-0.7922351555569831,-0.7922351555569831,-0.7922351555569831,-0.7922351555569831,-0.7922351555569831,-0.7922351555569831,-0.7922351555569831,-0.7922351555569831,-0.7922351555569831,-0.7922351555569831,-0.7922351555569831,-0.7922351555569831,-0.7922351555569831,-0.7922351555569831,-0.7922351555569831,-0.7922351555569831,-0.7922351555569831,-0.7922351555569831,-0.7922351555569831,-0.7922351555569831,-0.7922351555569831,-0.7922351555569831,-0.7922351555569831,-0.7922351555569831,-0.7922351555569831,-0.7922351555569831,-0.7922351555569831,-0.7922351555569831,-0.7922351555569831,-0.7922351555569831,-0.7922351555569831,-0.7922351555569831,-0.7922351555569831,-0.7922351555569831,-0.7922351555569831,-0.7922351555569831,-0.7922351555569831,-0.7922351555569831,-0.7922351555569831,-0.7922351555569831,-0.7922351555569831,-0.7922351555569831,-0.7922351555569831,-0.7922351555569831,-0.7922351555569831,-0.7922351555569831,-0.7922351555569831,-0.7922351555569831,-0.7922351555569831,-0.7922351555569831,-0.7922351555569831,-0.7922351555569831,-0.7922351555569831,-0.7922351555569831,-0.7922351555569831,-0.7922351555569831,-0.7922351555569831,-0.7922351555569831,-0.7922351555569831,-0.7922351555569831,-0.7922351555569831,-0.7922351555569831,-0.7922351555569831,-0.7922351555569831,-0.7922351555569831,-0.7922351555569831,-0.7922351555569831,-0.7922351555569831,-0.7922351555569831,-0.7922351555569831,-0.7922351555569831,-0.7922351555569831,-0.7922351555569831,-0.7922351555569831,-0.7922351555569831,-0.7922351555569831,-0.7922351555569831,-0.7922351555569831,-0.7922351555569831,-0.7922351555569831,-0.7922351555569831,-0.7922351555569831,-0.7922351555569831,-0.7922351555569831,-0.7922351555569831,-0.7922351555569831,-0.7922351555569831,-0.7922351555569831,-0.7922351555569831,-0.7922351555569831,-0.7922351555569831,-0.7922351555569831,-0.7922351555569831,-0.7922351555569831,-0.7922351555569831,-0.7922351555569831,-0.7922351555569831,-0.7922351555569831,-0.7922351555569831,-0.7922351555569831,-0.7922351555569831,-0.7922351555569831,-0.7922351555569831,-0.7922351555569831,-0.7922351555569831,-0.7922351555569831,-0.7922351555569831,-0.7922351555569831,-0.7922351555569831,-0.7922351555569831,-0.7922351555569831,-0.7922351555569831,-0.7922351555569831,-0.7922351555569831,-0.7922351555569831,-0.7922351555569831,-0.7922351555569831,-0.7922351555569831,-0.7922351555569831,-0.7922351555569831,-0.7922351555569831,-0.7922351555569831,-0.7922351555569831,-0.7922351555569831,-0.7922351555569831,-0.7922351555569831,-0.7922351555569831,-0.7922351555569831,-0.7922351555569831,-0.7922351555569831,-0.7922351555569831,-0.7922351555569831,-0.7922351555569831,-0.7922351555569831,-0.7922351555569831,-0.7922351555569831,-0.7922351555569831,-0.7922351555569831,-0.7922351555569831,-0.7922351555569831,-0.7922351555569831,-0.7922351555569831,-0.7922351555569831,-0.7922351555569831,-0.7922351555569831,-0.7922351555569831,-0.7922351555569831,-0.7922351555569831,-0.7922351555569831,-0.7922351555569831,-0.7922351555569831,-0.7922351555569831,-0.7922351555569831,-0.7922351555569831,-0.7922351555569831,-0.7922351555569831,-0.7922351555569831,-0.7922351555569831,-0.7922351555569831,-0.7922351555569831,-0.7922351555569831,-0.7922351555569831,-0.7922351555569831,-0.7922351555569831,-0.7922351555569831,-0.7922351555569831,-0.7922351555569831,-0.7922351555569831,-0.7922351555569831,-0.7922351555569831,-0.7922351555569831,-0.7922351555569831,-0.7922351555569831,-0.7922351555569831,-0.7922351555569831,-0.7922351555569831,-0.7922351555569831,-0.7922351555569831,-0.7922351555569831,-0.7922351555569831,-0.7922351555569831,-0.7922351555569831,-0.7922351555569831,-0.7922351555569831,-0.7922351555569831,-0.7922351555569831,-0.7922351555569831,-0.7922351555569831,-0.7922351555569831,-0.7922351555569831,-0.7922351555569831,-0.7922351555569831,-0.7922351555569831,-0.7922351555569831,-0.7922351555569831,-0.7922351555569831,-0.7922351555569831,-0.7922351555569831,-0.7922351555569831,-0.7922351555569831,-0.7922351555569831,-0.7922351555569831,-0.7922351555569831,-0.7922351555569831,-0.7922351555569831,-0.7922351555569831,-0.7922351555569831,-0.7922351555569831,-0.7922351555569831,-0.7922351555569831,-0.7922351555569831,-0.7922351555569831,-0.7922351555569831,-0.7922351555569831,-0.7922351555569831,-0.7922351555569831,-0.7922351555569831,-0.7922351555569831,-0.7922351555569831,-0.7922351555569831,-0.7922351555569831,-0.7922351555569831,-0.7922351555569831,-0.7922351555569831,-0.7922351555569831,-0.7922351555569831,-0.7922351555569831,-0.7922351555569831,-0.7922351555569831,-0.7922351555569831,-0.7922351555569831,-0.7922351555569831,-0.7922351555569831,-0.7922351555569831,-0.7922351555569831,-0.7922351555569831,-0.7922351555569831,-0.7922351555569831,-0.7922351555569831,-0.7922351555569831,-0.7922351555569831,-0.7922351555569831,-0.7922351555569831,-0.7922351555569831,-0.7922351555569831,-0.7922351555569831,-0.7922351555569831,-0.7922351555569831,-0.7922351555569831,-0.7922351555569831,-0.7922351555569831,-0.7922351555569831,-0.7922351555569831,-0.7922351555569831,-0.7922351555569831,-0.7922351555569831,-0.7922351555569831,-0.7922351555569831,-0.7922351555569831,-0.7922351555569831,-0.7922351555569831,-0.7922351555569831,-0.7922351555569831,-0.7922351555569831,-0.7922351555569831,-0.7922351555569831,-0.7922351555569831,-0.7922351555569831,-0.7922351555569831,-0.7922351555569831,-0.7922351555569831,-0.7922351555569831,-0.7922351555569831,-0.7922351555569831,-0.7922351555569831,-0.7922351555569831,-0.7922351555569831,-0.7922351555569831,-0.7922351555569831,-0.7922351555569831,-0.7922351555569831,-0.7922351555569831,-0.7922351555569831,-0.7922351555569831,-0.7922351555569831,-0.7922351555569831,-0.7922351555569831,-0.7922351555569831,-0.7922351555569831,-0.7922351555569831,-0.7922351555569831,-0.7922351555569831,-0.7922351555569831,-0.7922351555569831,-0.7922351555569831,-0.7922351555569831,-0.7922351555569831,-0.7922351555569831,-0.7922351555569831,-0.7922351555569831,-0.7922351555569831,-0.7922351555569831,-0.7922351555569831,-0.7922351555569831,-0.7922351555569831,-0.7922351555569831,-0.7922351555569831,-0.7922351555569831,-0.7922351555569831,-0.7922351555569831,-0.7922351555569831,-0.7922351555569831,-0.7922351555569831,-0.7922351555569831,-0.7922351555569831,-0.7922351555569831,-0.7922351555569831,-0.7922351555569831,-0.7922351555569831,-0.7922351555569831,-0.7922351555569831,-0.7922351555569831,-0.7922351555569831,-0.7922351555569831,-0.7922351555569831,-0.7922351555569831,-0.7922351555569831,-0.7922351555569831,-0.7922351555569831,-0.7922351555569831,-0.7922351555569831,-0.7922351555569831,-0.7922351555569831,-0.7922351555569831,-0.7922351555569831,-0.7922351555569831,-0.7922351555569831,-0.7922351555569831,-0.7922351555569831,-0.7922351555569831,-0.7922351555569831,-0.7922351555569831,-0.7922351555569831,-0.7922351555569831,-0.7922351555569831,-0.7922351555569831,-0.7922351555569831,-0.7922351555569831,-0.7922351555569831,-0.7922351555569831,-0.7922351555569831,-0.7922351555569831,-0.7922351555569831,-0.7922351555569831,-0.7922351555569831,-0.7922351555569831,-0.7922351555569831,-0.7922351555569831,-0.7922351555569831,-0.7922351555569831,-0.7922351555569831,-0.7922351555569831,-0.7922351555569831,-0.7922351555569831,-0.7922351555569831,-0.7922351555569831,-0.7922351555569831,-0.7922351555569831,-0.7922351555569831,-0.7922351555569831,-0.7922351555569831,-0.7922351555569831,-0.7922351555569831,-0.7922351555569831,-0.7922351555569831,-0.7922351555569831,-0.7922351555569831,-0.7922351555569831,-0.7922351555569831,-0.7922351555569831,-0.7922351555569831,-0.7922351555569831,-0.7922351555569831,-0.7922351555569831,-0.7922351555569831,-0.7922351555569831,-0.7922351555569831,-0.7922351555569831,-0.7922351555569831,-0.7922351555569831,-0.7922351555569831,-0.7922351555569831,-0.7922351555569831,-0.7922351555569831,-0.7922351555569831,-0.7922351555569831,-0.7922351555569831,-0.7922351555569831,-0.7922351555569831,-0.7922351555569831,-0.7922351555569831,-0.7922351555569831,-0.7922351555569831,-0.7922351555569831,-0.7922351555569831,-0.7922351555569831,-0.7922351555569831,-0.7922351555569831,-0.7922351555569831,-0.7922351555569831,-0.7922351555569831,-0.7922351555569831,-0.7922351555569831,-0.7922351555569831,-0.7922351555569831,-0.7922351555569831,-0.7922351555569831,-0.7922351555569831,-0.7922351555569831,-0.7922351555569831,-0.7922351555569831,-0.7922351555569831,-0.7922351555569831,-0.7922351555569831,-0.7922351555569831,-0.7922351555569831,-0.7922351555569831,-0.7922351555569831,-0.7922351555569831,-0.7922351555569831,-0.7922351555569831,-0.7922351555569831,-0.7922351555569831,-0.7922351555569831,-0.7922351555569831,-0.7922351555569831,-0.7922351555569831,-0.7922351555569831,-0.7922351555569831,-0.7922351555569831,-0.7922351555569831,-0.7922351555569831,-0.7922351555569831,-0.7922351555569831,-0.7922351555569831,-0.7922351555569831,-0.7922351555569831,-0.7922351555569831,-0.7922351555569831,-0.7922351555569831,-0.7922351555569831,-0.7922351555569831,-0.7922351555569831,-0.7922351555569831,-0.7922351555569831,-0.7922351555569831,-0.7922351555569831,-0.7922351555569831,-0.7922351555569831,-0.7922351555569831,-0.7922351555569831,-0.7922351555569831,-0.7922351555569831,-0.7922351555569831,-0.7922351555569831,-0.7922351555569831,-0.7922351555569831,-0.7922351555569831,-0.7922351555569831,-0.7922351555569831,-0.7922351555569831,-0.7922351555569831,-0.7922351555569831,-0.7922351555569831,-0.7922351555569831,-0.7922351555569831,-0.7922351555569831,-0.7922351555569831,-0.7922351555569831,-0.7922351555569831,-0.7922351555569831,-0.7922351555569831,-0.7922351555569831,-0.7922351555569831,-0.7922351555569831,-0.7922351555569831,-0.7922351555569831,-0.7922351555569831,-0.7922351555569831,-0.7922351555569831,-0.7922351555569831,-0.7922351555569831,-0.7922351555569831,-0.7922351555569831,-0.7922351555569831,-0.7922351555569831,-0.7922351555569831,-0.7922351555569831,-0.7922351555569831,-0.7922351555569831,-0.7922351555569831,-0.7922351555569831,-0.7922351555569831,-0.7922351555569831,-0.7922351555569831,-0.7922351555569831,-0.7922351555569831,-0.7922351555569831,-0.7922351555569831,-0.7922351555569831,-0.7922351555569831,-0.7922351555569831,-0.7922351555569831,-0.7922351555569831,-0.7922351555569831,-0.7922351555569831,-0.7922351555569831,-0.7922351555569831,-0.7922351555569831,-0.7922351555569831,-0.7922351555569831,-0.7922351555569831,-0.7922351555569831,-0.7922351555569831,-0.7922351555569831,-0.7922351555569831,-0.7922351555569831,-0.7922351555569831,-0.7922351555569831,-0.7922351555569831,-0.7922351555569831,-0.7922351555569831,-0.7922351555569831,-0.7922351555569831,-0.7922351555569831,-0.7922351555569831,-0.7922351555569831,-0.7922351555569831,-0.7922351555569831,-0.7922351555569831,-0.7922351555569831,-0.7922351555569831,-0.7922351555569831,-0.7922351555569831,-0.7922351555569831,-0.7922351555569831,-0.7922351555569831,-0.7922351555569831,-0.7922351555569831,-0.7922351555569831,-0.7922351555569831,-0.7922351555569831,-0.7922351555569831,-0.7922351555569831,-0.7922351555569831,-0.7922351555569831,-0.7922351555569831,-0.7922351555569831,-0.7922351555569831,-0.7922351555569831,-0.7922351555569831,-0.7922351555569831,-0.7922351555569831,-0.7922351555569831,-0.7922351555569831,-0.7922351555569831,-0.7922351555569831,-0.7922351555569831,-0.7922351555569831,-0.7922351555569831,-0.7922351555569831,-0.7922351555569831,-0.7922351555569831,-0.7922351555569831,-0.7922351555569831,-0.7922351555569831,-0.7922351555569831,-0.7922351555569831,-0.7922351555569831,-0.7922351555569831,-0.7922351555569831,-0.7922351555569831,-0.7922351555569831,-0.7922351555569831,-0.7922351555569831,-0.7922351555569831,-0.7922351555569831,-0.7922351555569831,-0.7922351555569831,-0.7922351555569831,-0.7922351555569831,-0.7922351555569831,-0.7922351555569831,-0.7922351555569831,-0.7922351555569831,-0.7922351555569831,-0.7922351555569831,-0.7922351555569831,-0.7922351555569831,-0.7922351555569831,-0.7922351555569831,-0.7922351555569831,-0.7922351555569831,-0.7922351555569831,-0.7922351555569831,-0.7922351555569831,-0.7922351555569831,-0.7922351555569831,-0.7922351555569831,-0.7922351555569831,-0.7922351555569831,-0.7922351555569831,-0.7922351555569831,-0.7922351555569831,-0.7922351555569831,-0.7922351555569831,-0.7922351555569831,-0.7922351555569831,-0.7922351555569831,-0.7922351555569831,-0.7922351555569831,-0.7922351555569831,-0.7922351555569831,-0.7922351555569831,-0.7922351555569831,-0.7922351555569831,-0.7922351555569831,-0.7922351555569831,-0.7922351555569831,-0.7922351555569831,-0.7922351555569831,-0.7922351555569831,-0.7922351555569831,-0.7922351555569831,-0.7922351555569831,-0.7922351555569831,-0.7922351555569831,-0.7922351555569831,-0.7922351555569831,-0.7922351555569831,-0.7922351555569831,-0.7922351555569831,-0.7922351555569831,-0.7922351555569831,-0.7922351555569831,-0.7922351555569831,-0.7922351555569831,-0.7922351555569831,-0.7922351555569831,-0.7922351555569831,-0.7922351555569831,-0.7922351555569831,-0.7922351555569831,-0.7922351555569831,-0.7922351555569831,-0.7922351555569831,-0.7922351555569831,-0.7922351555569831,-0.7922351555569831,-0.7922351555569831,-0.7922351555569831,-0.7922351555569831,-0.7922351555569831,-0.7922351555569831,-0.7922351555569831,-0.7922351555569831,-0.7922351555569831,-0.7922351555569831,-0.7922351555569831,-0.7922351555569831,-0.7922351555569831,-0.7922351555569831,-0.7922351555569831,-0.7922351555569831,-0.7922351555569831,-0.7922351555569831,-0.7922351555569831,-0.7922351555569831,-0.7922351555569831,-0.7922351555569831,-0.7922351555569831,-0.7922351555569831,-0.7922351555569831,-0.7922351555569831,-0.7922351555569831,-0.7922351555569831,-0.7922351555569831,-0.7922351555569831,-0.7922351555569831,-0.7922351555569831,-0.7922351555569831,-0.7922351555569831,-0.7922351555569831,-0.7922351555569831,-0.7922351555569831,-0.7922351555569831,-0.7922351555569831,-0.7922351555569831,-0.7922351555569831,-0.7922351555569831,-0.7922351555569831,-0.7922351555569831,-0.7922351555569831,-0.7922351555569831,-0.7922351555569831,-0.7922351555569831,-0.7922351555569831,-0.7922351555569831,-0.7922351555569831,-0.7922351555569831,-0.7922351555569831,-0.7922351555569831,-0.7922351555569831,-0.7922351555569831,-0.7922351555569831,-0.7922351555569831,-0.7922351555569831,-0.7922351555569831,-0.7922351555569831,-0.7922351555569831,-0.7922351555569831,-0.7922351555569831,-0.7922351555569831,-0.7922351555569831,-0.7922351555569831,-0.7922351555569831,-0.7922351555569831,-0.7922351555569831,-0.7922351555569831,-0.7922351555569831,-0.7922351555569831,-0.7922351555569831,-0.7922351555569831,-0.7922351555569831,-0.7922351555569831,-0.7922351555569831,-0.7922351555569831,-0.7922351555569831,-0.7922351555569831,-0.7922351555569831,-0.7922351555569831,-0.7922351555569831,-0.7922351555569831,-0.7922351555569831,-0.7922351555569831,-0.7922351555569831,-0.7922351555569831,-0.7922351555569831,-0.7922351555569831,-0.7922351555569831,-0.7922351555569831,-0.7922351555569831,-0.7922351555569831,-0.7922351555569831,-0.7922351555569831,-0.7922351555569831,-0.7922351555569831,-0.7922351555569831,-0.7922351555569831,-0.7922351555569831,-0.7922351555569831,-0.7922351555569831,-0.7922351555569831,-0.7922351555569831,-0.7922351555569831,-0.7922351555569831,-0.7922351555569831,-0.7922351555569831,-0.7922351555569831,-0.7922351555569831,-0.7922351555569831,-0.7922351555569831,-0.7922351555569831,-0.7922351555569831,-0.7922351555569831,-0.7922351555569831,-0.7922351555569831,-0.7922351555569831,-0.7922351555569831,-0.7922351555569831,-0.7922351555569831,-0.7922351555569831,-0.7922351555569831,-0.7922351555569831,-0.7922351555569831,-0.7922351555569831,-0.7922351555569831,-0.7922351555569831,-0.7922351555569831,-0.7922351555569831,-0.7922351555569831,-0.7922351555569831,-0.7922351555569831,-0.7922351555569831,-0.7922351555569831,-0.7922351555569831,-0.7922351555569831,-0.7922351555569831,-0.7922351555569831,-0.7922351555569831,-0.7922351555569831,-0.7922351555569831,-0.7922351555569831,-0.7922351555569831,-0.7922351555569831,-0.7922351555569831,-0.7922351555569831,-0.7922351555569831,-0.7922351555569831,-0.7922351555569831,-0.7922351555569831,-0.7922351555569831,-0.7922351555569831,-0.7922351555569831,-0.7922351555569831,-0.7922351555569831,-0.7922351555569831,-0.7922351555569831,-0.7922351555569831,-0.7922351555569831,-0.7922351555569831,-0.7922351555569831,-0.7922351555569831,-0.7922351555569831,-0.7922351555569831,-0.7922351555569831,-0.7922351555569831,-0.7922351555569831,-0.7922351555569831,-0.7922351555569831,-0.7922351555569831,-0.7922351555569831,-0.7922351555569831,-0.7922351555569831,-0.7922351555569831,-0.7922351555569831,-0.7922351555569831,-0.7922351555569831,-0.7922351555569831,-0.7922351555569831,-0.7922351555569831,-0.7922351555569831,-0.7922351555569831,-0.7922351555569831,-0.7922351555569831,-0.7922351555569831,-0.7922351555569831,-0.7922351555569831,-0.7922351555569831,-0.7922351555569831,-0.7922351555569831,-0.7922351555569831,-0.7922351555569831,-0.7922351555569831,-0.7922351555569831,-0.7922351555569831,-0.7922351555569831,-0.7922351555569831,-0.7922351555569831,-0.7922351555569831,-0.7922351555569831,-0.7922351555569831,-0.7922351555569831,-0.7922351555569831,-0.7922351555569831,-0.7922351555569831,-0.7922351555569831,-0.7922351555569831,-0.7922351555569831,-0.7922351555569831,-0.7922351555569831,-0.7922351555569831,-0.7922351555569831,-0.7922351555569831,-0.7922351555569831,-0.7922351555569831,-0.7922351555569831,-0.7922351555569831,-0.7922351555569831,-0.7922351555569831,-0.7922351555569831,-0.7922351555569831,-0.7922351555569831,-0.7922351555569831,-0.7922351555569831,-0.7922351555569831,-0.7922351555569831,-0.7922351555569831,-0.7922351555569831,-0.7922351555569831,-0.7922351555569831,-0.7922351555569831,-0.7922351555569831,-0.7922351555569831,-0.7922351555569831,-0.7922351555569831,-0.7922351555569831,-0.7922351555569831,-0.7922351555569831,-0.7922351555569831,-0.7922351555569831,-0.7922351555569831,-0.7922351555569831,-0.7922351555569831,-0.7922351555569831,-0.7922351555569831,-0.7922351555569831,-0.7922351555569831,-0.7922351555569831,-0.7922351555569831,-0.7922351555569831,-0.7922351555569831,-0.7922351555569831,-0.7922351555569831,-0.7922351555569831,-0.7922351555569831,-0.7922351555569831,-0.7922351555569831,-0.7922351555569831,-0.7922351555569831,-0.7922351555569831,-0.7922351555569831,-0.7922351555569831,-0.7922351555569831,-0.7922351555569831,-0.7922351555569831,-0.7922351555569831,-0.7922351555569831,-0.7922351555569831,-0.7922351555569831,-0.7922351555569831,-0.7922351555569831,-0.7922351555569831,-0.7922351555569831,-0.7922351555569831,-0.7922351555569831,-0.7922351555569831,-0.7922351555569831,-0.7922351555569831,-0.7922351555569831,-0.7922351555569831,-0.7922351555569831,-0.7922351555569831,-0.7922351555569831,-0.7922351555569831,-0.7922351555569831,-0.7922351555569831,-0.7922351555569831,-0.7922351555569831,-0.7922351555569831,-0.7922351555569831,-0.7922351555569831,-0.7922351555569831,-0.7922351555569831,-0.7922351555569831,-0.7922351555569831,-0.7922351555569831,-0.7922351555569831,-0.7922351555569831,-0.7922351555569831,-0.7922351555569831,-0.7922351555569831,-0.7922351555569831,-0.7922351555569831,-0.7922351555569831,-0.7922351555569831,-0.7922351555569831,-0.7922351555569831,-0.7922351555569831,-0.7922351555569831,-0.7922351555569831,-0.7922351555569831,-0.7922351555569831,-0.7922351555569831,-0.7922351555569831,-0.7922351555569831,-0.7922351555569831,-0.7922351555569831,-0.7922351555569831,-0.7922351555569831,-0.7922351555569831,-0.7922351555569831,-0.7922351555569831,-0.7922351555569831,-0.7922351555569831,-0.7922351555569831,-0.7922351555569831,-0.7922351555569831,-0.7922351555569831,-0.7922351555569831,-0.7922351555569831,-0.7922351555569831,-0.7922351555569831,-0.7922351555569831,-0.7922351555569831,-0.7922351555569831,-0.7922351555569831,-0.7922351555569831,-0.7922351555569831,-0.7922351555569831,-0.7922351555569831,-0.7922351555569831,-0.7922351555569831,-0.7922351555569831,-0.7922351555569831,-0.7922351555569831,-0.7922351555569831,-0.7922351555569831,-0.7922351555569831,-0.7922351555569831,-0.7922351555569831,-0.7922351555569831,-0.7922351555569831,-0.7922351555569831,-0.7922351555569831,-0.7922351555569831,-0.7922351555569831,-0.7922351555569831,-0.7922351555569831,-0.7922351555569831,-0.7922351555569831,-0.7922351555569831,-0.7922351555569831,-0.7922351555569831,-0.7922351555569831,-0.7922351555569831,-0.7922351555569831,-0.7922351555569831,-0.7922351555569831,-0.7922351555569831,-0.7922351555569831,-0.7922351555569831,-0.7922351555569831,-0.7922351555569831,-0.7922351555569831,-0.7922351555569831,-0.7922351555569831,-0.7922351555569831,-0.7922351555569831,-0.7922351555569831,-0.7922351555569831,-0.7922351555569831,-0.7922351555569831,-0.7922351555569831,-0.7922351555569831,-0.7922351555569831,-0.7922351555569831,-0.7922351555569831,-0.7922351555569831,-0.7922351555569831,-0.7922351555569831,-0.7922351555569831,-0.7922351555569831,-0.7922351555569831,-0.7922351555569831,-0.7922351555569831,-0.7922351555569831,-0.7922351555569831,-0.7922351555569831,-0.7922351555569831,-0.7922351555569831,-0.7922351555569831,-0.7922351555569831,-0.7922351555569831,-0.7922351555569831,-0.7922351555569831,-0.7922351555569831,-0.7922351555569831,-0.7922351555569831,-0.7922351555569831,-0.7922351555569831,-0.7922351555569831,-0.7922351555569831,-0.7922351555569831,-0.7922351555569831,-0.7922351555569831,-0.7922351555569831,-0.7922351555569831,-0.7922351555569831,-0.7922351555569831,-0.7922351555569831,-0.7922351555569831,-0.7922351555569831,-0.7922351555569831,-0.7922351555569831,-0.7922351555569831,-0.7922351555569831,-0.7922351555569831,-0.7922351555569831,-0.7922351555569831,-0.7922351555569831,-0.7922351555569831,-0.7922351555569831,-0.7922351555569831,-0.7922351555569831,-0.7922351555569831,-0.7922351555569831,-0.7922351555569831,-0.7922351555569831,-0.7922351555569831,-0.7922351555569831,-0.7922351555569831,-0.7922351555569831,-0.7922351555569831,-0.7922351555569831,-0.7922351555569831,-0.7922351555569831,-0.7922351555569831,-0.7922351555569831,-0.7922351555569831,-0.7922351555569831,-0.7922351555569831,-0.7922351555569831,-0.7922351555569831,-0.7922351555569831,-0.7922351555569831,-0.7922351555569831,-0.7922351555569831,-0.7922351555569831,-0.7922351555569831,-0.7922351555569831,-0.7922351555569831,-0.7922351555569831,-0.7922351555569831,-0.7922351555569831,-0.7922351555569831,-0.7922351555569831,-0.7922351555569831,-0.7922351555569831,-0.7922351555569831,-0.7922351555569831,-0.7922351555569831,-0.7922351555569831,-0.7922351555569831,-0.7922351555569831,-0.7922351555569831,-0.7922351555569831,-0.7922351555569831,-0.7922351555569831,-0.7922351555569831,-0.7922351555569831,-0.7922351555569831,-0.7922351555569831,-0.7922351555569831,-0.7922351555569831,-0.7922351555569831,-0.7922351555569831,-0.7922351555569831,-0.7922351555569831,-0.7922351555569831,-0.7922351555569831,-0.7922351555569831,-0.7922351555569831,-0.7922351555569831,-0.7922351555569831,-0.7922351555569831,-0.7922351555569831,-0.7922351555569831,-0.7922351555569831,-0.7922351555569831,-0.7922351555569831,-0.7922351555569831,-0.7922351555569831,-0.7922351555569831,-0.7922351555569831,-0.7922351555569831,-0.7922351555569831,-0.7922351555569831,-0.7922351555569831,-0.7922351555569831,-0.7922351555569831,-0.7922351555569831,-0.7922351555569831,-0.7922351555569831,-0.7922351555569831,-0.7922351555569831,-0.7922351555569831,-0.7922351555569831,-0.7922351555569831,-0.7922351555569831,-0.7922351555569831,-0.7922351555569831,-0.7922351555569831,-0.7922351555569831,-0.7922351555569831,-0.7922351555569831,-0.7922351555569831,-0.7922351555569831,-0.7922351555569831,-0.7922351555569831,-0.7922351555569831,-0.7922351555569831,-0.7922351555569831,-0.7922351555569831,-0.7922351555569831,-0.7922351555569831,-0.7922351555569831,-0.7922351555569831,-0.7922351555569831,-0.7922351555569831,-0.7922351555569831,-0.7922351555569831,-0.7922351555569831,-0.7922351555569831,-0.7922351555569831,-0.7922351555569831,-0.7922351555569831,-0.7922351555569831,-0.7922351555569831,-0.7922351555569831,-0.7922351555569831,-0.7922351555569831,-0.7922351555569831,-0.7922351555569831,-0.7922351555569831,-0.7922351555569831,-0.7922351555569831,-0.7922351555569831,-0.7922351555569831,-0.7922351555569831,-0.7922351555569831,-0.7922351555569831,-0.7922351555569831,-0.7922351555569831,-0.7922351555569831,-0.7922351555569831,-0.7922351555569831,-0.7922351555569831,-0.7922351555569831,-0.7922351555569831,-0.7922351555569831,-0.7922351555569831,-0.7922351555569831,-0.7922351555569831,-0.7922351555569831,-0.7922351555569831,-0.7922351555569831,-0.7922351555569831,-0.7922351555569831,-0.7922351555569831,-0.7922351555569831,-0.7922351555569831,-0.7922351555569831,-0.7922351555569831,-0.7922351555569831,-0.7922351555569831,-0.7922351555569831,-0.7922351555569831,-0.7922351555569831,-0.7922351555569831,-0.7922351555569831,-0.7922351555569831,-0.7922351555569831,-0.7922351555569831,-0.7922351555569831,-0.7922351555569831,-0.7922351555569831,-0.7922351555569831,-0.7922351555569831,-0.7922351555569831,-0.7922351555569831,-0.7922351555569831,-0.7922351555569831,-0.7922351555569831,-0.7922351555569831,-0.7922351555569831,-0.7922351555569831,-0.7922351555569831,-0.7922351555569831,-0.7922351555569831,-0.7922351555569831,-0.7922351555569831,-0.7922351555569831,-0.7922351555569831,-0.7922351555569831,-0.7922351555569831,-0.7922351555569831,-0.7922351555569831,-0.7922351555569831,-0.7922351555569831,-0.7922351555569831,-0.7922351555569831,-0.7922351555569831,-0.7922351555569831,-0.7922351555569831,-0.7922351555569831,-0.7922351555569831,-0.7922351555569831,-0.7922351555569831,-0.7922351555569831,-0.7922351555569831,-0.7922351555569831,-0.7922351555569831,-0.7922351555569831,-0.7922351555569831,-0.7922351555569831,-0.7922351555569831,-0.7922351555569831,-0.7922351555569831,-0.7922351555569831,-0.7922351555569831,-0.7922351555569831,-0.7922351555569831,-0.7922351555569831,-0.7922351555569831,-0.7922351555569831,-0.7922351555569831,-0.7922351555569831,-0.7922351555569831,-0.7922351555569831,-0.7922351555569831,-0.7922351555569831,-0.7922351555569831,-0.7922351555569831,-0.7922351555569831,-0.7922351555569831,-0.7922351555569831,-0.7922351555569831,-0.7922351555569831,-0.7922351555569831,-0.7922351555569831,-0.7922351555569831,-0.7922351555569831,-0.7922351555569831,-0.7922351555569831,-0.7922351555569831,-0.7922351555569831,-0.7922351555569831,-0.7922351555569831,-0.7922351555569831,-0.7922351555569831,-0.7922351555569831,-0.7922351555569831,-0.7922351555569831,-0.7922351555569831,-0.7922351555569831,-0.7922351555569831,-0.7922351555569831,-0.7922351555569831,-0.7922351555569831,-0.7922351555569831,-0.7922351555569831,-0.7922351555569831,-0.7922351555569831,-0.7922351555569831,-0.7922351555569831,-0.7922351555569831,-0.7922351555569831,-0.7922351555569831,-0.7922351555569831,-0.7922351555569831,-0.7922351555569831,-0.7922351555569831,-0.7922351555569831,-0.7922351555569831,-0.7922351555569831,-0.7922351555569831,-0.7922351555569831,-0.7922351555569831,-0.7922351555569831,-0.7922351555569831,-0.7922351555569831,-0.7922351555569831,-0.7922351555569831,-0.7922351555569831,-0.7922351555569831,-0.7922351555569831,-0.7922351555569831,-0.7922351555569831,-0.7922351555569831,-0.7922351555569831,-0.7922351555569831,-0.7922351555569831,-0.7922351555569831,-0.7922351555569831,-0.7922351555569831,-0.7922351555569831,-0.7922351555569831,-0.7922351555569831,-0.7922351555569831,-0.7922351555569831,-0.7922351555569831,-0.7922351555569831,-0.7922351555569831,-0.7922351555569831,-0.7922351555569831,-0.7922351555569831,-0.7922351555569831,-0.7922351555569831,-0.7922351555569831,-0.7922351555569831,-0.7922351555569831,-0.7922351555569831,-0.7922351555569831,-0.7922351555569831,-0.7922351555569831,-0.7922351555569831,-0.7922351555569831,-0.7922351555569831,-0.7922351555569831,-0.7922351555569831,-0.7922351555569831,-0.7922351555569831,-0.7922351555569831,-0.7922351555569831,-0.7922351555569831,-0.7922351555569831,-0.7922351555569831,-0.7922351555569831,-0.7922351555569831,-0.7922351555569831,-0.7922351555569831,-0.7922351555569831,-0.7922351555569831,-0.7922351555569831,-0.7922351555569831,-0.7922351555569831,-0.7922351555569831,-0.7922351555569831,-0.7922351555569831,-0.7922351555569831,-0.7922351555569831,-0.7922351555569831,-0.7922351555569831,-0.7922351555569831,-0.7922351555569831,-0.7922351555569831,-0.7922351555569831,-0.7922351555569831,-0.7922351555569831,-0.7922351555569831,-0.7922351555569831,-0.7922351555569831,-0.7922351555569831,-0.7922351555569831,-0.7922351555569831,-0.7922351555569831,-0.7922351555569831,-0.7922351555569831,-0.7922351555569831,-0.7922351555569831,-0.7922351555569831,-0.7922351555569831,-0.7922351555569831,-0.7922351555569831,-0.7922351555569831,-0.7922351555569831,-0.7922351555569831,-0.7922351555569831,-0.7922351555569831,-0.7922351555569831,-0.7922351555569831,-0.7922351555569831,-0.7922351555569831,-0.7922351555569831,-0.7922351555569831,-0.7922351555569831,-0.7922351555569831,-0.7922351555569831,-0.7922351555569831,-0.7922351555569831,-0.7922351555569831,-0.7922351555569831,-0.7922351555569831,-0.7922351555569831,-0.7922351555569831,-0.7922351555569831,-0.7922351555569831,-0.7922351555569831,-0.7922351555569831,-0.7922351555569831,-0.7922351555569831,-0.7922351555569831,-0.7922351555569831,-0.7922351555569831,-0.7922351555569831,-0.7922351555569831,-0.7922351555569831,-0.7922351555569831,-0.7922351555569831,-0.7922351555569831,-0.7922351555569831,-0.7922351555569831,-0.7922351555569831,-0.7922351555569831,-0.7922351555569831,-0.7922351555569831,-0.7922351555569831,-0.7922351555569831,-0.7922351555569831,-0.7922351555569831,-0.7922351555569831,-0.7922351555569831,-0.7922351555569831,-0.7922351555569831,-0.7922351555569831,-0.7922351555569831,-0.7922351555569831,-0.7922351555569831,-0.7922351555569831,-0.7922351555569831,-0.7922351555569831,-0.7922351555569831,-0.7922351555569831,-0.7922351555569831,-0.7922351555569831,-0.7922351555569831,-0.7922351555569831,-0.7922351555569831,-0.7922351555569831,-0.7922351555569831,-0.7922351555569831,-0.7922351555569831,-0.7922351555569831,-0.7922351555569831,-0.7922351555569831,-0.7922351555569831,-0.7922351555569831,-0.7922351555569831,-0.7922351555569831,-0.7922351555569831,-0.7922351555569831,-0.7922351555569831,-0.7922351555569831,-0.7922351555569831,-0.7922351555569831,-0.7922351555569831,-0.7922351555569831,-0.7922351555569831,-0.7922351555569831,-0.7922351555569831,-0.7922351555569831,-0.7922351555569831,-0.7922351555569831,-0.7922351555569831,-0.7922351555569831,-0.7922351555569831,-0.7922351555569831,-0.7922351555569831,-0.7922351555569831,-0.7922351555569831,-0.7922351555569831,-0.7922351555569831,-0.7922351555569831,-0.7922351555569831,-0.7922351555569831,-0.7922351555569831,-0.7922351555569831,-0.7922351555569831,-0.7922351555569831,-0.7922351555569831,-0.7922351555569831,-0.7922351555569831,-0.7922351555569831,-0.7922351555569831,-0.7922351555569831,-0.7922351555569831,-0.7922351555569831,-0.7922351555569831,-0.7922351555569831,-0.7922351555569831,-0.7922351555569831,-0.7922351555569831,-0.7922351555569831,-0.7922351555569831,-0.7922351555569831,-0.7922351555569831,-0.7922351555569831,-0.7922351555569831,-0.7922351555569831,-0.7922351555569831,-0.7922351555569831,-0.7922351555569831,-0.7922351555569831,-0.7922351555569831,-0.7922351555569831,-0.7922351555569831,-0.7922351555569831,-0.7922351555569831,-0.7922351555569831,-0.7922351555569831,-0.7922351555569831,-0.7922351555569831,-0.7922351555569831,-0.7922351555569831,-0.7922351555569831,-0.7922351555569831,-0.7922351555569831,-0.7922351555569831,-0.7922351555569831,-0.7922351555569831,-0.7922351555569831,-0.7922351555569831,-0.7922351555569831,-0.7922351555569831,-0.7922351555569831,-0.7922351555569831,-0.7922351555569831,-0.7922351555569831,-0.7922351555569831,-0.7922351555569831,-0.7922351555569831,-0.7922351555569831,-0.7922351555569831,-0.7922351555569831,-0.7922351555569831,-0.7922351555569831,-0.7922351555569831,-0.7922351555569831,-0.7922351555569831,-0.7922351555569831,-0.7922351555569831,-0.7922351555569831,-0.7922351555569831,-0.7922351555569831,-0.7922351555569831,-0.7922351555569831,-0.7922351555569831,-0.7922351555569831,-0.7922351555569831,-0.7922351555569831,-0.7922351555569831,-0.7922351555569831,-0.7922351555569831,-0.7922351555569831,-0.7922351555569831,-0.7922351555569831,-0.7922351555569831,-0.7922351555569831,-0.7922351555569831,-0.7922351555569831,-0.7922351555569831,-0.7922351555569831,-0.7922351555569831,-0.7922351555569831,-0.7922351555569831,-0.7922351555569831,-0.7922351555569831,-0.7922351555569831,-0.7922351555569831,-0.7922351555569831,-0.7922351555569831,-0.7922351555569831,-0.7922351555569831,-0.7922351555569831,-0.7922351555569831,-0.7922351555569831,-0.7922351555569831,-0.7922351555569831,-0.7922351555569831,-0.7922351555569831,-0.7922351555569831,-0.7922351555569831,-0.7922351555569831,-0.7922351555569831,-0.7922351555569831,-0.7922351555569831,-0.7922351555569831,-0.7922351555569831,-0.7922351555569831,-0.7922351555569831,-0.7922351555569831,-0.7922351555569831,-0.7922351555569831,-0.7922351555569831,-0.7922351555569831,-0.7922351555569831,-0.7922351555569831,-0.7922351555569831,-0.7922351555569831,-0.7922351555569831,-0.7922351555569831,-0.7922351555569831,-0.7922351555569831,-0.7922351555569831,-0.7922351555569831,-0.7922351555569831,-0.7922351555569831,-0.7922351555569831,-0.7922351555569831,-0.7922351555569831,-0.7922351555569831,-0.7922351555569831,-0.7922351555569831,-0.7922351555569831,-0.7922351555569831,-0.7922351555569831,-0.7922351555569831,-0.7922351555569831,-0.7922351555569831,-0.7922351555569831,-0.7922351555569831,-0.7922351555569831,-0.7922351555569831,-0.7922351555569831,-0.7922351555569831,-0.7922351555569831,-0.7922351555569831,-0.7922351555569831,-0.7922351555569831,-0.7922351555569831,-0.7922351555569831,-0.7922351555569831,-0.7922351555569831,-0.7922351555569831,-0.7922351555569831,-0.7922351555569831,-0.7922351555569831,-0.7922351555569831,-0.7922351555569831,-0.7922351555569831,-0.7922351555569831,-0.7922351555569831,-0.7922351555569831,-0.7922351555569831,-0.7922351555569831,-0.7922351555569831,-0.7922351555569831,-0.7922351555569831,-0.7922351555569831,-0.7922351555569831,-0.7922351555569831,-0.7922351555569831,-0.7922351555569831,-0.7922351555569831,-0.7922351555569831,-0.7922351555569831,-0.7922351555569831,-0.7922351555569831,-0.7922351555569831,-0.7922351555569831,-0.7922351555569831,-0.7922351555569831,-0.7922351555569831,-0.7922351555569831,-0.7922351555569831,-0.7922351555569831,-0.7922351555569831,-0.7922351555569831,-0.7922351555569831,-0.7922351555569831,-0.7922351555569831,-0.7922351555569831,-0.7922351555569831,-0.7922351555569831,-0.7922351555569831,-0.7922351555569831,-0.7922351555569831,-0.7922351555569831,-0.7922351555569831,-0.7922351555569831,-0.7922351555569831,-0.7922351555569831,-0.7922351555569831,-0.7922351555569831,-0.7922351555569831,-0.7922351555569831,-0.7922351555569831,-0.7922351555569831,-0.7922351555569831,-0.7922351555569831,-0.7922351555569831,-0.7922351555569831,-0.7922351555569831,-0.7922351555569831,-0.7922351555569831,-0.7922351555569831,-0.7922351555569831,-0.7922351555569831,-0.7922351555569831,-0.7922351555569831,-0.7922351555569831,-0.7922351555569831,-0.7922351555569831,-0.7922351555569831,-0.7922351555569831,-0.7922351555569831,-0.7922351555569831,-0.7922351555569831,-0.7922351555569831,-0.7922351555569831,-0.7922351555569831,-0.7922351555569831,-0.7922351555569831,-0.7922351555569831,-0.7922351555569831,-0.7922351555569831,-0.7922351555569831,-0.7922351555569831,-0.7922351555569831,-0.7922351555569831,-0.7922351555569831,-0.7922351555569831,-0.7922351555569831,-0.7922351555569831,-0.7922351555569831,-0.7922351555569831,-0.7922351555569831,-0.7922351555569831,-0.7922351555569831,-0.7922351555569831,-0.7922351555569831,-0.7922351555569831,-0.7922351555569831,-0.7922351555569831,-0.7922351555569831,-0.7922351555569831,-0.7922351555569831,-0.7922351555569831,-0.7922351555569831,-0.7922351555569831,-0.7922351555569831,-0.7922351555569831,-0.7922351555569831,-0.7922351555569831,-0.7922351555569831,-0.7922351555569831,-0.7922351555569831,-0.7922351555569831,-0.7922351555569831,-0.7922351555569831,-0.7922351555569831,-0.7922351555569831,-0.7922351555569831,-0.7922351555569831,-0.7922351555569831,-0.7922351555569831,-0.7922351555569831,-0.7922351555569831,-0.7922351555569831,-0.7922351555569831,-0.7922351555569831,-0.7922351555569831,-0.7922351555569831,-0.7922351555569831,-0.7922351555569831,-0.7922351555569831,-0.7922351555569831,-0.7922351555569831,-0.7922351555569831,-0.7922351555569831,-0.7922351555569831,-0.7922351555569831,-0.7922351555569831,-0.7922351555569831,-0.7922351555569831,-0.7922351555569831,-0.7922351555569831,-0.7922351555569831,-0.7922351555569831,-0.7922351555569831,-0.7922351555569831,-0.7922351555569831,-0.7922351555569831,-0.7922351555569831,-0.7922351555569831,-0.7922351555569831,-0.7922351555569831,-0.7922351555569831,-0.7922351555569831,-0.7922351555569831,-0.7922351555569831,-0.7922351555569831,-0.7922351555569831,-0.7922351555569831,-0.7922351555569831,-0.7922351555569831,-0.7922351555569831,-0.7922351555569831,-0.7922351555569831,-0.7922351555569831,-0.7922351555569831,-0.7922351555569831,-0.7922351555569831,-0.7922351555569831,-0.7922351555569831,-0.7922351555569831,-0.7922351555569831,-0.7922351555569831,-0.7922351555569831,-0.7922351555569831,-0.7922351555569831,-0.7922351555569831,-0.7922351555569831,-0.7922351555569831,-0.7922351555569831,-0.7922351555569831,-0.7922351555569831,-0.7922351555569831,-0.7922351555569831,-0.7922351555569831,-0.7922351555569831,-0.7922351555569831,-0.7922351555569831,-0.7922351555569831,-0.7922351555569831,-0.7922351555569831,-0.7922351555569831,-0.7922351555569831,-0.7922351555569831,-0.7922351555569831,-0.7922351555569831,-0.7922351555569831,-0.7922351555569831,-0.7922351555569831,-0.7922351555569831,-0.7922351555569831,-0.7922351555569831,-0.7922351555569831,-0.7922351555569831,-0.7922351555569831,-0.7922351555569831,-0.7922351555569831,-0.7922351555569831,-0.7922351555569831,-0.7922351555569831,-0.7922351555569831,-0.7922351555569831,-0.7922351555569831,-0.7922351555569831,-0.7922351555569831,-0.7922351555569831,-0.7922351555569831,-0.7922351555569831,-0.7922351555569831,-0.7922351555569831,-0.7922351555569831,-0.7922351555569831,-0.7922351555569831,-0.7922351555569831,-0.7922351555569831,-0.7922351555569831,-0.7922351555569831,-0.7922351555569831,-0.7922351555569831,-0.7922351555569831,-0.7922351555569831,-0.7922351555569831,-0.7922351555569831,-0.7922351555569831,-0.7922351555569831,-0.7922351555569831,-0.7922351555569831,-0.7922351555569831,-0.7922351555569831,-0.7922351555569831,-0.7922351555569831,-0.7922351555569831,-0.7922351555569831,-0.7922351555569831,-0.7922351555569831,-0.7922351555569831,-0.7922351555569831,-0.7922351555569831,-0.7922351555569831,-0.7922351555569831,-0.7922351555569831,-0.7922351555569831,-0.7922351555569831,-0.7922351555569831,-0.7922351555569831,-0.7922351555569831,-0.7922351555569831,-0.7922351555569831,-0.7922351555569831,-0.7922351555569831,-0.7922351555569831,-0.7922351555569831,-0.7922351555569831,-0.7922351555569831,-0.7922351555569831,-0.7922351555569831,-0.7922351555569831,-0.7922351555569831,-0.7922351555569831,-0.7922351555569831,-0.7922351555569831,-0.7922351555569831,-0.7922351555569831,-0.7922351555569831,-0.7922351555569831,-0.7922351555569831,-0.7922351555569831,-0.7922351555569831,-0.7922351555569831,-0.7922351555569831,-0.7922351555569831,-0.7922351555569831,-0.7922351555569831,-0.7922351555569831,-0.7922351555569831,-0.7922351555569831,-0.7922351555569831,-0.7922351555569831,-0.7922351555569831,-0.7922351555569831,-0.7922351555569831,-0.7922351555569831,-0.7922351555569831,-0.7922351555569831,-0.7922351555569831,-0.7922351555569831,-0.7922351555569831,-0.7922351555569831,-0.7922351555569831,-0.7922351555569831,-0.7922351555569831,-0.7922351555569831,-0.7922351555569831,-0.7922351555569831,-0.7922351555569831,-0.7922351555569831,-0.7922351555569831,-0.7922351555569831,-0.7922351555569831,-0.7922351555569831,-0.7922351555569831,-0.7922351555569831,-0.7922351555569831,-0.7922351555569831,-0.7922351555569831,-0.7922351555569831,-0.7922351555569831,-0.7922351555569831,-0.7922351555569831,-0.7922351555569831,-0.7922351555569831,-0.7922351555569831,-0.7922351555569831,-0.7922351555569831,-0.7922351555569831,-0.7922351555569831,-0.7922351555569831,-0.7922351555569831,-0.7922351555569831,-0.7922351555569831,-0.7922351555569831,-0.7922351555569831,-0.7922351555569831,-0.7922351555569831,-0.7922351555569831,-0.7922351555569831,-0.7922351555569831,-0.7922351555569831,-0.7922351555569831,-0.7922351555569831,-0.7922351555569831,-0.7922351555569831,-0.7922351555569831,-0.7922351555569831,-0.7922351555569831,-0.7922351555569831,-0.7922351555569831,-0.7922351555569831,-0.7922351555569831,-0.7922351555569831,-0.7922351555569831,-0.7922351555569831,-0.7922351555569831,-0.7922351555569831,-0.7922351555569831,-0.7922351555569831,-0.7922351555569831,-0.7922351555569831,-0.7922351555569831,-0.7922351555569831,-0.7922351555569831,-0.7922351555569831,-0.7922351555569831,-0.7922351555569831,-0.7922351555569831,-0.7922351555569831,-0.7922351555569831,-0.7922351555569831,-0.7922351555569831,-0.7922351555569831,-0.7922351555569831,-0.7922351555569831,-0.7922351555569831,-0.7922351555569831,-0.7922351555569831,-0.7922351555569831,-0.7922351555569831,-0.7922351555569831,-0.7922351555569831,-0.7922351555569831,-0.7922351555569831,-0.7922351555569831,-0.7922351555569831,-0.7922351555569831,-0.7922351555569831,-0.7922351555569831,-0.7922351555569831,-0.7922351555569831,-0.7922351555569831,-0.7922351555569831,-0.7922351555569831,-0.7922351555569831,-0.7922351555569831,-0.7922351555569831,-0.7922351555569831,-0.7922351555569831,-0.7922351555569831,-0.7922351555569831,-0.7922351555569831,-0.7922351555569831,-0.7922351555569831,-0.7922351555569831,-0.7922351555569831,-0.7922351555569831,-0.7922351555569831,-0.7922351555569831,-0.7922351555569831,-0.7922351555569831,-0.7922351555569831,-0.7922351555569831,-0.7922351555569831,-0.7922351555569831,-0.7922351555569831,-0.7922351555569831,-0.7922351555569831,-0.7922351555569831,-0.7922351555569831,-0.7922351555569831,-0.7922351555569831,-0.7922351555569831,-0.7922351555569831,-0.7922351555569831,-0.7922351555569831,-0.7922351555569831,-0.7922351555569831,-0.7922351555569831,-0.7922351555569831,-0.7922351555569831,-0.7922351555569831,-0.7922351555569831,-0.7922351555569831,-0.7922351555569831,-0.7922351555569831,-0.7922351555569831,-0.7922351555569831,-0.7922351555569831,-0.7922351555569831,-0.7922351555569831,-0.7922351555569831,-0.7922351555569831,-0.7922351555569831,-0.7922351555569831,-0.7922351555569831,-0.7922351555569831,-0.7922351555569831,-0.7922351555569831,-0.7922351555569831,-0.7922351555569831,-0.7922351555569831,-0.7922351555569831,-0.7922351555569831,-0.7922351555569831,-0.7922351555569831,-0.7922351555569831,-0.7922351555569831,-0.7922351555569831,-0.7922351555569831,-0.7922351555569831,-0.7922351555569831,-0.7922351555569831,-0.7922351555569831,-0.7922351555569831,-0.7922351555569831,-0.7922351555569831,-0.7922351555569831,-0.7