[{"instructions":"Let's define a new operation +<sub>6</sub>. This operation will give us a way of combining two of the numbers 0, 1, 2, 3, 4, 5 to get another one of them back. To perform +<sub>6</sub>, you start with the first number, and then add the second one to it. If the sum is smaller than 6, that's your result. If the sum is 6 or bigger, you subtract 6 to get your result. (That's why the operation is called +<sub>6</sub>.) <br /><br />For example, 3 +<sub>6</sub> 5 = 2, because 3 + 5 = 8, and 8 is bigger than 6, so we subtract 6, and 8 - 6 = 2. So 3 +<sub>6</sub> 5 = 2.<br /><br />Similarly, 1 +<sub>6</sub> 4 = 5, because 1 + 4 = 5, and 5 is less than 6 so we leave it alone. <br /><br />Click \"Continue\" when you're ready to move on.","rt":51671,"trial_type":"instructions","trial_index":0,"trial_index_global":1,"time_elapsed":103949,"internal_chunk_id":"0-0"},{"question":"Now try one on your own! What is 4 +<sub>6</sub> 5? <br /><br /> (Remember, to perform +<sub>6< /sub>, y ou start with the first number, and then add the second one to it. If the sum is smaller than 6, that's your result. If the sum is 6 or bigger, you subtract 6 to get your result.)","response_type":"free","response_choices":[],"correct_response":"3","response":"3","response_history":["3"],"rt":11722,"trial_type":"question","trial_index":0,"trial_index_global":2,"time_elapsed":115687,"internal_chunk_id":"0-0.2-0"},{"feedback":"Correct! 4 +<sub>6</sub> 5 = 3 because 4 + 5 = 9 and 9 - 6 = 3.","rt":2123,"trial_type":"feedback","trial_index":0,"trial_index_global":3,"time_elapsed":117816,"internal_chunk_id":"0-0.2-0"},{"question":"What is 3 +<sub>6</sub> 2? <br /><br /> (Remember, to perform +<sub>6</sub>, you start with the first number, and then add the second one to it. If the sum is smaller than 6, that's your result. If the sum is 6 or bigger, you subtract 6 to get your result.)","response_type":"free","response_choices":[],"correct_response":"5","response":"5","response_history":["5 "],"rt":4149,"trial_type":"question","trial_index":0,"trial_index_global":4,"time_elapsed":121967,"internal_chunk_id":"0-0.2-0"},{"feedback":"Correct! 3 +<sub>6</sub> 2 = 5 because 3 + 2 = 5 and 5 is less than 6.","rt":1133,"trial_type":"feedback","trial_index":0,"trial_index_global":5,"time_elapsed":123103,"internal_chunk_id":"0-0.2-0"},{"question":"What is 1 +<sub>6</sub> 5? <br /><br /> (Remember, to perform +<sub>6</sub>, you start with the first number, and then add the second one to it. If the sum is smaller than 6, that's your result. If the sum is 6 or bigger, you subtract 6 to get your result.)","response_type":"free","response_choices":[],"correct_response":"0","response":"0","response_history":["0"],"rt":6566,"trial_type":"question","trial_index":0,"trial_index_global":6,"time_elapsed":129671,"internal_chunk_id":"0-0.2-0"},{"feedback":"Correct! 1 +<sub>6</sub> 5 = 0 because 1 + 5 = 6 and 6 - 6 = 0.","rt":1327,"trial_type":"feedback","trial_index":0,"trial_index_global":7,"time_elapsed":131000,"internal_chunk_id":"0-0.2-0"},{"question":"What is 1 +<sub>6</sub> 1? <br /><br /> (Remember, to perform +<sub>6</sub>, you start with the first number, and then add the second one to it. If the sum is smaller than 6, that's your result. If the sum is 6 or bigger, you subtract 6 to get your result.)","response_type":"free","response_choices":[],"correct_response":"2","response":"2","response_history":["2"],"rt":2775,"trial_type":"question","trial_index":0,"trial_index_global":8,"time_elapsed":133777,"internal_chunk_id":"0-0.2-0"},{"feedback":"Correct! 1 +<sub>6</sub> 1 = 2 because 1 + 1 = 2 and 2 is less than 6.","rt":1108,"trial_type":"feedback","trial_index":0,"trial_index_global":9,"time_elapsed":134887,"internal_chunk_id":"0-0.2-0"},{"question":"What is 3 +<sub>6</sub> 0? <br /><br /> (Remember, to perform +<sub>6</sub>, you start with the first number, and then add the second one to it. If the sum is smaller than 6, that's your result. If the sum  is 6 or  bigger, you subtract 6 to get your result.)","response_type":"free","response_choices":[],"correct_response":"3","response":"3","response_history":["3"],"rt":3110,"trial_type":"question","trial_index":0,"trial_index_global":10,"time_elapsed":137999,"internal_chunk_id":"0-0.2-0"},{"feedback":"Correct! 3 +<sub>6</sub> 0 = 3 because 3 + 0 = 3 and 3 is less than 6.","rt":965,"trial_type":"feedback","trial_index":0,"trial_index_global":11,"time_elapsed":138967,"internal_chunk_id":"0-0.2-0"},{"question":"What is 4 +<sub>6</sub> 4? <br /><br /> (Remember, to perform +<sub>6</sub>, you start with the first number, and then add the second one to it. If the sum is smaller than 6, that's your result. If the sum is 6 or bigger, you subtract 6 to get your result.)","response_type":"free","response_choices":[],"correct_response":"2","response":"2","response_history":["2"],"rt":3416,"trial_type":"question","trial_index":0,"trial_index_global":12,"time_elapsed":142385,"internal_chunk_id":"0 -0.2-0"},{"feedback":"Correct! 4 +<sub>6</sub> 4 = 2 because 4 + 4 = 8 and 8 - 6 = 2.","rt":1107,"trial_type":"feedback","trial_index":0,"trial_index_global":13,"time_elapsed":143495,"internal_chunk_id":"0-0.2-0"},{"question":"What is 1 +<sub>6</sub> 3? <br /><br /> (Remember, to perform +<sub>6</sub>, you start with the first number, and then add the second one to it. If the sum is smaller than 6, that's your result. If the sum is 6 or bigger, you subtract 6 to get your result.)","response_type":"free","response_choices":[],"correct_response":"4","response":"4","response_history":["4"],"rt":2633,"trial_type":"question","trial_index":0,"trial_index_global":14,"time_elapsed":146130,"internal_chunk_id":"0-0.2-0"},{"feedback":"Correct! 1 +<sub>6</sub> 3 = 4 because 1 + 3 = 4 and 4 is less than 6.","rt":923,"trial_type":"feedback","trial_index":0,"trial_index_global":15,"time_elapsed":147058,"internal_chunk_id":"0-0.2-0"},{"question":"What is 4 +<sub>6</sub> 3? <br /><br /> (Remember, t o perfor m +<sub>6</sub>, you start with the first number, and then add the second one to it. If the sum is smaller than 6, that's your result. If the sum is 6 or bigger, you subtract 6 to get your result.)","response_type":"free","response_choices":[],"correct_response":"1","response":"1","response_history":["1"],"rt":2070,"trial_type":"question","trial_index":0,"trial_index_global":16,"time_elapsed":149131,"internal_chunk_id":"0-0.2-0"},{"feedback":"Correct! 4 +<sub>6</sub> 3 = 1 because 4 + 3 = 7 and 7 - 6 = 1.","rt":660,"trial_type":"feedback","trial_index":0,"trial_index_global":17,"time_elapsed":149796,"internal_chunk_id":"0-0.2-0"},{"question":"What is 0 +<sub>6</sub> 5? <br /><br /> (Remember, to perform +<sub>6</sub>, you start with the first number, and then add the second one to it. If the sum is smaller than 6, that's your result. If the sum is 6 or bigger, you subtract 6 to get your result.)","response_type":"free","response_choices":[],"correct_response":"5","response":"5","response_history":["5"],"rt":2296,"trial_type":"question","trial_index":0,"trial_index_global":18,"time_elapsed":152094,"internal_chunk_id":"0-0.2-0"},{"feedback":"Correct! 0 +<sub>6</sub> 5 = 5 because 0 + 5 = 5 and 5 is less than 6.","rt":819,"trial_type":"feedback","trial_index":0,"trial_index_global":19,"time_elapsed":152915,"internal_chunk_id":"0-0.2-0"},{"question":"What is 2 +<sub>6</sub> 5? <br /><br /> (Remember, to perform +<sub>6</sub>, you start with the first number, and then add the second one to it. If the sum is smaller than 6, that's your result. If the sum is 6 or bigger, you subtract 6 to get your result.)","response_type":"free","response_choices":[],"correct_response":"1","response":"1","response_history":["1"],"rt":2310,"trial_type":"question","trial_index":0,"trial_index_global":20,"time_elapsed":155226,"internal_chunk_id":"0-0.2-0"},{"feedback":"Correct! 2 +<sub>6</sub> 5 = 1 because 2 + 5 = 7 and 7 - 6 = 1.","rt":685,"trial_type":"feedback","trial_index":0,"trial_index_global":21,"time_elapsed":155913,"internal_chunk_id":"0-0.2-0"},{"instructions":"Now we're going to discuss a couple special properties of this new operation, +<sub>6</sub> that we've learned. First, notice that the number 0 behaves in a special way under +<sub>6</sub>. Whenever we combine 0 with anything else, we get that same thing back. We'll say that 0 is the <i>identity</i> under +<sub>6</sub>, because when you combine it with something it gives you that identical thing back.","rt":22396,"trial_type":"instructions","trial_index":0,"trial_index_global":22,"time_elapsed":178314,"internal_chunk_id":"0-0"},{"instructions":"Now that we know 0 is the identity under +<sub>6</sub>, we're going to make a new definition. We'll say that the <i>inverse</i> of a number is the thing that you combine with it to produce the identity. For example, 5 +<sub>6</sub> 1 = 0, so we say 1 is the inverse of 5 under +<sub>6</sub>, (remember 0 is the identity under +<sub>6</sub>). Simila rly, 3 i s its own inverse under +<sub>6</sub>, because 3 +<sub>6</sub> 3 = 0.","rt":26043,"trial_type":"instructions","trial_index":0,"trial_index_global":23,"time_elapsed":204359,"internal_chunk_id":"0-0"},{"question":"Now you try! What is the inverse of 4 under +<sub>6</sub>? <br /><br /> (Remember, the inverse of an element is the thing which you combine with it to produce the identity.)","response_type":"free","response_choices":[],"correct_response":"2","response":"2","response_history":["2"],"rt":4328,"trial_type":"question","trial_index":0,"trial_index_global":24,"time_elapsed":208693,"internal_chunk_id":"0-0.6-0"},{"feedback":"Correct! The inverse of 4 under +<sub>6</sub> is 2 because 4 +<sub>6</sub> 2 = 0, and 0 is the identity under +<sub>6</sub>.","rt":1046,"trial_type":"feedback","trial_index":0,"trial_index_global":25,"time_elapsed":209743,"internal_chunk_id":"0-0.6-0"},{"question":"What is the inverse of 1 under +<sub>6</sub>? <br /><br /> (Remember, the inverse of an  element  is the thing which you combine with it to produce the identity.)","response_type":"free","response_choices":[],"correct_response":"5","response":"5","response_history":["5"],"rt":5290,"trial_type":"question","trial_index":0,"trial_index_global":26,"time_elapsed":215034,"internal_chunk_id":"0-0.6-0"},{"feedback":"Correct! The inverse of 1 under +<sub>6</sub> is 5 because 1 +<sub>6</sub> 5 = 0, and 0 is the identity under +<sub>6</sub>.","rt":582,"trial_type":"feedback","trial_index":0,"trial_index_global":27,"time_elapsed":215618,"internal_chunk_id":"0-0.6-0"},{"question":"What is the inverse of 3 under +<sub>6</sub>? <br /><br /> (Remember, the inverse of an element is the thing which you combine with it to produce the identity.)","response_type":"free","response_choices":[],"correct_response":"3","response":"3","response_history":["3"],"rt":2760,"trial_type":"question","trial_index":0,"trial_index_global":28,"time_elapsed":218380,"internal_chunk_id":"0-0.6-0"},{"feedback":" Correct!  The inverse of 3 under +<sub>6</sub> is 3 because 3 +<sub>6</sub> 3 = 0, and 0 is the identity under +<sub>6</sub>.","rt":687,"trial_type":"feedback","trial_index":0,"trial_index_global":29,"time_elapsed":219068,"internal_chunk_id":"0-0.6-0"},{"question":"What is the inverse of 2 under +<sub>6</sub>? <br /><br /> (Remember, the inverse of an element is the thing which you combine with it to produce the identity.)","response_type":"free","response_choices":[],"correct_response":"4","response":"4","response_history":["4"],"rt":2285,"trial_type":"question","trial_index":0,"trial_index_global":30,"time_elapsed":221354,"internal_chunk_id":"0-0.6-0"},{"feedback":"Correct! The inverse of 2 under +<sub>6</sub> is 4 because 2 +<sub>6</sub> 4 = 0, and 0 is the identity under +<sub>6</sub>.","rt":895,"trial_type":"feedback","trial_index":0,"trial_index_global":31,"time_elapsed":222252,"internal_chunk_id":"0-0.6-0"},{"question":"What is the inverse of 0 under +<sub>6</sub>? <br /><br / > (Remem ber, the inverse of an element is the thing which you combine with it to produce the identity.)","response_type":"free","response_choices":[],"correct_response":"0","response":"6","response_history":["6"],"rt":2399,"trial_type":"question","trial_index":0,"trial_index_global":32,"time_elapsed":224651,"internal_chunk_id":"0-0.6-0"},{"feedback":"Sorry, that was incorrect. The inverse of 0 under +<sub>6</sub> is 0 because 0 +<sub>6</sub> 0 = 0, and 0 is the identity under +<sub>6</sub>.","rt":28914,"trial_type":"feedback","trial_index":0,"trial_index_global":33,"time_elapsed":253567,"internal_chunk_id":"0-0.6-0"},{"instructions":"It is also possible to successively apply +<sub>6</sub>, and the operation can simply be performed starting with the left-most pair. For example, 2 +<sub>6</sub> 3 +<sub>6</sub> 4 = 5 +<sub>6</sub> 4 = 3.","rt":10910,"trial_type":"instructions","trial_index":0,"trial_index_global":34,"time_elapsed":264489,"internal_chunk_id":"0-0"},{"instructions":"We h ave one  last definition to learn today, using the successive operations we just learned. Let's start with an example. Under our operation +<sub>6</sub> we can make every other number using just 1: 2 = 1 +<sub>6</sub> 1, 3 = 1 +<sub>6</sub> 1 +<sub>6</sub> 1, 4 = 1 +<sub>6</sub> 1 +<sub>6</sub> 1 +<sub>6</sub> 1, 5 = 1 +<sub>6</sub> 1 +<sub>6</sub> 1 +<sub>6</sub> 1 +<sub>6</sub> 1, and 0 = 1 +<sub>6</sub> 1 +<sub>6</sub> 1 +<sub>6</sub> 1 +<sub>6</sub> 1 +<sub>6</sub> 1. Because of this, we say that 1 is a <i>generator</i> under +<sub>6</sub>. <br /><br /> However, 2 is not a generator under +<sub>6</sub>, because 4 = 2 +<sub>6</sub> 2, and 0 = 2 +<sub>6</sub> 2 +<sub>6</sub> 2, but there is no way to make 1, 3, or 5 using just 2.","rt":49326,"trial_type":"instructions","trial_index":0,"trial_index_global":35,"time_elapsed":313818,"internal_chunk_id":"0-0"},{"question":"Now you try! Is 3 a generator under +<sub>6</sub>? <br /><br /> (Remember, a generator is an element which can mak e every  other element.)","response_type":"multi","response_choices":["Yes","No"],"correct_response":"No","response":"No","response_history":["No"],"rt":9013,"trial_type":"question","trial_index":0,"trial_index_global":36,"time_elapsed":322845,"internal_chunk_id":"0-0.9-0"},{"feedback":"Correct! 3 is not a generator under +<sub>6</sub>, because 3 = 3, 0 = 3 +<sub>6</sub> 3, but there is no way to make 1, 2, 4, or 5 using just 3.","rt":1509,"trial_type":"feedback","trial_index":0,"trial_index_global":37,"time_elapsed":324357,"internal_chunk_id":"0-0.9-0"},{"question":"Is 5 a generator under +<sub>6</sub>? <br /><br /> (Remember, a generator is an element which can make every other element.)","response_type":"multi","response_choices":["Yes","No"],"correct_response":"Yes","response":"No","response_history":["No"],"rt":2893,"trial_type":"question","trial_index":0,"trial_index_global":38,"time_elapsed":327252,"internal_chunk_id":"0-0.9-0"},{"feedback":"Sorry, that's incorrect. 5 is a gen erator u nder +<sub>6</sub>, because 5 = 5, 4 = 5 +<sub>6</sub> 5, 3 = 5 +<sub>6</sub> 5 +<sub>6</sub> 5, 2 = 5 +<sub>6</sub> 5 +<sub>6</sub> 5 +<sub>6</sub> 5, 1 = 5 +<sub>6</sub> 5 +<sub>6</sub> 5 +<sub>6</sub> 5 +<sub>6</sub> 5, and 0 = 5 +<sub>6</sub> 5 +<sub>6</sub> 5 +<sub>6</sub> 5 +<sub>6</sub> 5 +<sub>6</sub> 5, so you can make all of the numbers under +<sub>6</sub> using 5","rt":81826,"trial_type":"feedback","trial_index":0,"trial_index_global":39,"time_elapsed":409081,"internal_chunk_id":"0-0.9-0"},{"question":"Is 4 a generator under +<sub>6</sub>? <br /><br /> (Remember, a generator is an element which can make every other element.)","response_type":"multi","response_choices":["Yes","No"],"correct_response":"No","response":"No","response_history":["No"],"rt":44263,"trial_type":"question","trial_index":0,"trial_index_global":40,"time_elapsed":453359,"internal_chunk_id":"0-0.9-0"},{"feedback":"Correct! 4 is not a generator under +<sub>6</sub>, because 4 = 4, 2 = 4 +<sub>6</ sub> 4,  and 0 = 4 +<sub>6</sub> 4 +<sub>6</sub> 4, but there is no way to make 1, 3, or 5 using just 4.","rt":6035,"trial_type":"feedback","trial_index":0,"trial_index_global":41,"time_elapsed":459407,"internal_chunk_id":"0-0.9-0"},{"question":"Is 0 a generator under +<sub>6</sub>? <br /><br /> (Remember, a generator is an element which can make every other element.)","response_type":"multi","response_choices":["Yes","No"],"correct_response":"No","response":"No","response_history":["No"],"rt":12211,"trial_type":"question","trial_index":0,"trial_index_global":42,"time_elapsed":471623,"internal_chunk_id":"0-0.9-0"},{"feedback":"Correct! 0 is not a generator under +<sub>6</sub>, because 0 = 0, but there is no way to make 1, 2, 3, 4, or 5 using just 0.","rt":1278,"trial_type":"feedback","trial_index":0,"trial_index_global":43,"time_elapsed":472903,"internal_chunk_id":"0-0.9-0"},{"instructions":"Now we are going to ask you some questions about a new operation, +<sub>9</sub>, on the numbe rs 0, 1,  2, 3, 4, 5, 6, 7, 8. It works exactly like +<sub>6</sub>, except now after adding the two numbers you subtract 9 if your result is 9 or greater. <br /><br />We'll give you one practice question with feedback to make sure you understand the new operation. After that, try to complete the remaining questions as accurately as possible.","rt":17147,"trial_type":"instructions","trial_index":0,"trial_index_global":44,"time_elapsed":490054,"internal_chunk_id":"0-0"},{"question":"Practice: What is 5 +<sub>9</sub> 5?","response_type":"free","response_choices":[],"correct_response":"1","response":"1","response_history":["1"],"rt":10158,"trial_type":"question","trial_index":0,"trial_index_global":45,"time_elapsed":500226,"internal_chunk_id":"0-0.11-0"},{"feedback":"Correct! 5 +<sub>9</sub> 5 = 1 because 5 + 5 = 10 and 10 - 9 = 1.","rt":3123,"trial_type":"feedback","trial_index":0,"trial_index_global":46,"time_elapsed":503352,"internal_chunk_id":"0-0.11-0"},{"question":"What is 3 +<sub> 9</sub>  3?","response_type":"free","response_choices":[],"correct_response":"6","response":"6","response_history":["6"],"rt":4264,"trial_type":"question","trial_index":0,"trial_index_global":47,"time_elapsed":507617,"internal_chunk_id":"0-0.11-0"},{"question":"What is 7 +<sub>9</sub> 4?","response_type":"free","response_choices":[],"correct_response":"2","response":"2","response_history":["2"],"rt":5750,"trial_type":"question","trial_index":0,"trial_index_global":48,"time_elapsed":513369,"internal_chunk_id":"0-0.11-0"},{"question":"What is 1 +<sub>9</sub> 8?","response_type":"free","response_choices":[],"correct_response":"0","response":"0","response_history":["0"],"rt":5417,"trial_type":"question","trial_index":0,"trial_index_global":49,"time_elapsed":518786,"internal_chunk_id":"0-0.11-0"},{"question":"What is 5 +<sub>9</sub> 4?","response_type":"free","response_choices":[],"correct_response":"0","response":"0","response_history":["0"],"rt":3815,"trial_type":"question","trial_index":0,"trial_index_global":50,"time_elapsed":522604,"internal_chunk_id":"0-0.11-0"},{"question":"What is 6 +<sub>9</sub> 6?","response_type":"free","response_choices":[],"correct_response":"3","response":"3","response_history":["3"],"rt":3812,"trial_type":"question","trial_index":0,"trial_index_global":51,"time_elapsed":526419,"internal_chunk_id":"0-0.11-0"},{"question":"What is 4 +<sub>9</sub> 1? Please explain in words how you got your answer.","response_type":"free","response_choices":[],"correct_response":"","response":"5: 4 plus 1 is 5; 5 is less than 9, so that is the answer.","response_history":["5: 4 plus 1 i s","5: 4 plus 1 i ","5: 4 plus 1 is 5; 5 is less than 9 ","5: 4 plus 1 is 5; 5 is less than 9, soo","5: 4 plus 1 is 5; 5 is less than 9, so that is the answer."],"rt":57612,"trial_type":"question","trial_index":0,"trial_index_global":52,"time_elapsed":584034,"internal_chunk_id":"0-0.11-0"},{"question":"What is 8 +<sub>9</sub> 4? Please explain in words how you got your an swer.","response_type":"free","response_choices":[],"correct_response":"","response":"3: 8 plus 4 is 12; since 12 is greater than 9, subtract 9 from 12 to get the answer.","response_history":["3: 8 plus 4 is 12; 1","3: 8 plus 4 is 12; since 12 is greatr ","3: 8 plus 4 is 12; since 12 is greatr","3: 8 plus 4 is 12; since 12 is greater than 9, we","3: 8 plus 4 is 12; since 12 is greater than 9, w","3: 8 plus 4 is 12; since 12 is greater than 9, subtract n","3: 8 plus 4 is 12; since 12 is greater than 9, subtract 9 to get the answer.","3: 8 plus 4 is 12; since 12 is greater than 9, subtract 9 fto get the answer.","3: 8 plus 4 is 12; since 12 is greater than 9, subtract 9 froto get the answer.","3: 8 plus 4 is 12; since 12 is greater than 9, subtract 9 fromto get the answer.","3: 8 plus 4 is 12; since 12 is greater than 9, subtract 9 from to get the answer.","3: 8 plus 4 is 12; since 12 is greater than 9, subtract 9 from 12to get the answer.","3: 8 plus 4 is 12; since 12 is greater than  9, subt ract 9 from 12 to get the answer."],"rt":63766,"trial_type":"question","trial_index":0,"trial_index_global":53,"time_elapsed":647813,"internal_chunk_id":"0-0.11-0"},{"question":"What is the identity under +<sub>9</sub>? Please explain in words how you got your answer.","response_type":"free","response_choices":[],"correct_response":"0","response":"0: any number (less than 9) combined with 0 using the +9 operator will produce that same number.","response_history":["0: any number (less","0: any number (les","0: any number (le","0: any number (l","0: any number (","0: any number less ht","0: any number less h","0: any number less than","0: any number less tha","0: any number less th","0: any number less t","0: any number less ","0: any number less","0: any number les","0: any number le","0: any number l","0: any number (less than 9) combined with 0 using","0: any number (less than 9) combined with 0 usin","0: any number (less than 9) combined with 0 usi","0: any number (less th an 9) co mbined with 0 us","0: any number (less than 9) combined with 0 u","0: any number (less than 9) combined with 0 (usig","0: any number (less than 9) combined with 0 (using +9 operator) will be the same number.","0: any number (less than 9) combined with 0 (using t+9 operator) will be the same number.","0: any number (less than 9) combined with 0 (using the+9 operator) will be the same number.","0: any number (less than 9) combined with 0 (using the +9 operator) will be the same number.","0: any number (less than 9) combined with 0 (using the +9 operator will be the same number.","0: any number (less than 9) combined with 0 using the +9 operator will be the same number.","0: any number (less than 9) combined with 0 using the +9 operator will be thesame number.","0: any number (less than 9) combined with 0 using the +9 operator will be thsame number.","0: any number (less than 9) combined with 0 using the +9 operator will be tsame number.","0: any number (less than 9) combined w ith 0 us ing the +9 operator will be same number.","0: any number (less than 9) combined with 0 using the +9 operator will be thsame number.","0: any number (less than 9) combined with 0 using the +9 operator will be thasame number.","0: any number (less than 9) combined with 0 using the +9 operator will be thatsame number.","0: any number (less than 9) combined with 0 using the +9 operator will be that same number.","0: any number (less than 9) combined with 0 using the +9 operator will b that same number.","0: any number (less than 9) combined with 0 using the +9 operator will  that same number.","0: any number (less than 9) combined with 0 using the +9 operator will r that same number.","0: any number (less than 9) combined with 0 using the +9 operator will rs that same number.","0: any number (less than 9) combined with 0 using the +9 operator will r that same number.","0: any number (less than 9) combined with 0 using the +9 operator will ru that same number.","0: any number (le ss than  9) combined with 0 using the +9 operator will rus that same number.","0: any number (less than 9) combined with 0 using the +9 operator will rusl that same number.","0: any number (less than 9) combined with 0 using the +9 operator will ruslt that same number.","0: any number (less than 9) combined with 0 using the +9 operator will rusl that same number.","0: any number (less than 9) combined with 0 using the +9 operator will rus that same number.","0: any number (less than 9) combined with 0 using the +9 operator will ru that same number.","0: any number (less than 9) combined with 0 using the +9 operator will r that same number.","0: any number (less than 9) combined with 0 using the +9 operator will re that same number.","0: any number (less than 9) combined with 0 using the +9 operator will res that same number.","0: any number (less than 9) combined with 0 using the +9 operator will resul that same number.","0: any number (less than 9) combined with 0 using the +9 opera tor will  result that same number.","0: any number (less than 9) combined with 0 using the +9 operator will resul that same number.","0: any number (less than 9) combined with 0 using the +9 operator will resu that same number.","0: any number (less than 9) combined with 0 using the +9 operator will res that same number.","0: any number (less than 9) combined with 0 using the +9 operator will re that same number.","0: any number (less than 9) combined with 0 using the +9 operator will r that same number.","0: any number (less than 9) combined with 0 using the +9 operator will  that same number.","0: any number (less than 9) combined with 0 using the +9 operator will p that same number.","0: any number (less than 9) combined with 0 using the +9 operator will pro that same number.","0: any number (less than 9) combined with 0 using the +9 operator will prod that same number.","0: any number (less than 9) combined with 0 using the +9 operator will produ that same number.","0: any number  (less t han 9) combined with 0 using the +9 operator will produc that same number.","0: any number (less than 9) combined with 0 using the +9 operator will produce that same number.","0: any number (less than 9) combined with 0 using the +9 operator will produce  that same number.","0: any number (less than 9) combined with 0 using the +9 operator will produce that same number.","0: any number (less than 9) combined with 0 using the +9 operator will producethat same number.","0: any number (less than 9) combined with 0 using the +9 operator will produce that same number."],"rt":255307,"trial_type":"question","trial_index":0,"trial_index_global":54,"time_elapsed":903135,"internal_chunk_id":"0-0.11-0"},{"question":"What is the inverse of 5 under +<sub>9</sub>?","response_type":"free","response_choices":[],"correct_response":"4","response":"4","response_history":["4"],"rt":19539,"trial_type":"question","trial_index":0,"trial_index_global":55,"time_elapsed":922688,"internal_chunk_id":"0 -0.11-0"},{"question":"What is the inverse of 2 under +<sub>9</sub>?","response_type":"free","response_choices":[],"correct_response":"7","response":"7","response_history":["7"],"rt":2963,"trial_type":"question","trial_index":0,"trial_index_global":56,"time_elapsed":925656,"internal_chunk_id":"0-0.11-0"},{"question":"What is the inverse of 3 under +<sub>9</sub>? Please explain in words how you got your answer.","response_type":"free","response_choices":[],"correct_response":"","response":"6: 3 +9 6 equals 0 (the identity), which makes 6 the inverse of 3 under this operation.","response_history":["6: 3 +9 6 prduc","6: 3 +9 6 prdu","6: 3 +9 6 prd","6: 3 +9 6 pr","6: 3 +9 6 p","6: 3 +9 6 equals -","6: 3 +9 6 equals 0, whihc","6: 3 +9 6 equals 0, whih","6: 3 +9 6 equals 0, which","6: 3 +9 6 equals 0 , which","6: 3 +9 6 equals 0 (, which","6: 3 +9 6 equals 0 (ht, which","6: 3 +9 6 equals 0 (hte, which","6: 3 +9 6 equals 0 (hte , which","6: 3 +9 6 equals 0 (hte, which","6: 3 +9 6 equals 0  (ht, wh ich","6: 3 +9 6 equals 0 (h, which","6: 3 +9 6 equals 0 (, which","6: 3 +9 6 equals 0 (th, which","6: 3 +9 6 equals 0 (the, which","6: 3 +9 6 equals 0 (the , which","6: 3 +9 6 equals 0 (the i, which","6: 3 +9 6 equals 0 (the id, which","6: 3 +9 6 equals 0 (the ide, which","6: 3 +9 6 equals 0 (the iden, which","6: 3 +9 6 equals 0 (the ident, which","6: 3 +9 6 equals 0 (the identi, which","6: 3 +9 6 equals 0 (the identiy, which","6: 3 +9 6 equals 0 (the identi, which","6: 3 +9 6 equals 0 (the ident, which","6: 3 +9 6 equals 0 (the identi, which","6: 3 +9 6 equals 0 (the identit, which","6: 3 +9 6 equals 0 (the identity, which","6: 3 +9 6 equals 0 (the identity), which makes 6 the inverse of 3 under this operation."],"rt":114327,"trial_type":"question","trial_index":0,"trial_index_global":57,"time_elapsed":1039987,"internal_chunk_id":"0-0.11-0"},{"question":"Is 2 a generator under +<sub>9</sub>? Please explain in words how you got your answer.","response_type":"free","response_choices":[],"correct_response":"","response":"Yes: starting with 2 +9 2 = 4 and repeating the operation +9 2 with each result produces the sequence 4, 6, 8, 1, 3, 5, 7, 0, 2.","response_history":["Yes: starting wiht","Yes: starting wih","Yes: starting with 2 +0","Yes: starting with 2 +9 2 = 4 and interativl","Yes: starting with 2 +9 2 = 4 and interatively","Yes: starting with 2 +9 2 = 4 and interativel","Yes: starting with 2 +9 2 = 4 and interative","Yes: starting with 2 +9 2 = 4 and interativ","Yes: starting with 2 +9 2 = 4 and interati","Yes: starting with 2 +9 2 = 4 and interat","Yes: starting with 2 +9 2 = 4 and intera","Yes: starting with 2 +9 2 = 4 and inter","Yes: starting with 2 +9 2 = 4 and inte","Yes: starting with 2 +9 2 = 4 and int","Yes: starting with 2 +9 2 = 4 and in","Yes: starting with 2 +9 2 = 4 and i","Yes: starting with 2 +9 2 = 4 and repeating the opertaion","Yes: starting with 2 +9 2 = 4 and repeating the opertaio","Yes: starting with 2 +9 2 = 4 and repeating t he opert ai","Yes: starting with 2 +9 2 = 4 and repeating the operta","Yes: starting with 2 +9 2 = 4 and repeating the opertion ","Yes: starting with 2 +9 2 = 4 and repeating the opertion","Yes: starting with 2 +9 2 = 4 and repeating the opertio","Yes: starting with 2 +9 2 = 4 and repeating the operti","Yes: starting with 2 +9 2 = 4 and repeating the opert","Yes: starting with 2 +9 2 = 4 and repeating the operation +9 2 ","Yes: starting with 2 +9 2 = 4 and repeating the operation x+9 2 ","Yes: starting with 2 +9 2 = 4 and repeating the operation x +9 2 ","Yes: starting with 2 +9 2 = 4 and repeating the operation +9 2 with each result produce","Yes: starting with 2 +9 2 = 4 and repeating the operation +9 2 with each result produces the seques","Yes: starting with 2 +9 2 = 4 and repeating the operation +9 2 with each result produces the sequens","Yes: starting with 2 +9 2 = 4 and repeating the operation +9 2 with each result produces the sequence 4 ","Yes: starting with 2 +9 2 = 4 and  repeatin g the operation +9 2 with each result produces the sequence 4, 6, 8, 1, 0","Yes: starting with 2 +9 2 = 4 and repeating the operation +9 2 with each result produces the sequence 4, 6, 8, 1, 3, 5, 7, -","Yes: starting with 2 +9 2 = 4 and repeating the operation +9 2 with each result produces the sequence 4, 6, 8, 1, 3, 5, 7, 0, 2."],"rt":353059,"trial_type":"question","trial_index":0,"trial_index_global":58,"time_elapsed":1393060,"internal_chunk_id":"0-0.11-0"},{"question":"Is 3 a generator under +<sub>9</sub>? Please explain in words how you got your answer.","response_type":"free","response_choices":[],"correct_response":"","response":"No, 3 can only generate 6, 0, 3.","response_history":["No, 3 can only generate 6, 0 ","No, 3 can only generate 6, 0, 3./","No, 3 can only generate 6, 0, 3."],"rt":56052,"trial_type":"question","trial_index":0,"trial_index_global":59,"time_elapsed":1449127,"internal_chunk_id":"0-0.11-0"},{"question":"Is 5 a generator under +<sub>9</sub>? Pleas e explai n in words how you got your answer.","response_type":"free","response_choices":[],"correct_response":"","response":"Yes, iterating +9 5 starting with 5 +9 5 produces the sequence 1, 6, 2, 7, 3, 8, 4, 0 5.","response_history":["Yes, interatively ","Yes, interatively","Yes, interativel","Yes, interative","Yes, interativ","Yes, interati","Yes, interat","Yes, intera","Yes, interative ","Yes, interative","Yes, interativ","Yes, interati","Yes, interat","Yes, intera","Yes, inter","Yes, inte","Yes, int","Yes, in","Yes, i","Yes, iteratively =","Yes, iteratively ","Yes, iteratively","Yes, iterativel","Yes, iterative ","Yes, iteratively ","Yes, iteratively","Yes, iterativel","Yes, iterative","Yes, iterativ","Yes, iterati","Yes, iteratating ","Yes, iteratating","Yes, iteratatin","Yes, iteratati","Yes, iteratat","Yes, iterata","Yes, iterating +0 ","Yes, iterating +0","Yes, iterating +9 5 starin","Yes, iterating +9 5 stari","Yes, iterating +9 5 startnig","Yes, iterating +9 5 startni","Yes , iterat ing +9 5 startn","Yes, iterating +9 5 starting with 5 +9 5 produces the seques","Yes, iterating +9 5 starting with 5 +9 5 produces the sequence 1 ","Yes, iterating +9 5 starting with 5 +9 5 produces the sequence 1, 6, 2, 7.,","Yes, iterating +9 5 starting with 5 +9 5 produces the sequence 1, 6, 2, 7.","Yes, iterating +9 5 starting with 5 +9 5 produces the sequence 1, 6, 2, 7, 3, 8,4","Yes, iterating +9 5 starting with 5 +9 5 produces the sequence 1, 6, 2, 7, 3, 8, 4, 0 5."],"rt":219136,"trial_type":"question","trial_index":0,"trial_index_global":60,"time_elapsed":1668277,"internal_chunk_id":"0-0.11-0"},{"question":"Is 6 a generator under +<sub>9</sub>? Please explain in words how you got your answer.","response_type":"free","response_choices":[],"correct_response":"","response":"No, 6 can only produce 3, 0, 6.","response_history":["Mp","M","No, 6 can","No, 6 ca","No, 6 c","No, 6 cn ","No, 6 cn","No, 6 can only produce 3, 0, 6."],"rt":64191,"trial_type":"question","trial_index":0,"trial_index_global":61,"time_elapsed":1732474,"internal_chunk_id":"0-0.11-0"},{"instructions":"Now we'd like to ask you some questions about +<sub>n</sub>, where n could be any postive counting number. For example, n could be 3, or n could be any other counting number you can think of. If you need to write the operation, you can use \"+_n\", and your answers can include n to stand in for the arbitrary value if necessary.","rt":29785,"trial_type":"instructions","trial_index":0,"trial_index_global":62,"time_elapsed":1762272,"internal_chunk_id":"0-0"},{"question":"What is the formula for the inverse of 1 under +<sub>n</sub>?","response_type":"free","response_choices":[],"correct_response":"n-1","response":"(n - 1)","response_history":["(n - 1)"],"rt":37858,"trial_type":"question","trial_index":0,"trial_index_global":63,"time_elapsed":1800144,"internal_chunk_id":"0-0.13-0"},{"question":"What is the formula for the inverse of an element x under +<sub>n</sub>? Please explain in wo rds how  you got your answer.","response_type":"free","response_choices":[],"correct_response":"n-x","response":"(n - x): if y is the inverse, x +_n y must equal 0. For x +_n y to equal 0, x + y must equal n: x + y = n, therefore y = n - x.","response_history":["(n - x): for ","(n - x): for","(n - x): fo","(n - x): f","(n - x): the inverse y of x ","(n - x): the inverse y of x","(n - x): the inverse y of ","(n - x): the inverse y of","(n - x): the inverse y o","(n - x): the inverse y ","(n - x): the inverse y","(n - x): the inverse ","(n - x): the inverse","(n - x): the invers","(n - x): the inver","(n - x): the inve","(n - x): the inv","(n - x): the in","(n - x): the i","(n - x): the x +_n y (where ","(n - x): the x +_n y (where","(n - x): the x +_n y (wher","(n - x): the x +_n y (whe","(n - x): the x +_n y (wh","(n - x): the x +_n y (w","(n - x): the x +_n y (","(n - x): the x +_n y ","(n - x): the x +_n y","(n - x): the x +_n y","(n - x):  the x +_n y","(n - x): i the x +_n y","(n  - x): i f  the x +_n y","(n - x): if y the x +_n y","(n - x): if y  the x +_n y","(n - x): if y i the x +_n y","(n - x): if y is  the x +_n y","(n - x): if y is th the x +_n y","(n - x): if y is the  the x +_n y","(n - x): if y is the in the x +_n y","(n - x): if y is the inv the x +_n y","(n - x): if y is the inver the x +_n y","(n - x): if y is the inverse the x +_n y","(n - x): if y is the inverse, the x +_n y","(n - x): if y is the inverse, he x +_n y","(n - x): if y is the inverse, e x +_n y","(n - x): if y is the inverse,  x +_n y","(n - x): if y is the inverse, x +_n y = 0. ","(n - x): if y is the inverse, x +_n y = 0.","(n - x): if y is the inverse, x +_n y = 0","(n - x): if y is the inverse, x +_n y = ","(n - x): if y is the inverse, x +_n y =","(n - x): if y is the inverse, x +_n y must d","(n - x): if y is the inverse, x +_n y must equal 0. For x +_n y to equal 0, x + y must qu","(n - x): if y is the inverse, x +_n y must equal 0. For x +_n y to equal 0, x + y must q","(n  - x): i f y is the inverse, x +_n y must equal 0. For x +_n y to equal 0, x + y must eqal","(n - x): if y is the inverse, x +_n y must equal 0. For x +_n y to equal 0, x + y must eqaul l","(n - x): if y is the inverse, x +_n y must equal 0. For x +_n y to equal 0, x + y must eqaul ","(n - x): if y is the inverse, x +_n y must equal 0. For x +_n y to equal 0, x + y must eqaul","(n - x): if y is the inverse, x +_n y must equal 0. For x +_n y to equal 0, x + y must eqau","(n - x): if y is the inverse, x +_n y must equal 0. For x +_n y to equal 0, x + y must eqa","(n - x): if y is the inverse, x +_n y must equal 0. For x +_n y to equal 0, x + y must equal n: x + y = n, therefore y =-","(n - x): if y is the inverse, x +_n y must equal 0. For x +_n y to equal 0, x + y must equal n: x + y = n, therefore y = n - x."],"rt":255173,"trial_type":"question","trial_index":0,"trial_index_global":64,"time_elapsed":2055332,"internal_chunk_id":"0-0.13-0"},{"question":"Is there a pattern to which elem ents are  generators? How can you know if an element x is a generator under +<sub>n</sub> without seeing whether it can make all the elements?.","response_type":"free","response_choices":[],"correct_response":"","response":"1 is always a generator. If x = n - 1 then it should be a generator. I think but can't prove that if x is a factor of n or, possibly, a multiple of a factor of n, then x is not a generator (because before all the numbers are generated, the sequence will loop back to x).","response_history":["One","On","O","1 is always a generator. If x = n -1","1 is always a generator. If x = n - 1 then it should be a generator. T","1 is always a generator. If x = n - 1 then it should be a generator. I think but can't prove that if x is a divir","1 is always a generator. If x = n - 1 then it should be a generator. I think but can't prove that if x is a divisor on","1 is always a generator. If x = n - 1 then it should be a generator. I think but can't prove that if x is a divisor o f n","1  is always a generator. If x = n - 1 then it should be a generator. I think but can't prove that if x is a diviso of n","1 is always a generator. If x = n - 1 then it should be a generator. I think but can't prove that if x is a divis of n","1 is always a generator. If x = n - 1 then it should be a generator. I think but can't prove that if x is a divi of n","1 is always a generator. If x = n - 1 then it should be a generator. I think but can't prove that if x is a div of n","1 is always a generator. If x = n - 1 then it should be a generator. I think but can't prove that if x is a di of n","1 is always a generator. If x = n - 1 then it should be a generator. I think but can't prove that if x is a d of n","1 is always a generator. If x = n - 1 then it should be a generator. I think but can't prove that if x is a  of n","1 is always a generator. If x = n - 1 then it should be a generator. I think but can't prove that if x is a f of n","1 is always a generator. If x = n - 1 the n it sho uld be a generator. I think but can't prove that if x is a fa of n","1 is always a generator. If x = n - 1 then it should be a generator. I think but can't prove that if x is a fac of n","1 is always a generator. If x = n - 1 then it should be a generator. I think but can't prove that if x is a facot of n","1 is always a generator. If x = n - 1 then it should be a generator. I think but can't prove that if x is a facotr of n","1 is always a generator. If x = n - 1 then it should be a generator. I think but can't prove that if x is a facot of n","1 is always a generator. If x = n - 1 then it should be a generator. I think but can't prove that if x is a faco of n","1 is always a generator. If x = n - 1 then it should be a generator. I think but can't prove that if x is a fac of n","1 is always a generator. If x = n - 1 then it should be a generator. I think but can't prove that if x is a fact of n","1 is always a generator. If x = n - 1 then it should be a generator. I think b ut can't  prove that if x is a facto of n","1 is always a generator. If x = n - 1 then it should be a generator. I think but can't prove that if x is a factor of n, then x is not a generator.","1 is always a generator. If x = n - 1 then it should be a generator. I think but can't prove that if x is a factor of n, then x is not a generator .","1 is always a generator. If x = n - 1 then it should be a generator. I think but can't prove that if x is a factor of n, then x is not a generator (.","1 is always a generator. If x = n - 1 then it should be a generator. I think but can't prove that if x is a factor of n, then x is not a generator (b.","1 is always a generator. If x = n - 1 then it should be a generator. I think but can't prove that if x is a factor of n, then x is not a generator (be.","1 is always a generator. If x = n - 1 then it should be a generator. I think but can't prove that if x is a factor of n, then x is not a generator (bec.","1 is always a generator. If x = n - 1 t hen it s hould be a generator. I think but can't prove that if x is a factor of n, then x is not a generator (beca.","1 is always a generator. If x = n - 1 then it should be a generator. I think but can't prove that if x is a factor of n, then x is not a generator (becau.","1 is always a generator. If x = n - 1 then it should be a generator. I think but can't prove that if x is a factor of n, then x is not a generator (becaus.","1 is always a generator. If x = n - 1 then it should be a generator. I think but can't prove that if x is a factor of n, then x is not a generator (because.","1 is always a generator. If x = n - 1 then it should be a generator. I think but can't prove that if x is a factor of n, then x is not a generator (because .","1 is always a generator. If x = n - 1 then it should be a generator. I think but can't prove that if x is a factor of n, then x is not a generator (because b.","1 is always a generator. If x = n - 1 then it should be a generator. I think but can' t prove  that if x is a factor of n, then x is not a generator (because be.","1 is always a generator. If x = n - 1 then it should be a generator. I think but can't prove that if x is a factor of n, then x is not a generator (because bef.","1 is always a generator. If x = n - 1 then it should be a generator. I think but can't prove that if x is a factor of n, then x is not a generator (because befo.","1 is always a generator. If x = n - 1 then it should be a generator. I think but can't prove that if x is a factor of n, then x is not a generator (because before.","1 is always a generator. If x = n - 1 then it should be a generator. I think but can't prove that if x is a factor of n, then x is not a generator (because before .","1 is always a generator. If x = n - 1 then it should be a generator. I think but can't prove that if x is a factor of n, then x is not a generator (because before a.","1 is always a generator. If x = n - 1 then it should be a generator. I think but can't prove  that if  x is a factor of n, then x is not a generator (because before al.","1 is always a generator. If x = n - 1 then it should be a generator. I think but can't prove that if x is a factor of n, then x is not a generator (because before all.","1 is always a generator. If x = n - 1 then it should be a generator. I think but can't prove that if x is a factor of n, then x is not a generator (because before all .","1 is always a generator. If x = n - 1 then it should be a generator. I think but can't prove that if x is a factor of n, then x is not a generator (because before all th.","1 is always a generator. If x = n - 1 then it should be a generator. I think but can't prove that if x is a factor of n, then x is not a generator (because before all the.","1 is always a generator. If x = n - 1 then it should be a generator. I think but can't prove that if x is a factor of n, then x is not a generator (because before all the .","1 is always a generator. If x = n - 1 then it should be a  generat or. I think but can't prove that if x is a factor of n, then x is not a generator (because before all the n.","1 is always a generator. If x = n - 1 then it should be a generator. I think but can't prove that if x is a factor of n, then x is not a generator (because before all the nu.","1 is always a generator. If x = n - 1 then it should be a generator. I think but can't prove that if x is a factor of n, then x is not a generator (because before all the num.","1 is always a generator. If x = n - 1 then it should be a generator. I think but can't prove that if x is a factor of n, then x is not a generator (because before all the numb.","1 is always a generator. If x = n - 1 then it should be a generator. I think but can't prove that if x is a factor of n, then x is not a generator (because before all the number.","1 is always a generator. If x = n - 1 then it should be a generator. I think but can't prove that if x is a factor of n, then x is not a generator (because before  all the  numbers.","1 is always a generator. If x = n - 1 then it should be a generator. I think but can't prove that if x is a factor of n, then x is not a generator (because before all the numbers .","1 is always a generator. If x = n - 1 then it should be a generator. I think but can't prove that if x is a factor of n, then x is not a generator (because before all the numbers ar.","1 is always a generator. If x = n - 1 then it should be a generator. I think but can't prove that if x is a factor of n, then x is not a generator (because before all the numbers ar .","1 is always a generator. If x = n - 1 then it should be a generator. I think but can't prove that if x is a factor of n, then x is not a generator (because before all the numbers ar g.","1 is always a generator. If x = n - 1 then it should be a generator. I think but can't prove that if x is a factor of n, then x is not a generator (because before all the numbers ar ge.","1 is always a generator. If x = n - 1 then it sho uld be a  generator. I think but can't prove that if x is a factor of n, then x is not a generator (because before all the numbers ar g.","1 is always a generator. If x = n - 1 then it should be a generator. I think but can't prove that if x is a factor of n, then x is not a generator (because before all the numbers ar .","1 is always a generator. If x = n - 1 then it should be a generator. I think but can't prove that if x is a factor of n, then x is not a generator (because before all the numbers ar.","1 is always a generator. If x = n - 1 then it should be a generator. I think but can't prove that if x is a factor of n, then x is not a generator (because before all the numbers are.","1 is always a generator. If x = n - 1 then it should be a generator. I think but can't prove that if x is a factor of n, then x is not a generator (because before all the numbers are .","1 is always a generator. If x = n - 1 then it should be a generator. I think but can't prove that if x is a factor  of n, th en x is not a generator (because before all the numbers are g.","1 is always a generator. If x = n - 1 then it should be a generator. I think but can't prove that if x is a factor of n, then x is not a generator (because before all the numbers are ge.","1 is always a generator. If x = n - 1 then it should be a generator. I think but can't prove that if x is a factor of n, then x is not a generator (because before all the numbers are gen.","1 is always a generator. If x = n - 1 then it should be a generator. I think but can't prove that if x is a factor of n, then x is not a generator (because before all the numbers are gener.","1 is always a generator. If x = n - 1 then it should be a generator. I think but can't prove that if x is a factor of n, then x is not a generator (because before all the numbers are generat.","1 is always a generator. If x = n - 1 then it should be a generator. I think but can't prove that if x is a factor of n, then x is not a generator (because bef ore all  the numbers are generate.","1 is always a generator. If x = n - 1 then it should be a generator. I think but can't prove that if x is a factor of n, then x is not a generator (because before all the numbers are generated.","1 is always a generator. If x = n - 1 then it should be a generator. I think but can't prove that if x is a factor of n, then x is not a generator (because before all the numbers are generated .","1 is always a generator. If x = n - 1 then it should be a generator. I think but can't prove that if x is a factor of n, then x is not a generator (because before all the numbers are generated.","1 is always a generator. If x = n - 1 then it should be a generator. I think but can't prove that if x is a factor of n, then x is not a generator (because before all the numbers are generated,.","1 is always a generator. If x = n - 1 then it should be a generator. I think but can't prove that if x is a factor of n, then x is not a generator (because before all the numb ers are  generated, .","1 is always a generator. If x = n - 1 then it should be a generator. I think but can't prove that if x is a factor of n, then x is not a generator (because before all the numbers are generated, th.","1 is always a generator. If x = n - 1 then it should be a generator. I think but can't prove that if x is a factor of n, then x is not a generator (because before all the numbers are generated, the.","1 is always a generator. If x = n - 1 then it should be a generator. I think but can't prove that if x is a factor of n, then x is not a generator (because before all the numbers are generated, the .","1 is always a generator. If x = n - 1 then it should be a generator. I think but can't prove that if x is a factor of n, then x is not a generator (because before all the numbers are generated, the in.","1 is always a generator. If x = n - 1 then it should be a generator. I think but can't prove that if x is a factor of n, then x is not a generator (because before all  the numb ers are generated, the int.","1 is always a generator. If x = n - 1 then it should be a generator. I think but can't prove that if x is a factor of n, then x is not a generator (because before all the numbers are generated, the inte.","1 is always a generator. If x = n - 1 then it should be a generator. I think but can't prove that if x is a factor of n, then x is not a generator (because before all the numbers are generated, the inter.","1 is always a generator. If x = n - 1 then it should be a generator. I think but can't prove that if x is a factor of n, then x is not a generator (because before all the numbers are generated, the interat.","1 is always a generator. If x = n - 1 then it should be a generator. I think but can't prove that if x is a factor of n, then x is not a generator (because before all the numbers are generated, the interation.","1 is always a generator. If x = n - 1 then it should be a generator. I think but can't prove that if x is a factor of n, then  x is no t a generator (because before all the numbers are generated, the interations.","1 is always a generator. If x = n - 1 then it should be a generator. I think but can't prove that if x is a factor of n, then x is not a generator (because before all the numbers are generated, t.","1 is always a generator. If x = n - 1 then it should be a generator. I think but can't prove that if x is a factor of n, then x is not a generator (because before all the numbers are generated, .","1 is always a generator. If x = n - 1 then it should be a generator. I think but can't prove that if x is a factor of n, then x is not a generator (because before all the numbers are generated, t.","1 is always a generator. If x = n - 1 then it should be a generator. I think but can't prove that if x is a factor of n, then x is not a generator (because before all the numbers are generated, the.","1 is always a generator. If x = n - 1 then it should be a generator. I think but can't prove that if x is a fact or of n,  then x is not a generator (because before all the numbers are generated, the .","1 is always a generator. If x = n - 1 then it should be a generator. I think but can't prove that if x is a factor of n, then x is not a generator (because before all the numbers are generated, the s.","1 is always a generator. If x = n - 1 then it should be a generator. I think but can't prove that if x is a factor of n, then x is not a generator (because before all the numbers are generated, the su.","1 is always a generator. If x = n - 1 then it should be a generator. I think but can't prove that if x is a factor of n, then x is not a generator (because before all the numbers are generated, the sue.","1 is always a generator. If x = n - 1 then it should be a generator. I think but can't prove that if x is a factor of n, then x is not a generator (because before all the numbers are generated, the su.","1 is always a generator. If x = n - 1 then it should be a generator. I think but can't prov e that i f x is a factor of n, then x is not a generator (because before all the numbers are generated, the s.","1 is always a generator. If x = n - 1 then it should be a generator. I think but can't prove that if x is a factor of n, then x is not a generator (because before all the numbers are generated, the se.","1 is always a generator. If x = n - 1 then it should be a generator. I think but can't prove that if x is a factor of n, then x is not a generator (because before all the numbers are generated, the seq.","1 is always a generator. If x = n - 1 then it should be a generator. I think but can't prove that if x is a factor of n, then x is not a generator (because before all the numbers are generated, the sequ.","1 is always a generator. If x = n - 1 then it should be a generator. I think but can't prove that if x is a factor of n, then x is not a generator (because before all the numbers are generated, the seque.","1 is always a generator. If x = n - 1 then it should be a gener ator. I  think but can't prove that if x is a factor of n, then x is not a generator (because before all the numbers are generated, the sequen.","1 is always a generator. If x = n - 1 then it should be a generator. I think but can't prove that if x is a factor of n, then x is not a generator (because before all the numbers are generated, the sequenc.","1 is always a generator. If x = n - 1 then it should be a generator. I think but can't prove that if x is a factor of n, then x is not a generator (because before all the numbers are generated, the sequence.","1 is always a generator. If x = n - 1 then it should be a generator. I think but can't prove that if x is a factor of n, then x is not a generator (because before all the numbers are generated, the sequence .","1 is always a generator. If x = n - 1 then it should be a generator. I think but can't prove that if x is a factor of n, then x is not a generator (because before all the numbers are generated, the sequence wi.","1 is alwa ys a gen erator. If x = n - 1 then it should be a generator. I think but can't prove that if x is a factor of n, then x is not a generator (because before all the numbers are generated, the sequence wil.","1 is always a generator. If x = n - 1 then it should be a generator. I think but can't prove that if x is a factor of n, then x is not a generator (because before all the numbers are generated, the sequence will.","1 is always a generator. If x = n - 1 then it should be a generator. I think but can't prove that if x is a factor of n, then x is not a generator (because before all the numbers are generated, the sequence will .","1 is always a generator. If x = n - 1 then it should be a generator. I think but can't prove that if x is a factor of n, then x is not a generator (because before all the numbers are generated, the sequence will l.","1 is always a generator. If x = n - 1 then it should be a generator. I think but can't prove that if x is a factor of n, then x is not a generat or (beca use before all the numbers are generated, the sequence will lo.","1 is always a generator. If x = n - 1 then it should be a generator. I think but can't prove that if x is a factor of n, then x is not a generator (because before all the numbers are generated, the sequence will lop.","1 is always a generator. If x = n - 1 then it should be a generator. I think but can't prove that if x is a factor of n, then x is not a generator (because before all the numbers are generated, the sequence will lopp.","1 is always a generator. If x = n - 1 then it should be a generator. I think but can't prove that if x is a factor of n, then x is not a generator (because before all the numbers are generated, the sequence will lopp .","1 is always a generator. If x = n - 1 then it should be a generator. I think but can't prove that if x is a factor of n, then x is not a generator (because before all the numbers are generated, the sequence will lopp.","1 is always a generator. If x = n - 1 then  it shoul d be a generator. I think but can't prove that if x is a factor of n, then x is not a generator (because before all the numbers are generated, the sequence will lop.","1 is always a generator. If x = n - 1 then it should be a generator. I think but can't prove that if x is a factor of n, then x is not a generator (because before all the numbers are generated, the sequence will lo.","1 is always a generator. If x = n - 1 then it should be a generator. I think but can't prove that if x is a factor of n, then x is not a generator (because before all the numbers are generated, the sequence will loop.","1 is always a generator. If x = n - 1 then it should be a generator. I think but can't prove that if x is a factor of n, then x is not a generator (because before all the numbers are generated, the sequence will loop .","1 is always a generator. If x = n - 1 then it should be a generator. I think but can't prove that if x is a factor of n, then x is not a generator (because before  all the  numbers are generated, the sequence will loop a.","1 is always a generator. If x = n - 1 then it should be a generator. I think but can't prove that if x is a factor of n, then x is not a generator (because before all the numbers are generated, the sequence will loop .","1 is always a generator. If x = n - 1 then it should be a generator. I think but can't prove that if x is a factor of n, then x is not a generator (because before all the numbers are generated, the sequence will loop b.","1 is always a generator. If x = n - 1 then it should be a generator. I think but can't prove that if x is a factor of n, then x is not a generator (because before all the numbers are generated, the sequence will loop ba.","1 is always a generator. If x = n - 1 then it should be a generator. I think but can't prove that if x is a factor of n, then x is not a generator (because before all the numbers are generated, the sequence will loop bac.","1 is always a generator. If x = n - 1 then it s hould be  a generator. I think but can't prove that if x is a factor of n, then x is not a generator (because before all the numbers are generated, the sequence will loop back.","1 is always a generator. If x = n - 1 then it should be a generator. I think but can't prove that if x is a factor of n, then x is not a generator (because before all the numbers are generated, the sequence will loop back .","1 is always a generator. If x = n - 1 then it should be a generator. I think but can't prove that if x is a factor of n, then x is not a generator (because before all the numbers are generated, the sequence will loop back to.","1 is always a generator. If x = n - 1 then it should be a generator. I think but can't prove that if x is a factor of n, then x is not a generator (because before all the numbers are generated, the sequence will loop back to .","1 is always a generator. If x = n - 1 then it should be a generator. I think but can't prove that if x is a factor of n, then x is not a  generat or (because before all the numbers are generated, the sequence will loop back to x.","1 is always a generator. If x = n - 1 then it should be a generator. I think but can't prove that if x is a factor of n, then x is not a generator (because before all the numbers are generated, the sequence will loop back to x).","1 is always a generator. If x = n - 1 then it should be a generator. I think but can't prove that if x is a factor of n , then x is not a generator (because before all the numbers are generated, the sequence will loop back to x).","1 is always a generator. If x = n - 1 then it should be a generator. I think but can't prove that if x is a factor of n o, then x is not a generator (because before all the numbers are generated, the sequence will loop back to x).","1 is always a generator. If x = n - 1 then it should be a generator. I think but can't prove that if x is a factor of n or , then x is not a generator (because before all the numbers are generated, the seque nce will  loop back to x).","1 is always a generator. If x = n - 1 then it should be a generator. I think but can't prove that if x is a factor of n or a, then x is not a generator (because before all the numbers are generated, the sequence will loop back to x).","1 is always a generator. If x = n - 1 then it should be a generator. I think but can't prove that if x is a factor of n or a , then x is not a generator (because before all the numbers are generated, the sequence will loop back to x).","1 is always a generator. If x = n - 1 then it should be a generator. I think but can't prove that if x is a factor of n or a m, then x is not a generator (because before all the numbers are generated, the sequence will loop back to x).","1 is always a generator. If x = n - 1 then it should be a generator. I think but can't prove that if x is a factor of n or a mul, then x is not a generator (because before all the numbers are generated, the sequence will loop back to x).","1 is always a gene rator. I f x = n - 1 then it should be a generator. I think but can't prove that if x is a factor of n or a mult, then x is not a generator (because before all the numbers are generated, the sequence will loop back to x).","1 is always a generator. If x = n - 1 then it should be a generator. I think but can't prove that if x is a factor of n or a multi, then x is not a generator (because before all the numbers are generated, the sequence will loop back to x).","1 is always a generator. If x = n - 1 then it should be a generator. I think but can't prove that if x is a factor of n or a multipl, then x is not a generator (because before all the numbers are generated, the sequence will loop back to x).","1 is always a generator. If x = n - 1 then it should be a generator. I think but can't prove that if x is a factor of n or a multiple, then x is not a generator (because before all the numbers are generated, the sequence will loop back to x).","1 is always a generator. If x = n - 1 then  it shoul d be a generator. I think but can't prove that if x is a factor of n or, a multiple, then x is not a generator (because before all the numbers are generated, the sequence will loop back to x).","1 is always a generator. If x = n - 1 then it should be a generator. I think but can't prove that if x is a factor of n or,  a multiple, then x is not a generator (because before all the numbers are generated, the sequence will loop back to x).","1 is always a generator. If x = n - 1 then it should be a generator. I think but can't prove that if x is a factor of n or, op a multiple, then x is not a generator (because before all the numbers are generated, the sequence will loop back to x).","1 is always a generator. If x = n - 1 then it should be a generator. I think but can't prove that if x is a factor of n or, o a multiple, then x is not a generator (because before all the numbers are generated, the sequence will loop back to x).","1 is always a generator. If x = n - 1 then it shou ld be a  generator. I think but can't prove that if x is a factor of n or,  a multiple, then x is not a generator (because before all the numbers are generated, the sequence will loop back to x).","1 is always a generator. If x = n - 1 then it should be a generator. I think but can't prove that if x is a factor of n or, po a multiple, then x is not a generator (because before all the numbers are generated, the sequence will loop back to x).","1 is always a generator. If x = n - 1 then it should be a generator. I think but can't prove that if x is a factor of n or, p a multiple, then x is not a generator (because before all the numbers are generated, the sequence will loop back to x).","1 is always a generator. If x = n - 1 then it should be a generator. I think but can't prove that if x is a factor of n or, po a multiple, then x is not a generator (because before all the numbers are generated, the sequence will loop back to x).","1 is always a generator. If x = n - 1 then it should b e a gene rator. I think but can't prove that if x is a factor of n or, pos a multiple, then x is not a generator (because before all the numbers are generated, the sequence will loop back to x).","1 is always a generator. If x = n - 1 then it should be a generator. I think but can't prove that if x is a factor of n or, poss a multiple, then x is not a generator (because before all the numbers are generated, the sequence will loop back to x).","1 is always a generator. If x = n - 1 then it should be a generator. I think but can't prove that if x is a factor of n or, possi a multiple, then x is not a generator (because before all the numbers are generated, the sequence will loop back to x).","1 is always a generator. If x = n - 1 then it should be a generator. I think but can't prove that if x is a factor of n or, possib a multiple, then x is not a generator (because before all the numbers are generated, the sequence will loop back to x).","1 is always a generator. If x = n - 1 then it  should  be a generator. I think but can't prove that if x is a factor of n or, possibl a multiple, then x is not a generator (because before all the numbers are generated, the sequence will loop back to x).","1 is always a generator. If x = n - 1 then it should be a generator. I think but can't prove that if x is a factor of n or, possibly a multiple, then x is not a generator (because before all the numbers are generated, the sequence will loop back to x).","1 is always a generator. If x = n - 1 then it should be a generator. I think but can't prove that if x is a factor of n or, possibly, a multiple, then x is not a generator (because before all the numbers are generated, the sequence will loop back to x).","1 is always a generator. If x = n - 1 then it should be a generator. I think but can't prove that if x is a factor of n or, possibly,  a multiple, then x is not a generator (because before all the numbers are generated, the sequence will loop back to x).","1 is always a genera tor. If  x = n - 1 then it should be a generator. I think but can't prove that if x is a factor of n or, possibly, a multiple, then x is not a generator (because before all the numbers are generated, the sequence will loop back to x).","1 is always a generator. If x = n - 1 then it should be a generator. I think but can't prove that if x is a factor of n or, possibly, a multiple , then x is not a generator (because before all the numbers are generated, the sequence will loop back to x).","1 is always a generator. If x = n - 1 then it should be a generator. I think but can't prove that if x is a factor of n or, possibly, a multiple o, then x is not a generator (because before all the numbers are generated, the sequence will loop back to x).","1 is always a generator. If x = n - 1 then it should be a generator. I think but can't prove that if x is a factor of n or, possibly, a multiple of, then x is not a generator (because before all the numbers are generated, the sequence will loop b ack to x ).","1 is always a generator. If x = n - 1 then it should be a generator. I think but can't prove that if x is a factor of n or, possibly, a multiple of , then x is not a generator (because before all the numbers are generated, the sequence will loop back to x).","1 is always a generator. If x = n - 1 then it should be a generator. I think but can't prove that if x is a factor of n or, possibly, a multiple of a, then x is not a generator (because before all the numbers are generated, the sequence will loop back to x).","1 is always a generator. If x = n - 1 then it should be a generator. I think but can't prove that if x is a factor of n or, possibly, a multiple of a , then x is not a generator (because before all the numbers are generated, the sequence will loop back to x).","1 is always a generator. If x = n - 1 then it should be a generator. I think but can't prove that if x is a factor of n or, possibly, a multiple of a f, then x is not a generator (because before all th e number s are generated, the sequence will loop back to x).","1 is always a generator. If x = n - 1 then it should be a generator. I think but can't prove that if x is a factor of n or, possibly, a multiple of a fa, then x is not a generator (because before all the numbers are generated, the sequence will loop back to x).","1 is always a generator. If x = n - 1 then it should be a generator. I think but can't prove that if x is a factor of n or, possibly, a multiple of a fac, then x is not a generator (because before all the numbers are generated, the sequence will loop back to x).","1 is always a generator. If x = n - 1 then it should be a generator. I think but can't prove that if x is a factor of n or, possibly, a multiple of a fact, then x is not a generator (because before all the numbers are generated, the sequence will loop back to x).","1 is always a generator. If x = n - 1 then it should be a generator. I think but can't prove that if x is a factor of n or, possibly, a mult iple of  a facto, then x is not a generator (because before all the numbers are generated, the sequence will loop back to x).","1 is always a generator. If x = n - 1 then it should be a generator. I think but can't prove that if x is a factor of n or, possibly, a multiple of a factor, then x is not a generator (because before all the numbers are generated, the sequence will loop back to x).","1 is always a generator. If x = n - 1 then it should be a generator. I think but can't prove that if x is a factor of n or, possibly, a multiple of a factor , then x is not a generator (because before all the numbers are generated, the sequence will loop back to x).","1 is always a generator. If x = n - 1 then it should be a generator. I think but can't prove that if x is a factor of n or, possibly, a multiple of a factor o, then x is not a generator (because before all the numbers are generated, the sequence will loop back to x).","1 is always a generator. If x = n - 1 then it should be a gener ator. I  think but can't prove that if x is a factor of n or, possibly, a multiple of a factor of, then x is not a generator (because before all the numbers are generated, the sequence will loop back to x).","1 is always a generator. If x = n - 1 then it should be a generator. I think but can't prove that if x is a factor of n or, possibly, a multiple of a factor of , then x is not a generator (because before all the numbers are generated, the sequence will loop back to x).","1 is always a generator. If x = n - 1 then it should be a generator. I think but can't prove that if x is a factor of n or, possibly, a multiple of a factor of n, then x is not a generator (because before all the numbers are generated, the sequence will loop back to x)."],"rt":1001662,"trial_type":"question","trial_index":0,"trial_index_global":65,"time_elapsed":3057007,"internal_chunk_id":"0-0.13-0"},{"question":"True or false: If x is an odd number, it must be a generator under +<sub>n</sub>.","response_type":"multi","response_choices":["True","False"],"correct_response":"False","response":"False","response_history":["False"],"rt":34434,"trial_type":"question","trial_index":0,"trial_index_global":66,"time_elapsed":3091457,"internal_chunk_id":"0-0.13-0"},{"question":"True or false: If x is an even number, it must not be a generator under +<sub>n</sub>.","response_type":"multi","response_choices":["True","False"],"correct_response":"False","response":"False","response_history":["False"],"rt":31707,"trial_type":"question","trial_index":0,"trial_index_global":67,"time_elapsed":3123178,"internal_chunk_id":"0-0.13-0"},{"question":"True or false: If x is not a generator under +<sub>n</sub>, x must divide n.","response_type":"multi","response_choices":["True","False"],"correct_response":"False","response":"False","response_history":["False"],"rt":22352,"trial_type":"question","trial_index":0,"trial_index_global":68,"time_elapsed":3145538,"internal_chunk_id":"0-0.13-0"},{"question":"True or false : If x i s not a generator under +<sub>n</sub>, x must be a multiple of a divisor of n. Please explain in words why your answer is corret.","response_type":"free","response_choices":[],"correct_response":"True","response":"True? I can't figure out a way to prove it generally, but this sequence seems always to hit the inverse before the full sequence of numbers is generated; since x and the inverse produce 0, no new numbers can be generated after that iteration.","response_history":["Ture","Tur","Tu","True? I can't figure out a way to show it ","True? I can't figure out a way to show it","True? I can't figure out a way to show i","True? I can't figure out a way to show ","True? I can't figure out a way to show","True? I can't figure out a way to sho","True? I can't figure out a way to sh","True? I can't figure out a way to s","True? I can't figure out a way to proveit ","True? I can't figure out a way to proveit","True? I can't figure out a way to provei","True? I can't figure out a w ay to pr ove it generally, but this seuq","True? I can't figure out a way to prove it generally, but this seu","True? I can't figure out a way to prove it generally, but this sequence seems always to hit the identity","True? I can't figure out a way to prove it generally, but this sequence seems always to hit the identit","True? I can't figure out a way to prove it generally, but this sequence seems always to hit the identi","True? I can't figure out a way to prove it generally, but this sequence seems always to hit the ident","True? I can't figure out a way to prove it generally, but this sequence seems always to hit the iden","True? I can't figure out a way to prove it generally, but this sequence seems always to hit the ide","True? I can't figure out a way to prove it generally, but this sequence seems always to hit the id","True? I can't figure out a way to prove it generally, but this sequence seems always to hit the inverse before the fulll ","True? I can't figure out a way to  prove it  generally, but this sequence seems always to hit the inverse before the fulll","True? I can't figure out a way to prove it generally, but this sequence seems always to hit the inverse before the full sequence of number ","True? I can't figure out a way to prove it generally, but this sequence seems always to hit the inverse before the full sequence of numbers is generated. ","True? I can't figure out a way to prove it generally, but this sequence seems always to hit the inverse before the full sequence of numbers is generated.","True? I can't figure out a way to prove it generally, but this sequence seems always to hit the inverse before the full sequence of numbers is generated; since the ","True? I can't figure out a way to prove it generally, but this sequence seems always to hit the inverse before the full sequence of numbers is generated; since then","True? I can't figure out a way to prove it generally, but this sequence seems always to hit the inverse before the full  sequenc e of numbers is generated; since the next number after the inverse is ","True? I can't figure out a way to prove it generally, but this sequence seems always to hit the inverse before the full sequence of numbers is generated; since the next number ","True? I can't figure out a way to prove it generally, but this sequence seems always to hit the inverse before the full sequence of numbers is generated; since the next numbers after","True? I can't figure out a way to prove it generally, but this sequence seems always to hit the inverse before the full sequence of numbers is generated; since x and the inverse f","True? I can't figure out a way to prove it generally, but this sequence seems always to hit the inverse before the full sequence of numbers is generated; since x and the inverse produce 0, the next number in seuqe","True? I can't figure out a way to prove it generally, but this sequence seems always to hit the inverse before the full sequence of numbers is generated;  since x  and the inverse produce 0, the next number in seuq","True? I can't figure out a way to prove it generally, but this sequence seems always to hit the inverse before the full sequence of numbers is generated; since x and the inverse produce 0, the next number in seu","True? I can't figure out a way to prove it generally, but this sequence seems always to hit the inverse before the full sequence of numbers is generated; since x and the inverse produce 0, the next number in sequn","True? I can't figure out a way to prove it generally, but this sequence seems always to hit the inverse before the full sequence of numbers is generated; since x and the inverse produce 0, the next number in sequence is x, ","True? I can't figure out a way to prove it generally, but this sequence seems always to hit the inverse before the full sequence of numbers is generated; since x and the inverse produce 0, the next number in sequence i x, ","True? I can't figure out a way to prove it generally, b ut this  sequence seems always to hit the inverse before the full sequence of numbers is generated; since x and the inverse produce 0, the next number in sequence  x, ","True? I can't figure out a way to prove it generally, but this sequence seems always to hit the inverse before the full sequence of numbers is generated; since x and the inverse produce 0, the next number in sequence w x, ","True? I can't figure out a way to prove it generally, but this sequence seems always to hit the inverse before the full sequence of numbers is generated; since x and the inverse produce 0, the next number in sequence wi x, ","True? I can't figure out a way to prove it generally, but this sequence seems always to hit the inverse before the full sequence of numbers is generated; since x and the inverse produce 0, the next number in sequence wil x, ","True? I can't figure out a way to prove it generally, but this sequence seems always to hit the inverse before the full sequence of numbers is generat ed; sinc e x and the inverse produce 0, the next number in sequence will x, ","True? I can't figure out a way to prove it generally, but this sequence seems always to hit the inverse before the full sequence of numbers is generated; since x and the inverse produce 0, the next number in sequence will  x, ","True? I can't figure out a way to prove it generally, but this sequence seems always to hit the inverse before the full sequence of numbers is generated; since x and the inverse produce 0, the next number in sequence will b x, ","True? I can't figure out a way to prove it generally, but this sequence seems always to hit the inverse before the full sequence of numbers is generated; since x and the inverse produce 0, the next number in sequence will be x, ","True? I can't figure out a way to prove it generally, but this sequence seems always to hit the inverse before the full sequence of numbers is generated; since x and the inverse produce 0, the next number in sequence will be x,","True? I  can't figure out a way to prove it generally, but this sequence seems always to hit the inverse before the full sequence of numbers is generated; since x and the inverse produce 0, the next number in sequence will be x (the start of the squence","True? I can't figure out a way to prove it generally, but this sequence seems always to hit the inverse before the full sequence of numbers is generated; since x and the inverse produce 0, the next number in sequence will be x (the start of the squenc","True? I can't figure out a way to prove it generally, but this sequence seems always to hit the inverse before the full sequence of numbers is generated; since x and the inverse produce 0, the next number in sequence will be x (the start of the squen","True? I can't figure out a way to prove it generally, but this sequence seems always to hit the inverse before the full sequence of numbers is generated; since x and the inverse produce 0, the next number in sequence will be x (the st art of t he sque","True? I can't figure out a way to prove it generally, but this sequence seems always to hit the inverse before the full sequence of numbers is generated; since x and the inverse produce 0, the next number in sequence will be x (the start of the squ","True? I can't figure out a way to prove it generally, but this sequence seems always to hit the inverse before the full sequence of numbers is generated; since x and the inverse produce 0, the next number in sequence will be x (the start of the sq","True? I can't figure out a way to prove it generally, but this sequence seems always to hit the inverse before the full sequence of numbers is generated; since x and the inverse produce 0, the next number in sequence will be x (the start of the sequence) which preclud","True? I can't figure out a way to prove it generally, but this sequence seems always to hit the inverse before the full sequence of numbers is generated; since x and the inverse produce 0, the next number in  sequenc e will be x (the start of the sequence) which preclu","True? I can't figure out a way to prove it generally, but this sequence seems always to hit the inverse before the full sequence of numbers is generated; since x and the inverse produce 0, the next number in sequence will be x (the start of the sequence) which precl","True? I can't figure out a way to prove it generally, but this sequence seems always to hit the inverse before the full sequence of numbers is generated; since x and the inverse produce 0, the next number in sequence will be x (the start of the sequence) which precludes ","True? I can't figure out a way to prove it generally, but this sequence seems always to hit the inverse before the full sequence of numbers is generated; since x and the inverse produce 0, the next number in sequence will be x (the start of the sequence) which precludes","True? I can't figure out a way to prove it generally, but this sequence seems always to hit the inverse before the ful l sequen ce of numbers is generated; since x and the inverse produce 0, the next number in sequence will be x (the start of the sequence) which preclude","True? I can't figure out a way to prove it generally, but this sequence seems always to hit the inverse before the full sequence of numbers is generated; since x and the inverse produce 0, the next number in sequence will be x (the start of the sequence) which preclud","True? I can't figure out a way to prove it generally, but this sequence seems always to hit the inverse before the full sequence of numbers is generated; since x and the inverse produce 0, the next number in sequence will be x (the start of the sequence) which preclu","True? I can't figure out a way to prove it generally, but this sequence seems always to hit the inverse before the full sequence of numbers is generated; since x and the inverse produce 0, the next number in sequence will be x (the start of the sequence) which precl","True? I can't figure out a way to  prove i t generally, but this sequence seems always to hit the inverse before the full sequence of numbers is generated; since x and the inverse produce 0, the next number in sequence will be x (the start of the sequence) which prec","True? I can't figure out a way to prove it generally, but this sequence seems always to hit the inverse before the full sequence of numbers is generated; since x and the inverse produce 0, the next number in sequence will be x (the start of the sequence) which pre","True? I can't figure out a way to prove it generally, but this sequence seems always to hit the inverse before the full sequence of numbers is generated; since x and the inverse produce 0, the next number in sequence will be x (the start of the sequence) which pr","True? I can't figure out a way to prove it generally, but this sequence seems always to hit the inverse before the full sequence of numbers is generated; since x and the inverse produce 0, the next number in sequence will be x (t he start  of the sequence) which p","True? I can't figure out a way to prove it generally, but this sequence seems always to hit the inverse before the full sequence of numbers is generated; since x and the inverse produce 0, the next number in sequence will be x (the start of the sequence) which ","True? I can't figure out a way to prove it generally, but this sequence seems always to hit the inverse before the full sequence of numbers is generated; since x and the inverse produce 0, the next number in sequence will be x, which ","True? I can't figure out a way to prove it generally, but this sequence seems always to hit the inverse before the full sequence of numbers is generated; since x and the inverse produce 0, the next number in sequence will be x, which","True? I can't figure out a way to prove it generally, but this sequence seems always to hit the inverse before the full sequence of numbers is generated; since x and the inverse produce 0, the next number in sequence will be  x, whic ","True? I can't figure out a way to prove it generally, but this sequence seems always to hit the inverse before the full sequence of numbers is generated; since x and the inverse produce 0, the next number in sequence will be x, whi","True? I can't figure out a way to prove it generally, but this sequence seems always to hit the inverse before the full sequence of numbers is generated; since x and the inverse produce 0, the next number in sequence will be x, wh","True? I can't figure out a way to prove it generally, but this sequence seems always to hit the inverse before the full sequence of numbers is generated; since x and the inverse produce 0, the next number in sequence will be x, w","True? I can't figure out a way to prove it generally, but this sequence seems always to hit the inverse before the full sequence of numbers is generated; since x and the inverse produce 0, the next number in sequence will be x, ","True? I can't figure out a way to prove it generally, bu t this s equence seems always to hit the inverse before the full sequence of numbers is generated; since x and the inverse produce 0, the next number in sequence will be x, after which no nne","True? I can't figure out a way to prove it generally, but this sequence seems always to hit the inverse before the full sequence of numbers is generated; since x and the inverse produce 0, the next number in sequence will be x, after which no nn","True? I can't figure out a way to prove it generally, but this sequence seems always to hit the inverse before the full sequence of numbers is generated; since x and the inverse produce 0, the next number in sequence will be x, after which no new numbers can be generated.","True? I can't figure out a way to prove it generally, but this sequence seems always to hit the inverse before the full sequence of numbers is generated; since x and the inverse produce 0, the next number in sequence will be x, safter which no new numbers can be generated.","True?  I can't  figure out a way to prove it generally, but this sequence seems always to hit the inverse before the full sequence of numbers is generated; since x and the inverse produce 0, the next number in sequence will be x, shoafter which no new numbers can be generated.","True? I can't figure out a way to prove it generally, but this sequence seems always to hit the inverse before the full sequence of numbers is generated; since x and the inverse produce 0, the next number in sequence will be x, showafter which no new numbers can be generated.","True? I can't figure out a way to prove it generally, but this sequence seems always to hit the inverse before the full sequence of numbers is generated; since x and the inverse produce 0, the next number in sequence will be x, showinafter which no new numbers can be generated.","True? I can't figure out a way to prove it generally, but this sequence seems always to hit the inverse before the full sequence of numbers is generated; since x an d the in verse produce 0, the next number in sequence will be x, showingafter which no new numbers can be generated.","True? I can't figure out a way to prove it generally, but this sequence seems always to hit the inverse before the full sequence of numbers is generated; since x and the inverse produce 0, the next number in sequence will be x, showing after which no new numbers can be generated.","True? I can't figure out a way to prove it generally, but this sequence seems always to hit the inverse before the full sequence of numbers is generated; since x and the inverse produce 0, the next number in sequence will be x, showing fter which no new numbers can be generated.","True? I can't figure out a way to prove it generally, but this sequence seems always to hit the inverse before the full sequence of numbers is generated; since x and the inverse produce 0, the next number in sequence will be x, showing ter which no new numbers can be generated.","True? I can't figure out a way to  prove i t generally, but this sequence seems always to hit the inverse before the full sequence of numbers is generated; since x and the inverse produce 0, the next number in sequence will be x, showing er which no new numbers can be generated.","True? I can't figure out a way to prove it generally, but this sequence seems always to hit the inverse before the full sequence of numbers is generated; since x and the inverse produce 0, the next number in sequence will be x, showing r which no new numbers can be generated.","True? I can't figure out a way to prove it generally, but this sequence seems always to hit the inverse before the full sequence of numbers is generated; since x and the inverse produce 0, the next number in sequence will be x, showing  which no new numbers can be generated.","True? I can't figure out a way to prove it generally, but this sequence seems always to hit the inverse before the full sequence of numbers is generated; since x and the inverse produce 0, the  next num ber in sequence will be x, showing which no new numbers can be generated.","True? I can't figure out a way to prove it generally, but this sequence seems always to hit the inverse before the full sequence of numbers is generated; since x and the inverse produce 0, the next number in sequence will be x, showing hich no new numbers can be generated.","True? I can't figure out a way to prove it generally, but this sequence seems always to hit the inverse before the full sequence of numbers is generated; since x and the inverse produce 0, the next number in sequence will be x, showing ich no new numbers can be generated.","True? I can't figure out a way to prove it generally, but this sequence seems always to hit the inverse before the full sequence of numbers is generated; since x and the inverse produce 0, the next number in sequence will be x, showing ch no new numbers can be generated.","True? I can't figure out a way to prove it generally, but this sequence seems always to  hit the  inverse before the full sequence of numbers is generated; since x and the inverse produce 0, the next number in sequence will be x, showing h no new numbers can be generated.","True? I can't figure out a way to prove it generally, but this sequence seems always to hit the inverse before the full sequence of numbers is generated; since x and the inverse produce 0, the next number in sequence will be x, showing  no new numbers can be generated.","True? I can't figure out a way to prove it generally, but this sequence seems always to hit the inverse before the full sequence of numbers is generated; since x and the inverse produce 0, the next number in sequence will be x, showing no new numbers can be generated.","True? I can't figure out a way to prove it generally, but this sequence seems always to hit the inverse before the full sequence of numbers is generated; since x and the inverse produce 0, the next number in sequence will be x, showing tno new numbers can be generated. ","True?  I can't figure out a way to prove it generally, but this sequence seems always to hit the inverse before the full sequence of numbers is generated; since x and the inverse produce 0, the next number in sequence will be x, showing thno new numbers can be generated.","True? I can't figure out a way to prove it generally, but this sequence seems always to hit the inverse before the full sequence of numbers is generated; since x and the inverse produce 0, the next number in sequence will be x, showing thano new numbers can be generated.","True? I can't figure out a way to prove it generally, but this sequence seems always to hit the inverse before the full sequence of numbers is generated; since x and the inverse produce 0, the next number in sequence will be x, showing thatno new numbers can be generated.","True? I can't figure out a way to prove it generally, but this sequence seems always to hit the inverse before the full sequence of numbers is generated; since x and the in verse pr oduce 0, the next number in sequence will be x, showing that no new numbers can be generated.","True? I can't figure out a way to prove it generally, but this sequence seems always to hit the inverse before the full sequence of numbers is generated; since x and the inverse produce 0, no new numbers can be generated.","True? I can't figure out a way to prove it generally, but this sequence seems always to hit the inverse before the full sequence of numbers is generated; since x and the inverse produce 0, no new numbers can be generated .","True? I can't figure out a way to prove it generally, but this sequence seems always to hit the inverse before the full sequence of numbers is generated; since x and the inverse produce 0, no new numbers can be generated a.","True? I can't figure out a way to prove it generally, but this sequence seems always to hit the inverse before the full sequence of numbers is generated; since x and the inverse produce 0, no new numbers can be generat ed af.","True? I can't figure out a way to prove it generally, but this sequence seems always to hit the inverse before the full sequence of numbers is generated; since x and the inverse produce 0, no new numbers can be generated aft.","True? I can't figure out a way to prove it generally, but this sequence seems always to hit the inverse before the full sequence of numbers is generated; since x and the inverse produce 0, no new numbers can be generated afte.","True? I can't figure out a way to prove it generally, but this sequence seems always to hit the inverse before the full sequence of numbers is generated; since x and the inverse produce 0, no new numbers can be generated after.","True? I can't figure out a way to prove it generally, but this sequence seems always to hit the inverse before the full sequence of numbers is generated; since x and the inverse produce 0, no new numbers can be generated after .","True? I can't figure out a way to prove it generally, but this sequenc e seems  always to hit the inverse before the full sequence of numbers is generated; since x and the inverse produce 0, no new numbers can be generated after t.","True? I can't figure out a way to prove it generally, but this sequence seems always to hit the inverse before the full sequence of numbers is generated; since x and the inverse produce 0, no new numbers can be generated after th.","True? I can't figure out a way to prove it generally, but this sequence seems always to hit the inverse before the full sequence of numbers is generated; since x and the inverse produce 0, no new numbers can be generated after that.","True? I can't figure out a way to prove it generally, but this sequence seems always to hit the inverse before the full sequence of numbers is generated; since x and the inverse produce 0, no new numbers can be generated after that .","True? I can't figure out a way to prove it generally, but this sequence seems always to hit the inverse before the full sequence of  numbers  is generated; since x and the inverse produce 0, no new numbers can be generated after that i.","True? I can't figure out a way to prove it generally, but this sequence seems always to hit the inverse before the full sequence of numbers is generated; since x and the inverse produce 0, no new numbers can be generated after that it.","True? I can't figure out a way to prove it generally, but this sequence seems always to hit the inverse before the full sequence of numbers is generated; since x and the inverse produce 0, no new numbers can be generated after that iter.","True? I can't figure out a way to prove it generally, but this sequence seems always to hit the inverse before the full sequence of numbers is generated; since x and the inverse produce 0, no new numbers can be generated after that iterat.","True? I can't figure out a way to prove it generally, but this sequence seems always to hit the inverse before the full sequence of numbers is generated; since x and the i nverse p roduce 0, no new numbers can be generated after that iterati.","True? I can't figure out a way to prove it generally, but this sequence seems always to hit the inverse before the full sequence of numbers is generated; since x and the inverse produce 0, no new numbers can be generated after that iteration..","True? I can't figure out a way to prove it generally, but this sequence seems always to hit the inverse before the full sequence of numbers is generated; since x and the inverse produce 0, no new numbers can be generated after that iteration."],"rt":571805,"trial_type":"question","trial_index":0,"trial_index_global":69,"time_elapsed":3717347,"internal_chunk_id":"0-0.13-0"},{"question":"If an element x is a generator under +<sub>n</sub>, is its inverse a generator under +<sub>n</sub> always, sometimes, or never?","response_type":"multi","response_choices":["Always","Sometimes","Never"],"correct_response":"Always","response":"Sometimes","response_history":["Sometimes"],"rt":101460,"trial_type":"question","trial_index":0,"trial_index_global":70,"time_elapsed":3818820,"internal_chunk_id":"0-0.13-0"},{"q