[{"nsides":6,"instructions":"Let's define a new operation <img src=\"./images/hexagon_symbol.png\" style=\"width:14px;height:14px\">. This operation will give us a way of combining two of the numbers 0, 1, 2, 3, 4, 5 to get another one of them back. Consider the hexagon at the right, where I've labeled each point with one of the numbers. To perform <img src=\"./images/hexagon_symbol.png\" style=\"width:14px;height:14px\">, you can use the interactive diagram on the right, or perform the operation in your mind. or perform the operation in your mind. Point the arrow at the first number on the hexagon, then move the arrow the second number of points clockwise around the hexagon. The number the arrow arrives at is your result. (The operation is called <img src=\"./images/hexagon_symbol.png\" style=\"width:14px;height:14px\"> because it uses the hexagon, which has 6 sides.) <br /><br />For example, 3 <img src=\"./images/hexagon_symbol.png\" style=\"width:14px;height:14px\"> 5 = 2,  because  5 steps clockwise from 3 on the hexagon brings us to 2. So 3 <img src=\"./images/hexagon_symbol.png\" style=\"width:14px;height:14px\"> 5 = 2.<br /><br />Similarly, 1 <img src=\"./images/hexagon_symbol.png\" style=\"width:14px;height:14px\"> 4 = 5, because 4 steps clockwise from 1 brings us to 5. <br /><br />Click \"Continue\" when you are ready to move on.","orientation_history":[0],"rt":99147,"trial_type":"polygon-arrow-instructions","trial_index":0,"trial_index_global":1,"time_elapsed":121204,"internal_chunk_id":"0-0"},{"nsides":6,"question":"Now try one on your own! What is 4 <img src=\"./images/hexagon_symbol.png\" style=\"width:14px;height:14px\"> 5? <br /><br /> (Remember, to perform <img src=\"./images/hexagon_symbol.png\" style=\"width:14px;height:14px\">, you can use the interactive diagram on the right, or perform the operation in your mind. Point the arrow at the first number on the hexagon, then move the arrow the second number of points clockwise around the he xagon. T he number the arrow arrives at is your result.)","response_type":"free","response_choices":[],"correct_response":"3","response":"2","orientation_history":[[0],[0,0,0,0,0,0,0,0.019214190921481134,0.019214190921481134,-6.225137386301194,-6.225137386301194,-6.138758359168798,-5.999764054031534,-5.872674958300277,-5.872674958300277,-5.81233494158786,-5.650529013357964,-5.521763363756907,-5.400588731045227,-5.400588731045227,-5.246406204181553,-5.193092504610025,-5.193092504610025,-5.1528599889110875,-5.1528599889110875,-5.130018386713112,-5.130018386713112,-5.108616605512746,-5.066286534579017,-5.066286534579017,-5.066286534579017,-5.066286534579017,-5.066286534579017,-5.066286534579017,-5.066286534579017,-5.066286534579017,-5.066286534579017,-5.066286534579017,-5.066286534579017,-5.066286534579017,-5.066286534579017,-5.066286534579017,-5.066286534579017,-5.066286534579017,-5.066286534579017,-5.066286534579017,-5.066286534579017,-5.066286534579017,-5.066286534579017,-5.066286534579017,-5.066286534579017,-5.066286534579017,-5.066286534579017,-5.066286534579017,-5.066286534579017,-5.066286534579017,-5.066286534579017,-5.066286534579017,-5.066286534579017,-5.066286534579017,-5.066286534579017,-5.066286534579017,-5.066286534579017,-5.066286534579017,-5.066286534579017,-5.066286534579017,-5.066286534579017,-5.066286534579017,-5.066286534579017,-5.066286534579017,-5.066286534579017,-5.066286534579017,-5.066286534579017,-5.066286534579017,-5.066286534579017,-5.066286534579017,-5.066286534579017,-5.066286534579017,-5.066286534579017,-5.066286534579017,-5.066286534579017,-5.066286534579017,-5.066286534579017,-5.066286534579017,-5.066286534579017,-5.066286534579017,-5.066286534579017,-5.066286534579017,-5.060283605184816,-5.060283605184816,-5.060283605184816,-5.060283605184816,-5.060283605184816,-5.060283605184816,-5.060283605184816,-5.060283605184816,-5.045655340482087,-5.045655340482087,-5.04000290621092,-5.04000290621092,-5.04000290621092,-5.04000290621092,-5.04000290621092,-5.020082353932862,-5.020082353932862,-5.020082353932862,-5.00550055223944,-5.00550055223944,-4.985988511926035,-4.985988511926035,-4.985988511926035,-4.933576019771759,-4.933576019771759,-4.933576019771759,-4.933576019771759,-4.933576019771759,-4.918925053490366,-4.918925053490366,-4.918925053490366,-4.918925053490366,-4.900745238417388,-4.900745238417388,-4.886090143367977,-4.886090143367977,-4.886090143367977,-4.886090143367977,-4.886090143367977,-4.886090143367977,-4.871341950213382,-4.871341950213382,-4.856506243494408,-4.856506243494408,-4.856506243494408,-4.839095067778128,-4.839095067778128,-4.824317818370636,-4.824317818370636,-4.824317818370636,-4.824317818370636,-4.824317818370636,-4.824317818370636,-4.809474104349002,-4.809474104349002,-4.809474104349002,-4.809474104349002,-4.809474104349002,-4.779611972463357,-4.779611972463357,-4.779611972463357,-4.779611972463357,-4.779611972463357,-4.779611972463357,-4.764606277564247,-4.764606277564247,-4.764606277564247,-4.764606277564247,-4.764606277564247,-4.749559533600332,-4.749559533600332,-4.749559533600332,-4.749559533600332,-4.733577103494671,-4.733577103494671,-4.733577103494671,-4.733577103494671,-4.733577103494671,-4.718692621818117,-4.718692621818117,-4.718692621818117,-4.718692621818117,-4.718692621818117,-4.718692621818117,-4.718692621818117,-4.703788275030611,-4.703788275030611,-4.688870655353586,-4.6739463903635015,-4.6739463903635015,-4.6739463903635015,-4.6739463903635015,-4.6739463903635015,-4.6739463903635015,-4.644104505696392,-4.644104505696392,-4.644104505696392,-4.629200158908886,-4.62985733296543,-4.62985733296543,-4.615190567647779,-4.615190567647779,-4.60054906446189,-4.60054906446189,-4.60054906446189,-4.60054906446189,-4.60054906446189,-4.585939016835761,-4.585939016835761,-4.571366537945207,-4.571366537945207,-4.571366537945207,-4.556837645796637,-4.556837645796637,-4.542358248905581,-4.527934132652226,-4.513570946387551,-4.513570946387551,-4.513570946387551,-4.513570946387551,-4.513570946387551,-4.513570946387551,-4.513570946387551,-4.513570946387551,-4.499274191355262,-4.499274191355262,-4.499274191355262,-4.499274191355262,-4.470901173110036,-4.470901173110036,-4.470901173110036,-4.470901173110036,-4.470901173110036,-4.456835075628597,-4.456835075628597,-4.456835075628597,-4.442855723167605,-4.442855723167605,-4.442855723167605,-4.428967727236637,-4.428967727236637,-4.428967727236637,-4.428967727236637,-4.428967727236637,-4.428967727236637,-4.415175498399804,-4.415175498399804,-4.415175498399804,-4.415175498399804,-4.387894948646183,-4.387894948646183,-4.387894948646183,-4.387894948646183,-4.387894948646183,-4.387894948646183,-4.387894948646183,-4.374414401293579,-4.374414401293579,-4.374414401293579,-4.374414401293579,-4.3477905781200485,-4.3477905781200485,-4.3477905781200485,-4.3477905781200485,-4.3477905781200485,-4.352195835966859,-4.339209553046687,-4.339209553046687,-4.339209553046687,-4.3263395306076,-4.300958668563441,-4.288452523434172,-4.276072032746332,-4.26381904982201,-4.2397020695667,-4.2397020695667,-4.2397020695667,-4.2397020695667,-4.2397020695667,-4.2397020695667,-4.2397020695667,-4.2397020695667,-4.2397020695667,-4.227840841420098,-4.227840841420098,-4.227840841420098,-4.227840841420098,-4.216112669344537,-4.216112669344537,-4.204518498919033,-4.204518498919033,-4.204518498919033,-4.204518498919033,-4.204518498919033,-4.204518498919033,-4.204518498919033,-4.204518498919033,-4.204518498919033,-4.204518498919033,-4.204518498919033,-4.204518498919033,-4.204518498919033,-4.204518498919033,-4.204518498919033,-4.204518498919033,-4.204518498919033,-4.204518498919033,-4.204518498919033,-4.204518498919033,-4.204518498919033,-4.204518498919033,2.0943951023931953]],"response_history":["2"],"rt":36048,"trial_type":"polygon-arrow-question","trial_index":0,"trial_index_global":2,"time_elapsed":157258,"internal_chunk_id":"0-0.2-0"},{"nsides":6,"feedback":"Sorry, that was incorrect. 4 <img src=\"./images/hexagon_symbol.png\" style=\"width:14px;height:14px\"> 5 = 3 because 5 steps clockwise on the hexagon from 4 brings us to 3","orientation_history":[0],"rt":16481,"trial_type":"polygon-arrow-feedback","trial_index":0,"trial_index_global":3,"time_elapsed":173745,"internal_chunk_id":"0-0.2-0"},{"nsides":6,"question":"What is 3 <img src=\"./images/hexagon_symbol.png\" style=\"width:14px;height:14px\"> 2? <br /><br /> (Remember, to perform <img src=\"./images/hexagon_symbol.png\" style=\"width:14px;height:14px\">, you can use the interactive diagram on the right, or perform the operation in your mind. Point the arrow at the first number on the hexagon, then move the arrow the second number of points clockwise around the hexagon. The number the arrow arrives at is your result.)","response_type":"free","response_choices":[],"correct_response":"5","response":"5","orientation_history":[[0],[0,0,0,0,0,0,0,0,0,0,0,0,0,0,0,0,0,-6.265945635985057,-6.230872305451832,-6.212425367525742,-6.212425367525742,-6.212425367525742,-6.171884401357071,-6.134630197001969,-6.045116866255709,-5.7930390323221275,-5.736356037202981,-5.584647410697208,-5.451144184383604,-5.451144184383604,-5.31076919861927,-5.245535256866951,-5.0623231430083795,-5.0623231430083795,-4.93199807013708,-4.899167288782709,-4.8094036371516005,-4.8094036371516005,-4.726884682718619,-4.648308596274191,-4.527506871358945,-4.527506871358945,-4.439340744574789,-4.355052189680398,-4.262741533619622,-4.2376744612941355,-4.159338071229697,-4.085489442478079,-3.99880072842721,-3.9353865543143893,-3.9353865543143893,-3.868452327423106,-3.852901898459874,-3.813277370610125,-3.8061236857958405,-3.8061236857958405,-3.797324014962522,-3.7903222197743736,-3.7903222197743736,-3.7903222197743736,-3.7903222197743736,-3.7903222197743736,-3.7814279181069175,-3.7814279181069175,-3.763266967399151,-3.7090982684728253,-3.7090982684728253,-3.555926033618769,-3.555926033618769,-3.491526816213483,-3.4649692228135764,-3.4649692228135764,-3.3780270785339064,-3.2914547823263693,-3.2914547823263693,-3.2914547823263693,-3.2914547823263693,-3.2914547823263693,-3.2914547823263693,-3.2914547823263693,-3.2895016598098907,-3.264602592031869,-3.2028430850325957,-3.2028430850325957,-3.2028430850325957,-3.15804808974128,-3.1468211109810893,-3.1468211109810893,-3.1468211109810893,-3.1468211109810893,-3.1468211109810893,-3.1468211109810893,-3.1468211109810893,-3.1468211109810893,-3.1468211109810893,-3.1468211109810893,-3.1468211109810893,-3.1468211109810893,-3.1468211109810893,-3.1468211109810893,-3.1468211109810893,-3.1468211109810893,-3.1468211109810893,-3.1468211109810893,-3.1468211109810893,-3.1468211109810893,-3.1468211109810893,-3.1468211109810893,-3.1468211109810893,-3.1468211109810893,-3.1468211109810893,-3.1468211109810893,-3.1468211109810893,-3.1468211109810893,-3.1468211109810893,-3.1468211109810893,-3.1468211109810893,-3.1468211109810893,-3.1468211109810893,-3.1468211109810893,-3.1468211109810893,-3.1468211109810893,-3.1468211109810893,-3.1468211109810893,-3.1468211109810893,-3.1468211109810893,-3.1468211109810893,-3.1468211109810893,-3.1468211109810893,-3.1468211109810893,-3.1468211109810893,-3.1468211109810893,-3.1468211109810893,-3.1468211109810893,-3.1468211109810893,-3.1468211109810893,-3.1468211109810893,-3.1468211109810893,-3.1468211109810893,-3.1468211109810893,-3.1468211109810893,-3.1468211109810893,-3.1468211109810893,-3.1468211109810893,-3.1468211109810893,-3.1468211109810893,-3.1468211109810893,-3.1468211109810893,-3.1468211109810893,-3.1468211109810893,-3.1468211109810893,-3.1468211109810893,-3.1468211109810893,-3.1468211109810893,-3.1468211109810893,-3.1468211109810893,-3.1468211109810893,-3.1131175001373013,-3.1131175001373013,-3.1018848538094383,-3.0906578750492475,-3.0906578750492475,-3.0906578750492475,-3.0906578750492475,-3.0906578750492475,-3.0906578750492475,-3.0906578750492475,-3.0906578750492475,-3.0906578750492475,-3.0906578750492475,-3.0906578750492475,-3.0906578750492475,-3.0906578750492475,-3.0906578750492475,-3.0906578750492475,-3.0794393869254746,-3.0794393869254746,-3.0794393869254746,-3.0794393869254746,-3.0794393869254746,-3.0794393869254746,-3.0794393869254746,-3.0794393869254746,-3.0794393869254746,-3.0794393869254746,-3.0794393869254746,-3.0794393869254746,-3.0794393869254746,-3.0794393869254746,-3.0794393869254746,-3.1018848538094383,-3.1018848538094383,-3.1018848538094383,-3.1018848538094383,-3.1018848538094383,-3.1021344170685445,-3.1132423284976563,-3.1132423284976563,-3.1132423284976563,-3.1132423284976563,-3.1132423284976563,-3.1132423284976563,-3.1132423284976563,-3.1132423284976563,-3.1132423284976563,-3.1132423284976563,-3.1132423284976563,-3.1132423284976563,-3.1132423284976563,-3.1132423284976563,-3.1132423284976563,-3.1132423284976563,-3.1132423284976563,-3.1132423284976563,-3.1132423284976563,-3.1132423284976563,-3.1132423284976563,-3.1132423284976563,-3.1132423284976563,-3.1132423284976563,-3.1132423284976563,-3.1132423284976563,-3.1132423284976563,-3.1132423284976563,-3.1132423284976563,-3.1132423284976563,-3.1132423284976563,-3.1132423284976563,-3.1132423284976563,-3.1132423284976563,-3.1132423284976563,-3.1132423284976563,-3.1132423284976563,-3.1132423284976563,-3.1132423284976563,-2.838890122128519,-2.7703555455633677,-2.738175588573068,-2.7061286528160347,-2.696888669380038,-2.6742792003128266,-2.616290158147547,-2.616290158147547,-2.5636659874124583,-2.5417999161819087,-2.4847657479419296,-2.420962264524001,-2.3522873622919613,-2.3522873622919613,-2.3323323992551477,-2.274110791444609,-2.274110791444609,-2.274110791444609,-2.261189879395083,-2.261189879395083,-2.261189879395083,-2.261189879395083,-2.261189879395083,-2.261189879395083,-2.261189879395083,-2.261189879395083,-2.261189879395083,-2.261189879395083,-2.261189879395083,-2.24829493179707,-2.24829493179707,-2.24829493179707,-2.2154043295067716,-2.2154043295067716,-2.1544120218072003,-2.141559259147934,-2.1209966050582167,-2.0923761572362825,-2.0923761572362825,-1.991893215458325,-1.9833189346970554,-1.9200534414516248,-1.9200534414516248,-1.8753072099970094,-1.785173085103235,-1.7261346168325744,-1.6878780975533356,-1.6602923282495023,-1.6418222935851752,-1.6061397172113088,-1.579637696891119,-1.5449361794882313,-1.536464303202651,-1.5023194881969486,-1.5023194881969486,-1.4606049465909514,-1.4522101523346995,-1.4271161583419776,-1.402181211866341,-1.3856607323499928,-1.3610550207903884,-1.3447794734183027,-1.3447794734183027,-1.3286153905491966,-1.2966501287569319,-1.2966501287569319,-1.2887393256945785,-1.2730198638620456,-1.234350624974205,-1.2191485493696739,-1.2191485493696739,-1.2191485493696739,-1.2116068286226573,-1.2041053800125532,-1.2041053800125532,-1.2041053800125532,-1.2041053800125532,-1.2041053800125532,-1.2041053800125532,-1.2041053800125532,-1.2041053800125532,-1.2041053800125532,-1.2041053800125532,-1.2041053800125532,-1.2041053800125532,-1.196644719248697,-1.193849656015411,-1.1834976595626499,-1.1834976595626499,-1.1730502784880024,-1.1593940713300928,-1.1593940713300928,-1.101402793314592,-1.0938000775462058,-1.057791580495926,-1.0411671952896295,-1.0241603308785052,-1.014737153964452,-1.0019016730718207,-1.0019016730718207,-0.9655540520528003,-0.9602065094436494,-0.9333071696175459,-0.9218660212613976,-0.8881467022792737,-0.8881467022792737,-0.874142850192519,-0.8536637858811238,-0.8260646974510264,-0.7900528033256968,-0.7900528033256968,-0.768158492202919,-0.738755203998914,-0.7085277790717495,-0.7085277790717495,-0.5460765902974387,-0.5460765902974387,-0.5212677855170433,-0.5116418795585957,-0.4514583999153494,-0.4159604972371058,-0.4159604972371058,-0.3951707704028582,-0.3590023394428439,-0.34827853499736783,-0.34827853499736783,-0.264239627333513,-0.21650350967437237,-0.21650350967437237,-0.18015588865535115,-0.15544182042347643,-0.13278728558957908,-0.13278728558957908,-0.12140006593962838,-0.12140006593962838,-0.12140006593962838,-0.08703194073312659,-0.08703194073312659,-0.08703194073312659,-0.08703194073312659,-0.07445648506533331,-0.07445648506533331,-0.05161681810651508,-0.028704984613590057,-0.028704984613590057,-0.005744786246922651,-0.005744786246922651,-0.005744786246922651,-0.005744786246922651,0.005745924479498399,-6.265945635985057,-6.242961178543605,-6.197089146684013,-6.140176215224529,-6.140176215224529,-6.104570525564366,-6.104570525564366,-6.082002179447882,-6.037448996693195,-5.990756386855885,-5.9514413315683115,-5.919110738404049,-5.862526602685245,-5.812347939877285,-5.812347939877285,-5.812347939877285,-5.797247564875178,-5.767486225518378,-5.757773018149727,-5.757773018149727,-5.717921719560779,-5.717921719560779,-5.699216418461551,-5.699216418461551,-5.665895422583303,-5.60300853000495,-5.564320416331375,-5.564320416331375,-5.525970752009186,-5.495471737577693,-5.450705587920499,-5.4139793088117845,-5.392540099059868,-5.392540099059868,-5.371492814144371,-5.365120812220684,-5.344698731325817,-5.336622023199393,-5.31076919861927,-5.31076919861927,-5.302593907177808,-5.269454139364862,-5.269454139364862,-5.264132467299504,-5.2322575632845405,-5.2322575632845405,-5.2322575632845405,-5.223922081525353,-5.223922081525353,-5.202247813582497,-5.202247813582497,-5.180532625032759,-5.1587969181909665,-5.15006351578254,-5.110376644745392,-5.060896610452505,-5.010570834170601,-4.96931676030982,-4.940127972317025,-4.890540863706733,-4.828376060830539,-4.736363071848481,-4.736363071848481,-4.705458222336404,-4.684840396043917,-4.674533673564556,-4.6231092438033325,-4.602630688070514,-4.592419441771491,-4.2676849961749355,-4.2676849961749355,-4.2224521734755704,-4.182214295196504,-4.182214295196504,-4.173531012093774,-4.173531012093774,-4.173531012093774,-4.151316852888038,-4.126166151080817,-4.117957095316699,-4.117957095316699,-4.117957095316699,-4.117957095316699,-4.117957095316699,-4.109834871210481,-4.109834871210481,-4.109834871210481,-4.109834871210481,-4.109834871210481,-4.109834871210481,-4.109834871210481,-4.109834871210481,-4.109834871210481,-4.109834871210481,-4.109834871210481,-4.109834871210481,-4.109834871210481,2.0943951023931953]],"response_history":["5"],"rt":21207,"trial_type":"polygon-arrow-question","trial_index":0,"trial_index_global":4,"time_elapsed":194957,"internal_chunk_id":"0-0.2-0"},{"nsides":6,"feedback":"Correct! 3 <img src=\"./images/hexagon_symbol.png\" style=\"width:14px;height:14px\"> 2 = 5 because 2 steps clockwise on the hexagon from 3 brings us to 5","orientation_history":[0],"rt":3068,"trial_type":"polygon-arrow-feedback","trial_index":0,"trial_index_global":5,"time_elapsed":198029,"internal_chunk_id":"0-0.2-0"},{"nsides":6,"question":"What is 1 <img src=\"./images/hexagon_symbol.png\" style=\"width:14px;height:14px\"> 5? <br /><br /> (Remember, to perform <img src=\"./images/hexagon_symbol.png\" style=\"width:14px;height:14px\">, you can use the interactive diagram on the right, or perform the operation in your mind. Point the arrow at the first number on the hexa gon, the n move the arrow the second number of points clockwise around the hexagon. The number the arrow arrives at is your result.)","response_type":"free","response_choices":[],"correct_response":"0","response":"4","orientation_history":[[0],[0,0,0,0,0,0,0,0,0,0,0.07796663383154234,0.2717921586746994,0.2717921586746994,0.2717921586746994,0.32175055439664213,0.37170895011858485,0.37170895011858485,0.4423742229767449,0.505581054874205,0.505581054874205,0.5456550545269916,0.5880026035475675,0.625485040239229,0.625485040239229,0.6909432280024016,0.6909432280024016,0.702256931509007,0.724250000748147,0.7551044034786731,0.7551044034786731,0.7551044034786731,0.7752974968121263,0.7752974968121263,0.7752974968121263,0.7752974968121263,0.7752974968121263,0.7752974968121263,0.7752974968121263,0.7752974968121263,0.8058034940839863,0.8058034940839863,0.8156919233162233,0.8559877532163218,0.8760580505981934,0.8760580505981934,0.8850668158886102,0.8850668158886102,0.8960553845713439,0.8960553845713439,0.8960553845713439,0.8960553845713439,0.8960553845713439,0.8960553845713439,0.8960553845713439,0.8960553845713439,0.8960553845713439,0.8960553845713439,0.8960553845713439,0.9328353275253862,0.9328353275253862,0.9328353275253862,0.9328353275253862,0.9328353275253862,0.9328353275253862,0.9521519758701494,0.9521519758701494,0.960070362405688,0.960070362405688,0.960070362405688,0.960070362405688,0.960070362405688,0.960070362405688,0.960070362405688,0.960070362405688,0.960070362405688,0.960070362405688,0.960070362405688,0.960070362405688,0.9678135704799591,0.9678135704799591,0.9678135704799591,0.9678135704799591,0.9678135704799591,0.9678135704799591,0.9678135704799591,0.9790201562533937,0.9790201562533937,0.9978301839061904,0.9978301839061904,1.0164888305933455,1.0636978224025597,1.0947269964721353,1.1441688336680205,1.1441688336680205,1.1824776086224307,1.2087089191011682,1.2490457723982544,1.2535300472730704,1.2807093944738686,1.3363806510710858,1.424784069083621,1.424784069083621,1.468216474376602,1.599773720646458,1.7429871413178355,1.7429871413178355,1.8123620338902224,1.8123620338902224,1.9311542973196896,1.9311542973196896,1.9809236673363875,2.0516836069902324,2.0516836069902324,2.0852476398539244,2.1069423488071313,2.1280918619124023,2.1755758796080773,2.195206676421537,2.195206676421537,2.195206676421537,2.195206676421537,2.195206676421537,2.195206676421537,2.195206676421537,2.2048190464583186,2.2048190464583186,2.2048190464583186,2.2048190464583186,2.2048190464583186,2.2048190464583186,2.2048190464583186,2.221423205714614,2.245537269018449,2.245537269018449,2.313485434427341,2.3996453855838755,2.459276098715045,2.459276098715045,2.519932731306704,2.6403283887182107,2.710019602366288,2.710019602366288,2.7367008673047097,2.7367008673047097,2.7367008673047097,2.7367008673047097,2.7367008673047097,2.7477240428534317,2.7477240428534317,2.774418819771574,2.774418819771574,2.8794728123243205,2.9329108912547666,2.9329108912547666,3.0172376590430314,3.0172376590430314,3.0860941483440762,3.097664886512903,3.097664886512903,3.097664886512903,3.097664886512903,3.097664886512903,3.108637555975495,3.108637555975495,3.108637555975495,3.108637555975495,3.1196181692931306,3.1198569467480004,3.1198569467480004,3.1198569467480004,3.1198569467480004,3.1198569467480004,3.1198569467480004,3.130723516412523,3.130723516412523,3.141592653589793,3.1741897987077463,3.1741897987077463,3.281967639354127,3.281967639354127,3.3556533371536146,3.437033490733513,3.437033490733513,3.5568199891450245,3.5746820923131,3.61371463599357,3.61371463599357,3.6549917046731126,3.6944338751823325,3.717219651350159,3.717219651350159,3.737002529068526,3.7638955247770007,3.7762444358668197,3.783333200821797,3.783333200821797,3.7956753780041534,3.7956753780041534,3.821790567566689,3.8340912918738272,3.9149432071330557,3.921002864603328,3.921002864603328,3.944740432043739,3.956567987992485,3.9795738785981833,3.9795738785981833,4.0028682541127285,4.008207123437979,4.014486157789633,4.014486157789633,4.014486157789633,4.031262428914896,4.031262428914896,4.031262428914896,4.059163704849152,4.064056991297429,4.064056991297429,4.064056991297429,4.070505993156498,4.423208358000176,4.534598751392014,4.573749243250532,4.620342131521284,4.666965700963113,4.666965700963113,4.682322855335645,4.727313245374774,4.74940909625862,4.7997572402371995,4.841168724815763,4.854286034988854,4.8890978364547255,4.8890978364547255,4.894737796270655,4.9205949299086775,4.9205949299086775,4.9879539151224535,5.017612114178611,5.017612114178611,5.050267168624968,5.056268718628131,5.081348526590546,5.104336505853203,5.118878209400432,5.118878209400432,5.118878209400432,5.118878209400432,5.118878209400432,5.118878209400432,5.118878209400432,5.118878209400432,5.118878209400432,5.118878209400432,5.118878209400432,5.118878209400432,5.118878209400432,5.118878209400432,5.118878209400432,5.118878209400432,5.118878209400432,5.118878209400432,5.118878209400432,5.118878209400432,5.118878209400432,5.118878209400432,5.118878209400432,5.118878209400432,5.118878209400432,5.118878209400432,5.118878209400432,5.118878209400432,5.118878209400432,5.118878209400432,5.118878209400432,5.118878209400432,5.118878209400432,5.118878209400432,5.118878209400432,5.118878209400432,5.118878209400432,5.118878209400432,5.118878209400432,5.118878209400432,5.118878209400432,5.118878209400432,5.118878209400432,5.118878209400432,5.118878209400432,5.118878209400432,5.118878209400432,5.118878209400432,5.118878209400432,5.118878209400432,5.118878209400432,5.118878209400432,5.118878209400432,5.118878209400432,5.118878209400432,5.118878209400432,5.118878209400432,5.118878209400432,5.118878209400432,5.118878209400432,5.118878209400432,5.118878209400432,5.118878209400432,5.118878209400432,5.118878209400432,5.118878209400432,5.118878209400432,5.118878209400432,5.118878209400432,5.118878209400432,5.118878209400432,5.118878209400432,5.118878209400432,5.118878209400432,5.118878209400432,5.118878209400432,5.118878209400432,5.118878209400432,5.118878209400432,5.118878209400432,5.118878209400432,5.118878209400432,5.118878209400432,5.118878209400432,5.118878209400432,5.118878209400432,5.118878209400432,5.118878209400432,5.118878209400432,5.118878209400432,5.118878209400432,5.118878209400432,5.118878209400432,5.118878209400432,5.118878209400432,5.118878209400432,5.118878209400432,5.118878209400432,5.118878209400432,5.118878209400432,5.118878209400432,5.118878209400432,5.118878209400432,5.118878209400432,5.118878209400432,5.118878209400432,5.118878209400432,5.118878209400432,5.118878209400432,5.118878209400432,5.118878209400432,5.118878209400432,5.118878209400432,5.118878209400432,5.118878209400432,5.118878209400432,5.118878209400432,5.118878209400432,5.118878209400432,5.118878209400432,5.118878209400432,5.118878209400432,5.118878209400432,5.118878209400432,5.118878209400432,5.118878209400432,5.118878209400432,5.118878209400432,5.118878209400432,5.118878209400432,5.118878209400432,5.118878209400432,5.118878209400432,5.118878209400432,5.118878209400432,5.118878209400432,5.118878209400432,5.118878209400432,5.118878209400432,5.118878209400432,5.118878209400432,5.118878209400432,5.118878209400432,5.118878209400432,5.118878209400432,5.118878209400432,5.118878209400432,5.118878209400432,5.118878209400432,5.118878209400432,5.118878209400432,5.118878209400432,5.118878209400432,5.118878209400432,5.118878209400432,5.118878209400432,5.118878209400432,5.118878209400432,5.118878209400432,5.118878209400432,5.118878209400432,5.118878209400432,5.118878209400432,5.118878209400432,5.118878209400432,5.118878209400432,5.118878209400432,5.118878209400432,5.118878209400432,5.118878209400432,5.118878209400432,5.118878209400432,5.118878209400432,5.118878209400432,5.118878209400432,5.118878209400432,5.118878209400432,5.118878209400432,5.118878209400432,5.118878209400432,5.118878209400432,5.118878209400432,5.118878209400432,5.118878209400432,5.118878209400432,5.118878209400432,5.118878209400432,5.118878209400432,5.118878209400432,5.118878209400432,5.118878209400432,5.118878209400432,5.118878209400432,5.118878209400432,5.118878209400432,5.118878209400432,5.118878209400432,5.118878209400432,5.118878209400432,5.118878209400432,5.118878209400432,5.118878209400432,5.118878209400432,5.118878209400432,5.118878209400432,5.118878209400432,5.118878209400432,5.118878209400432,5.118878209400432,5.118878209400432,5.118878209400432,5.118878209400432,5.118878209400432,5.118878209400432,5.118878209400432,5.118878209400432,5.118878209400432,5.118878209400432,5.118878209400432,5.118878209400432,5.118878209400432,5.118878209400432,5.118878209400432,5.118878209400432,5.118878209400432,5.118878209400432,5.118878209400432,5.118878209400432,5.118878209400432,5.118878209400432,5.118878209400432,5.118878209400432,5.118878209400432,5.118878209400432,5.118878209400432,5.118878209400432,5.118878209400432,5.118878209400432,5.118878209400432,5.118878209400432,5.118878209400432,5.118878209400432,5.118878209400432,5.118878209400432,5.118878209400432,5.118878209400432,5.118878209400432,5.118878209400432,5.118878209400432,5.118878209400432,5.118878209400432,5.118878209400432,5.118878209400432,5.118878209400432,5.118878209400432,5.118878209400432,5.118878209400432,5.118878209400432,5.118878209400432,5.118878209400432,5.118878209400432,5.118878209400432,5.118878209400432,5.118878209400432,5.118878209400432,5.118878209400432,5.118878209400432,5.118878209400432,5.118878209400432,5.118878209400432,5.118878209400432,5.118878209400432,5.118878209400432,5.118878209400432,5.118878209400432,5.118878209400432,5.118878209400432,5.118878209400432,5.118878209400432,5.118878209400432,5.118878209400432,5.118878209400432,5.118878209400432,5.118878209400432,5.118878209400432,5.118878209400432,5.118878209400432,5.118878209400432,5.118878209400432,5.118878209400432,5.118878209400432,5.118878209400432,5.118878209400432,5.118878209400432,5.118878209400432,5.118878209400432,5.118878209400432,5.118878209400432,5.118878209400432,5.118878209400432,5.118878209400432,5.118878209400432,5.118878209400432,5.118878209400432,5.118878209400432,5.118878209400432,5.118878209400432,5.118878209400432,5.118878209400432,5.118878209400432,5.118878209400432,5.118878209400432,5.118878209400432,5.118878209400432,5.118878209400432,5.118878209400432,5.118878209400432,5.118878209400432,5.118878209400432,5.118878209400432,5.118878209400432,5.118878209400432,5.118878209400432,5.118878209400432,5.118878209400432,5.118878209400432,5.118878209400432,5.118878209400432,5.118878209400432,5.118878209400432,5.118878209400432,5.118878209400432,5.118878209400432,5.118878209400432,5.118878209400432,5.118878209400432,5.118878209400432,5.118878209400432,5.118878209400432,5.118878209400432,5.118878209400432,5.118878209400432,5.118878209400432,5.118878209400432,5.118878209400432,5.118878209400432,5.118878209400432,5.118878209400432,5.118878209400432,5.118878209400432,5.118878209400432,5.118878209400432,5.118878209400432,5.118878209400432,5.118878209400432,5.118878209400432,5.118878209400432,5.118878209400432,5.118878209400432,5.118878209400432,5.118878209400432,5.118878209400432,5.118878209400432,5.118878209400432,5.118878209400432,5.118878209400432,5.118878209400432,5.118878209400432,5.118878209400432,5.118878209400432,5.118878209400432,5.118878209400432,5.118878209400432,5.118878209400432,5.118878209400432,5.118878209400432,5.118878209400432,5.118878209400432,5.118878209400432,5.118878209400432,5.118878209400432,5.118878209400432,5.118878209400432,5.118878209400432,5.118878209400432,5.118878209400432,5.118878209400432,5.118878209400432,5.118878209400432,5.118878209400432,5.118878209400432,5.118878209400432,5.118878209400432,5.118878209400432,5.118878209400432,5.118878209400432,5.118878209400432,5.118878209400432,5.118878209400432,5.118878209400432,5.118878209400432,5.118878209400432,5.118878209400432,5.118878209400432,5.118878209400432,5.118878209400432,5.118878209400432,5.118878209400432,5.118878209400432,5.118878209400432,5.118878209400432,5.118878209400432,5.118878209400432,5.118878209400432,5.118878209400432,5.118878209400432,5.118878209400432,5.118878209400432,5.118878209400432,5.118878209400432,5.118878209400432,5.118878209400432,5.118878209400432,5.118878209400432,5.118878209400432,5.118878209400432,5.118878209400432,5.118878209400432,5.118878209400432,5.118878209400432,5.118878209400432,5.118878209400432,5.118878209400432,5.118878209400432,5.118878209400432,5.118878209400432,5.118878209400432,5.118878209400432,5.118878209400432,5.118878209400432,5.118878209400432,5.118878209400432,5.118878209400432,5.118878209400432,5.118878209400432,5.118878209400432,5.118878209400432,5.118878209400432,5.118878209400432,5.118878209400432,5.118878209400432,5.118878209400432,5.118878209400432,5.118878209400432,5.118878209400432,5.118878209400432,5.118878209400432,5.118878209400432,5.118878209400432,5.118878209400432,5.118878209400432,5.118878209400432,5.118878209400432,5.118878209400432,5.118878209400432,5.118878209400432,5.118878209400432,5.118878209400432,5.118878209400432,5.118878209400432,5.118878209400432,5.118878209400432,5.118878209400432,5.118878209400432,5.118878209400432,5.118878209400432,5.118878209400432,5.118878209400432,5.118878209400432,5.118878209400432,5.118878209400432,5.118878209400432,5.118878209400432,5.118878209400432,5.118878209400432,5.118878209400432,5.118878209400432,5.118878209400432,5.118878209400432,5.118878209400432,5.118878209400432,5.118878209400432,5.118878209400432,5.118878209400432,5.118878209400432,5.118878209400432,5.118878209400432,5.118878209400432,5.118878209400432,5.118878209400432,5.118878209400432,5.118878209400432,5.118878209400432,5.118878209400432,5.118878209400432,5.118878209400432,5.118878209400432,5.118878209400432,5.118878209400432,5.118878209400432,5.118878209400432,5.118878209400432,5.118878209400432,5.118878209400432,5.118878209400432,5.118878209400432,5.118878209400432,5.118878209400432,5.118878209400432,5.118878209400432,5.118878209400432,5.118878209400432,5.118878209400432,5.118878209400432,5.118878209400432,5.118878209400432,5.118878209400432,5.118878209400432,5.118878209400432,5.118878209400432,5.118878209400432,5.118878209400432,5.118878209400432,5.118878209400432,5.118878209400432,5.118878209400432,5.118878209400432,5.118878209400432,5.118878209400432,5.118878209400432,5.118878209400432,5.118878209400432,5.118878209400432,5.118878209400432,5.118878209400432,5.118878209400432,5.118878209400432,5.118878209400432,5.118878209400432,5.118878209400432,5.118878209400432,5.118878209400432,5.118878209400432,5.118878209400432,5.118878209400432,5.118878209400432,5.118878209400432,5.118878209400432,5.118878209400432,5.118878209400432,5.118878209400432,5.118878209400432,5.118878209400432,5.118878209400432,5.118878209400432,5.118878209400432,5.118878209400432,5.118878209400432,5.118878209400432,5.118878209400432,5.118878209400432,5.118878209400432,5.118878209400432,5.118878209400432,5.118878209400432,5.118878209400432,5.118878209400432,5.118878209400432,5.118878209400432,5.118878209400432,5.118878209400432,5.118878209400432,5.118878209400432,5.118878209400432,5.118878209400432,5.118878209400432,5.118878209400432,5.118878209400432,5.118878209400432,5.118878209400432,5.118878209400432,5.118878209400432,5.118878209400432,5.118878209400432,5.118878209400432,5.118878209400432,5.118878209400432,5.118878209400432,5.118878209400432,5.118878209400432,5.118878209400432,5.118878209400432,5.118878209400432,5.118878209400432,5.118878209400432,5.118878209400432,5.118878209400432,5.118878209400432,5.118878209400432,5.118878209400432,5.118878209400432,5.118878209400432,5.118878209400432,5.118878209400432,5.118878209400432,5.118878209400432,5.118878209400432,5.118878209400432,5.118878209400432,5.118878209400432,5.118878209400432,5.118878209400432,5.118878209400432,5.118878209400432,5.118878209400432,5.118878209400432,5.118878209400432,5.118878209400432,5.118878209400432,5.118878209400432,5.118878209400432,5.118878209400432,5.118878209400432,5.118878209400432,5.118878209400432,5.118878209400432,5.118878209400432,5.118878209400432,5.118878209400432,5.118878209400432,5.118878209400432,5.118878209400432,5.118878209400432,5.118878209400432,5.118878209400432,5.118878209400432,5.118878209400432,5.118878209400432,5.118878209400432,5.118878209400432,5.118878209400432,5.118878209400432,5.118878209400432,5.118878209400432,5.118878209400432,5.118878209400432,5.118878209400432,5.118878209400432,5.118878209400432,5.118878209400432,5.118878209400432,5.118878209400432,5.118878209400432,5.118878209400432,5.118878209400432,5.118878209400432,5.118878209400432,5.118878209400432,5.118878209400432,5.118878209400432,5.118878209400432,5.118878209400432,5.118878209400432,5.118878209400432,5.118878209400432,5.118878209400432,5.118878209400432,5.118878209400432,5.118878209400432,5.118878209400432,5.118878209400432,5.118878209400432,5.118878209400432,5.118878209400432,5.118878209400432,5.118878209400432,5.118878209400432,5.118878209400432,5.118878209400432,5.118878209400432,5.118878209400432,5.118878209400432,5.118878209400432,5.118878209400432,5.118878209400432,5.118878209400432,5.118878209400432,5.118878209400432,5.118878209400432,5.118878209400432,5.118878209400432,5.118878209400432,5.118878209400432,5.118878209400432,5.118878209400432,5.118878209400432,5.118878209400432,5.118878209400432,5.118878209400432,5.118878209400432,5.118878209400432,5.118878209400432,5.118878209400432,5.118878209400432,5.118878209400432,5.118878209400432,5.118878209400432,5.118878209400432,5.118878209400432,5.118878209400432,5.118878209400432,5.118878209400432,5.118878209400432,5.118878209400432,5.118878209400432,5.118878209400432,5.118878209400432,5.118878209400432,5.118878209400432,5.118878209400432,5.118878209400432,5.118878209400432,5.118878209400432,5.118878209400432,5.118878209400432,5.118878209400432,5.118878209400432,5.118878209400432,5.118878209400432,5.118878209400432,5.118878209400432,5.118878209400432,5.118878209400432,5.118878209400432,5.118878209400432,5.118878209400432,5.118878209400432,5.118878209400432,5.118878209400432,5.118878209400432,5.118878209400432,5.118878209400432,5.118878209400432,5.118878209400432,5.118878209400432,5.118878209400432,5.118878209400432,5.118878209400432,5.118878209400432,5.118878209400432,5.118878209400432,5.118878209400432,5.118878209400432,5.118878209400432,5.118878209400432,5.118878209400432,5.118878209400432,5.118878209400432,5.118878209400432,5.118878209400432,5.118878209400432,5.118878209400432,5.118878209400432,5.118878209400432,5.118878209400432,5.118878209400432,5.118878209400432,5.118878209400432,5.118878209400432,5.118878209400432,5.118878209400432,5.118878209400432,5.118878209400432,5.118878209400432,5.118878209400432,5.118878209400432,5.118878209400432,5.118878209400432,5.118878209400432,5.118878209400432,5.118878209400432,5.118878209400432,5.118878209400432,5.118878209400432,5.118878209400432,5.118878209400432,5.118878209400432,5.118878209400432,5.118878209400432,5.118878209400432,5.118878209400432,5.118878209400432,5.118878209400432,5.118878209400432,5.118878209400432,5.118878209400432,5.118878209400432,5.118878209400432,5.118878209400432,5.118878209400432,5.118878209400432,5.118878209400432,5.118878209400432,5.118878209400432,5.118878209400432,5.118878209400432,5.118878209400432,5.118878209400432,5.118878209400432,5.118878209400432,5.118878209400432,5.118878209400432,5.118878209400432,5.118878209400432,5.118878209400432,5.118878209400432,5.118878209400432,5.118878209400432,5.118878209400432,5.118878209400432,5.118878209400432,5.118878209400432,5.118878209400432,5.118878209400432,5.118878209400432,5.118878209400432,5.118878209400432,5.118878209400432,5.118878209400432,5.118878209400432,5.118878209400432,5.118878209400432,5.118878209400432,5.118878209400432,5.118878209400432,5.118878209400432,5.118878209400432,5.118878209400432,5.118878209400432,5.118878209400432,5.118878209400432,5.118878209400432,5.118878209400432,5.118878209400432,5.118878209400432,5.118878209400432,5.118878209400432,5.118878209400432,5.118878209400432,5.118878209400432,5.118878209400432,5.118878209400432,5.118878209400432,5.118878209400432,5.118878209400432,5.118878209400432,5.118878209400432,5.118878209400432,5.118878209400432,5.118878209400432,5.118878209400432,5.118878209400432,5.118878209400432,5.118878209400432,5.118878209400432,5.118878209400432,5.118878209400432,5.118878209400432,5.118878209400432,5.118878209400432,5.118878209400432,5.118878209400432,5.118878209400432,5.118878209400432,5.118878209400432,5.118878209400432,5.118878209400432,5.118878209400432,5.118878209400432,5.118878209400432,5.118878209400432,5.118878209400432,5.118878209400432,5.118878209400432,5.118878209400432,5.118878209400432,5.118878209400432,5.118878209400432,5.118878209400432,5.118878209400432,5.118878209400432,5.118878209400432,5.118878209400432,5.118878209400432,5.118878209400432,5.118878209400432,5.118878209400432,5.118878209400432,5.118878209400432,5.118878209400432,5.118878209400432,5.118878209400432,5.118878209400432,5.118878209400432,5.118878209400432,5.118878209400432,5.118878209400432,5.118878209400432,5.118878209400432,5.118878209400432,5.118878209400432,5.118878209400432,5.118878209400432,5.118878209400432,5.118878209400432,5.118878209400432,5.118878209400432,5.118878209400432,5.118878209400432,5.118878209400432,5.118878209400432,5.118878209400432,5.118878209400432,5.118878209400432,5.118878209400432,5.118878209400432,5.118878209400432,5.118878209400432,5.118878209400432,5.118878209400432,5.118878209400432,5.118878209400432,5.118878209400432,5.118878209400432,5.118878209400432,5.118878209400432,5.118878209400432,5.118878209400432,5.118878209400432,5.118878209400432,5.118878209400432,5.118878209400432,5.118878209400432,5.118878209400432,5.118878209400432,5.118878209400432,5.118878209400432,5.118878209400432,5.118878209400432,5.118878209400432,5.118878209400432,5.118878209400432,5.118878209400432,5.118878209400432,5.118878209400432,5.118878209400432,5.118878209400432,5.118878209400432,5.118878209400432,5.118878209400432,5.118878209400432,5.118878209400432,5.118878209400432,5.118878209400432,5.118878209400432,5.118878209400432,5.118878209400432,5.118878209400432,5.118878209400432,5.118878209400432,5.118878209400432,5.118878209400432,5.118878209400432,5.118878209400432,5.118878209400432,5.118878209400432,5.118878209400432,5.118878209400432,5.118878209400432,5.118878209400432,5.118878209400432,5.118878209400432,5.118878209400432,5.118878209400432,5.118878209400432,5.118878209400432,5.118878209400432,5.118878209400432,5.118878209400432,5.118878209400432,5.118878209400432,5.118878209400432,5.118878209400432,5.118878209400432,5.118878209400432,5.118878209400432,5.118878209400432,5.118878209400432,5.118878209400432,5.118878209400432,5.118878209400432,5.118878209400432,5.118878209400432,5.118878209400432,5.118878209400432,5.118878209400432,5.118878209400432,5.118878209400432,5.118878209400432,5.118878209400432,5.118878209400432,5.118878209400432,5.118878209400432,5.118878209400432,5.118878209400432,5.118878209400432,5.118878209400432,5.118878209400432,5.118878209400432,5.118878209400432,5.118878209400432,5.118878209400432,5.118878209400432,5.118878209400432,5.118878209400432,5.118878209400432,5.118878209400432,5.118878209400432,5.118878209400432,5.118878209400432,5.118878209400432,5.118878209400432,5.118878209400432,5.118878209400432,5.118878209400432,5.118878209400432,5.118878209400432,5.118878209400432,5.118878209400432,5.118878209400432,5.118878209400432,5.118878209400432,5.118878209400432,5.118878209400432,5.118878209400432,5.118878209400432,5.118878209400432,5.118878209400432,5.118878209400432,5.118878209400432,5.118878209400432,5.118878209400432,5.118878209400432,5.118878209400432,5.118878209400432,5.118878209400432,5.118878209400432,5.118878209400432,5.118878209400432,5.118878209400432,5.118878209400432,5.118878209400432,5.118878209400432,5.118878209400432,5.118878209400432,5.118878209400432,5.118878209400432,5.118878209400432,5.118878209400432,5.118878209400432,5.118878209400432,5.118878209400432,5.118878209400432,5.118878209400432,5.118878209400432,5.118878209400432,5.118878209400432,5.118878209400432,5.118878209400432,5.118878209400432,5.118878209400432,5.118878209400432,5.118878209400432,5.118878209400432,5.118878209400432,5.118878209400432,5.118878209400432,5.118878209400432,5.118878209400432,5.118878209400432,5.118878209400432,5.118878209400432,5.118878209400432,5.118878209400432,5.118878209400432,5.118878209400432,5.118878209400432,5.118878209400432,5.118878209400432,5.118878209400432,5.118878209400432,5.118878209400432,5.118878209400432,5.118878209400432,5.118878209400432,5.118878209400432,5.118878209400432,5.118878209400432,5.118878209400432,5.118878209400432,5.118878209400432,5.118878209400432,5.118878209400432,5.118878209400432,5.118878209400432,5.118878209400432,5.118878209400432,5.118878209400432,5.118878209400432,5.118878209400432,5.118878209400432,5.118878209400432,5.118878209400432,5.118878209400432,5.118878209400432,5.118878209400432,5.118878209400432,5.118878209400432,5.118878209400432,5.118878209400432,5.118878209400432,5.118878209400432,5.118878209400432,5.118878209400432,5.118878209400432,5.118878209400432,5.118878209400432,5.118878209400432,5.118878209400432,5.118878209400432,5.118878209400432,5.118878209400432,5.118878209400432,5.118878209400432,5.118878209400432,5.118878209400432,5.118878209400432,5.118878209400432,5.118878209400432,5.118878209400432,5.118878209400432,5.118878209400432,5.118878209400432,5.118878209400432,5.118878209400432,5.118878209400432,5.118878209400432,5.118878209400432,5.118878209400432,5.118878209400432,5.118878209400432,5.118878209400432,5.118878209400432,5.118878209400432,5.118878209400432,5.118878209400432,5.118878209400432,5.118878209400432,5.118878209400432,5.118878209400432,5.118878209400432,5.118878209400432,5.118878209400432,5.118878209400432,5.118878209400432,5.118878209400432,5.118878209400432,5.118878209400432,5.118878209400432,5.118878209400432,5.118878209400432,5.118878209400432,5.118878209400432,5.118878209400432,5.118878209400432,5.118878209400432,5.118878209400432,5.118878209400432,5.118878209400432,5.118878209400432,5.118878209400432,5.118878209400432,5.118878209400432,5.118878209400432,5.118878209400432,5.118878209400432,5.118878209400432,5.118878209400432,5.118878209400432,5.118878209400432,5.118878209400432,5.118878209400432,5.118878209400432,5.118878209400432,5.118878209400432,5.118878209400432,5.118878209400432,5.118878209400432,5.118878209400432,5.118878209400432,5.118878209400432,5.118878209400432,5.118878209400432,5.118878209400432,5.118878209400432,5.118878209400432,5.118878209400432,5.118878209400432,5.118878209400432,5.118878209400432,5.118878209400432,5.118878209400432,5.118878209400432,5.118878209400432,5.118878209400432,5.118878209400432,5.118878209400432,5.118878209400432,5.118878209400432,5.118878209400432,5.118878209400432,5.118878209400432,5.118878209400432,5.118878209400432,5.118878209400432,5.118878209400432,5.118878209400432,5.118878209400432,5.118878209400432,5.118878209400432,5.118878209400432,5.118878209400432,5.118878209400432,5.118878209400432,5.118878209400432,5.118878209400432,5.118878209400432,5.118878209400432,5.118878209400432,5.118878209400432,5.118878209400432,5.118878209400432,5.118878209400432,5.118878209400432,5.118878209400432,5.118878209400432,5.118878209400432,5.118878209400432,5.118878209400432,5.118878209400432,5.118878209400432,5.118878209400432,5.118878209400432,5.118878209400432,5.118878209400432,5.118878209400432,5.118878209400432,5.118878209400432,5.118878209400432,5.118878209400432,5.118878209400432,5.118878209400432,5.118878209400432,5.118878209400432,5.118878209400432,5.118878209400432,5.118878209400432,5.118878209400432,5.118878209400432,5.118878209400432,5.118878209400432,5.118878209400432,5.118878209400432,5.118878209400432,5.118878209400432,5.118878209400432,5.118878209400432,5.118878209400432,5.118878209400432,5.118878209400432,5.118878209400432,5.118878209400432,5.118878209400432,5.118878209400432,5.118878209400432,5.118878209400432,5.118878209400432,5.118878209400432,5.118878209400432,5.118878209400432,5.118878209400432,5.118878209400432,5.118878209400432,5.118878209400432,5.118878209400432,5.118878209400432,5.118878209400432,5.118878209400432,5.118878209400432,5.118878209400432,5.118878209400432,5.118878209400432,5.118878209400432,5.118878209400432,5.118878209400432,5.118878209400432,5.118878209400432,5.118878209400432,5.118878209400432,5.118878209400432,5.118878209400432,5.118878209400432,5.118878209400432,5.118878209400432,5.118878209400432,5.118878209400432,5.118878209400432,5.118878209400432,5.118878209400432,5.118878209400432,5.118878209400432,5.118878209400432,5.118878209400432,5.118878209400432,5.118878209400432,5.118878209400432,5.118878209400432,5.118878209400432,5.118878209400432,5.118878209400432,5.118878209400432,5.118878209400432,5.118878209400432,5.118878209400432,5.118878209400432,5.118878209400432,5.118878209400432,5.118878209400432,5.118878209400432,5.118878209400432,5.118878209400432,5.118878209400432,5.118878209400432,5.118878209400432,5.118878209400432,5.118878209400432,5.118878209400432,5.118878209400432,5.118878209400432,5.118878209400432,5.118878209400432,5.118878209400432,5.118878209400432,5.118878209400432,5.118878209400432,5.118878209400432,5.118878209400432,5.118878209400432,5.118878209400432,5.118878209400432,5.118878209400432,5.118878209400432,5.118878209400432,5.118878209400432,5.118878209400432,5.118878209400432,5.118878209400432,5.118878209400432,5.118878209400432,5.118878209400432,5.118878209400432,5.118878209400432,5.118878209400432,5.118878209400432,5.118878209400432,5.118878209400432,5.118878209400432,5.118878209400432,5.118878209400432,5.118878209400432,5.118878209400432,5.118878209400432,5.118878209400432,5.118878209400432,5.118878209400432,5.118878209400432,5.118878209400432,5.118878209400432,5.118878209400432,5.118878209400432,5.118878209400432,5.118878209400432,5.118878209400432,5.118878209400432,5.118878209400432,5.118878209400432,5.118878209400432,5.118878209400432,5.118878209400432,5.118878209400432,5.118878209400432,5.118878209400432,5.118878209400432,5.118878209400432,5.118878209400432,5.118878209400432,5.118878209400432,5.118878209400432,5.118878209400432,5.118878209400432,5.118878209400432,5.118878209400432,5.118878209400432,5.118878209400432,5.118878209400432,5.118878209400432,5.118878209400432,5.118878209400432,5.118878209400432,5.118878209400432,5.118878209400432,5.118878209400432,5.118878209400432,5.118878209400432,5.118878209400432,5.118878209400432,5.118878209400432,5.118878209400432,5.118878209400432,5.118878209400432,5.118878209400432,5.118878209400432,5.118878209400432,5.118878209400432,5.118878209400432,5.118878209400432,5.118878209400432,5.118878209400432,5.118878209400432,5.118878209400432,5.118878209400432,5.118878209400432,5.118878209400432,5.118878209400432,5.118878209400432,5.118878209400432,5.118878209400432,5.118878209400432,5.118878209400432,5.118878209400432,5.118878209400432,5.118878209400432,5.118878209400432,5.118878209400432,5.118878209400432,5.118878209400432,5.118878209400432,5.118878209400432,5.118878209400432,5.118878209400432,5.118878209400432,5.118878209400432,5.118878209400432,5.118878209400432,5.118878209400432,5.118878209400432,5.118878209400432,5.118878209400432,5.118878209400432,5.118878209400432,5.118878209400432,5.118878209400432,5.118878209400432,5.118878209400432,5.118878209400432,5.118878209400432,5.118878209400432,5.118878209400432,5.118878209400432,5.118878209400432,5.118878209400432,5.118878209400432,5.118878209400432,5.118878209400432,5.118878209400432,5.118878209400432,5.118878209400432,5.118878209400432,5.118878209400432,5.118878209400432,5.118878209400432,5.118878209400432,5.118878209400432,5.118878209400432,5.118878209400432,5.118878209400432,5.118878209400432,5.118878209400432,5.118878209400432,5.118878209400432,5.118878209400432,5.118878209400432,5.118878209400432,5.118878209400432,5.118878209400432,5.118878209400432,5.118878209400432,5.118878209400432,5.118878209400432,5.118878209400432,5.118878209400432,5.118878209400432,5.118878209400432,5.118878209400432,5.118878209400432,5.118878209400432,5.118878209400432,5.118878209400432,5.118878209400432,5.118878209400432,5.118878209400432,5.118878209400432,5.118878209400432,5.118878209400432,5.118878209400432,5.118878209400432,5.118878209400432,5.118878209400432,5.118878209400432,5.118878209400432,5.118878209400432,5.118878209400432,5.118878209400432,5.118878209400432,5.118878209400432,5.118878209400432,5.118878209400432,5.118878209400432,5.118878209400432,5.118878209400432,5.118878209400432,5.118878209400432,5.118878209400432,5.118878209400432,5.118878209400432,5.118878209400432,5.118878209400432,5.118878209400432,5.118878209400432,5.118878209400432,5.118878209400432,5.118878209400432,5.118878209400432,5.118878209400432,5.118878209400432,5.118878209400432,5.118878209400432,5.118878209400432,5.118878209400432,5.118878209400432,5.118878209400432,5.118878209400432,5.118878209400432,5.118878209400432,5.118878209400432,5.118878209400432,5.118878209400432,5.118878209400432,5.118878209400432,5.118878209400432,5.118878209400432,5.118878209400432,5.118878209400432,5.118878209400432,5.118878209400432,5.118878209400432,5.118878209400432,5.118878209400432,5.118878209400432,5.118878209400432,5.118878209400432,5.118878209400432,5.118878209400432,5.118878209400432,5.118878209400432,5.118878209400432,5.118878209400432,5.118878209400432,5.118878209400432,5.118878209400432,5.118878209400432,5.118878209400432,5.118878209400432,5.118878209400432,5.118878209400432,5.118878209400432,5.118878209400432,5.118878209400432,5.118878209400432,5.118878209400432,5.118878209400432,5.118878209400432,5.118878209400432,5.118878209400432,5.118878209400432,5.118878209400432,5.118878209400432,5.118878209400432,5.118878209400432,5.118878209400432,5.118878209400432,5.118878209400432,5.118878209400432,5.118878209400432,5.118878209400432,5.118878209400432,5.118878209400432,5.118878209400432,5.118878209400432,5.118878209400432,5.118878209400432,5.118878209400432,5.118878209400432,5.118878209400432,5.118878209400432,5.118878209400432,5.118878209400432,5.118878209400432,5.118878209400432,5.118878209400432,5.118878209400432,5.118878209400432,5.118878209400432,5.118878209400432,5.118878209400432,5.118878209400432,5.118878209400432,5.118878209400432,5.118878209400432,5.118878209400432,5.118878209400432,5.118878209400432,5.118878209400432,5.118878209400432,5.118878209400432,5.118878209400432,5.118878209400432,5.118878209400432,5.118878209400432,5.118878209400432,5.118878209400432,5.118878209400432,5.118878209400432,5.118878209400432,5.118878209400432,5.118878209400432,5.118878209400432,5.118878209400432,5.118878209400432,5.118878209400432,5.118878209400432,5.118878209400432,5.118878209400432,5.118878209400432,5.118878209400432,5.118878209400432,5.118878209400432,5.118878209400432,5.118878209400432,5.118878209400432,5.118878209400432,5.118878209400432,5.118878209400432,5.118878209400432,5.118878209400432,5.118878209400432,5.118878209400432,5.118878209400432,5.118878209400432,5.118878209400432,5.118878209400432,5.118878209400432,5.118878209400432,5.118878209400432,5.118878209400432,5.118878209400432,5.118878209400432,5.118878209400432,5.118878209400432,5.118878209400432,5.118878209400432,5.118878209400432,5.118878209400432,5.118878209400432,5.118878209400432,5.118878209400432,5.118878209400432,5.118878209400432,5.118878209400432,5.118878209400432,5.118878209400432,5.118878209400432,5.118878209400432,5.118878209400432,5.118878209400432,5.118878209400432,5.118878209400432,5.118878209400432,5.118878209400432,5.118878209400432,5.118878209400432,5.118878209400432,5.118878209400432,5.118878209400432,5.118878209400432,5.118878209400432,5.118878209400432,5.118878209400432,5.118878209400432,5.118878209400432,5.118878209400432,5.118878209400432,5.118878209400432,5.118878209400432,5.118878209400432,5.118878209400432,5.118878209400432,5.118878209400432,5.118878209400432,5.118878209400432,5.118878209400432,5.118878209400432,5.118878209400432,5.118878209400432,5.118878209400432,5.118878209400432,5.118878209400432,5.118878209400432,5.118878209400432,5.118878209400432,5.118878209400432,5.118878209400432,5.118878209400432,5.118878209400432,5.118878209400432,5.118878209400432,5.118878209400432,5.118878209400432,5.118878209400432,5.118878209400432,5.118878209400432,5.118878209400432,5.118878209400432,5.118878209400432,5.118878209400432,5.118878209400432,5.118878209400432,5.118878209400432,5.118878209400432,5.118878209400432,5.118878209400432,5.118878209400432,5.118878209400432,5.118878209400432,5.118878209400432,5.118878209400432,5.118878209400432,5.118878209400432,5.118878209400432,5.118878209400432,5.118878209400432,5.118878209400432,5.118878209400432,5.118878209400432,5.118878209400432,5.118878209400432,5.118878209400432,5.118878209400432,5.118878209400432,5.118878209400432,5.118878209400432,5.118878209400432,5.118878209400432,5.118878209400432,5.118878209400432,5.118878209400432,5.118878209400432,5.118878209400432,5.118878209400432,5.118878209400432,5.118878209400432,5.118878209400432,5.118878209400432,5.118878209400432,5.118878209400432,5.118878209400432,5.118878209400432,5.118878209400432,5.118878209400432,5.118878209400432,5.118878209400432,5.118878209400432,5.118878209400432,5.118878209400432,5.118878209400432,5.118878209400432,5.118878209400432,5.118878209400432,5.118878209400432,5.118878209400432,5.118878209400432,5.118878209400432,5.118878209400432,5.118878209400432,5.118878209400432,5.118878209400432,5.118878209400432,5.118878209400432,5.118878209400432,5.118878209400432,5.118878209400432,5.118878209400432,5.118878209400432,5.118878209400432,5.118878209400432,5.118878209400432,5.118878209400432,5.118878209400432,5.118878209400432,5.118878209400432,5.118878209400432,5.118878209400432,5.118878209400432,5.118878209400432,5.118878209400432,5.118878209400432,5.118878209400432,5.118878209400432,5.118878209400432,5.118878209400432,5.118878209400432,5.118878209400432,5.118878209400432,5.118878209400432,5.118878209400432,5.118878209400432,5.118878209400432,5.118878209400432,5.118878209400432,5.118878209400432,5.118878209400432,5.118878209400432,5.118878209400432,5.118878209400432,5.118878209400432,5.118878209400432,5.118878209400432,5.118878209400432,5.118878209400432,5.118878209400432,5.118878209400432,5.118878209400432,5.118878209400432,5.118878209400432,5.118878209400432,5.118878209400432,5.118878209400432,5.118878209400432,5.118878209400432,5.118878209400432,5.118878209400432,5.118878209400432,5.118878209400432,5.118878209400432,5.118878209400432,5.118878209400432,5.118878209400432,5.118878209400432,5.118878209400432,5.118878209400432,5.118878209400432,5.118878209400432,5.118878209400432,5.118878209400432,5.118878209400432,5.118878209400432,5.118878209400432,5.118878209400432,5.118878209400432,5.118878209400432,5.118878209400432,5.118878209400432,5.118878209400432,5.118878209400432,5.118878209400432,5.118878209400432,5.118878209400432,5.118878209400432,5.118878209400432,5.118878209400432,5.118878209400432,5.118878209400432,5.118878209400432,5.118878209400432,5.118878209400432,5.118878209400432,5.118878209400432,5.118878209400432,5.118878209400432,5.118878209400432,5.118878209400432,5.118878209400432,5.118878209400432,5.118878209400432,5.118878209400432,5.118878209400432,5.118878209400432,5.118878209400432,5.118878209400432,5.118878209400432,5.118878209400432,5.118878209400432,5.118878209400432,5.118878209400432,5.118878209400432,5.118878209400432,5.118878209400432,5.118878209400432,5.118878209400432,5.118878209400432,5.118878209400432,5.118878209400432,5.118878209400432,5.118878209400432,5.118878209400432,5.118878209400432,5.118878209400432,5.118878209400432,5.118878209400432,5.118878209400432,5.118878209400432,5.118878209400432,5.118878209400432,5.118878209400432,5.118878209400432,5.118878209400432,5.118878209400432,5.118878209400432,5.118878209400432,5.118878209400432,5.118878209400432,5.118878209400432,5.118878209400432,5.118878209400432,5.118878209400432,5.118878209400432,5.118878209400432,5.118878209400432,5.118878209400432,5.118878209400432,5.118878209400432,5.118878209400432,5.118878209400432,5.118878209400432,5.118878209400432,5.118878209400432,5.118878209400432,5.118878209400432,5.118878209400432,5.118878209400432,5.118878209400432,5.118878209400432,5.118878209400432,5.118878209400432,5.118878209400432,5.118878209400432,5.118878209400432,5.118878209400432,5.118878209400432,5.118878209400432,5.118878209400432,5.118878209400432,5.118878209400432,5.118878209400432,5.118878209400432,5.118878209400432,5.118878209400432,5.118878209400432,5.118878209400432,5.118878209400432,5.118878209400432,5.118878209400432,5.118878209400432,5.118878209400432,5.118878209400432,5.118878209400432,5.118878209400432,5.118878209400432,5.118878209400432,5.118878209400432,5.118878209400432,5.118878209400432,5.118878209400432,5.118878209400432,5.118878209400432,5.118878209400432,5.118878209400432,5.118878209400432,5.118878209400432,5.118878209400432,5.118878209400432,5.118878209400432,5.118878209400432,5.118878209400432,5.118878209400432,5.118878209400432,5.118878209400432,5.118878209400432,5.118878209400432,5.118878209400432,5.118878209400432,5.118878209400432,5.118878209400432,5.118878209400432,5.118878209400432,5.118878209400432,5.118878209400432,5.118878209400432,5.118878209400432,5.118878209400432,5.118878209400432,5.118878209400432,5.118878209400432,5.118878209400432,5.118878209400432,5.118878209400432,5.118878209400432,5.118878209400432,5.118878209400432,5.118878209400432,5.118878209400432,5.118878209400432,5.118878209400432,5.118878209400432,5.118878209400432,5.118878209400432,5.118878209400432,5.118878209400432,5.118878209400432,5.118878209400432,5.118878209400432,5.118878209400432,5.118878209400432,5.118878209400432,5.118878209400432,5.118878209400432,5.118878209400432,5.118878209400432,5.118878209400432,5.118878209400432,5.118878209400432,5.118878209400432,5.118878209400432,5.118878209400432,5.118878209400432,5.118878209400432,5.118878209400432,5.118878209400432,5.118878209400432,5.118878209400432,5.118878209400432,5.118878209400432,5.118878209400432,5.118878209400432,5.118878209400432,5.118878209400432,5.118878209400432,5.118878209400432,5.118878209400432,5.118878209400432,5.118878209400432,5.118878209400432,5.118878209400432,5.118878209400432,5.118878209400432,5.118878209400432,5.118878209400432,5.118878209400432,5.118878209400432,5.118878209400432,5.118878209400432,5.118878209400432,5.118878209400432,5.118878209400432,5.118878209400432,5.118878209400432,5.118878209400432,5.118878209400432,5.118878209400432,5.118878209400432,5.118878209400432,5.118878209400432,5.118878209400432,5.118878209400432,5.118878209400432,5.118878209400432,5.118878209400432,5.118878209400432,5.118878209400432,5.118878209400432,5.118878209400432,5.118878209400432,5.118878209400432,5.118878209400432,5.118878209400432,5.118878209400432,5.118878209400432,5.118878209400432,5.118878209400432,5.118878209400432,5.118878209400432,5.118878209400432,5.118878209400432,5.118878209400432,5.118878209400432,5.118878209400432,5.118878209400432,5.118878209400432,5.118878209400432,5.118878209400432,5.118878209400432,5.118878209400432,5.118878209400432,5.118878209400432,5.118878209400432,5.118878209400432,5.118878209400432,5.118878209400432,5.118878209400432,5.118878209400432,5.118878209400432,5.118878209400432,5.118878209400432,5.118878209400432,5.118878209400432,5.118878209400432,5.118878209400432,5.118878209400432,5.118878209400432,5.118878209400432,5.118878209400432,5.118878209400432,5.118878209400432,5.118878209400432,5.118878209400432,5.118878209400432,5.118878209400432,5.118878209400432,5.118878209400432,5.118878209400432,5.118878209400432,5.118878209400432,5.118878209400432,5.118878209400432,5.118878209400432,5.118878209400432,5.118878209400432,5.118878209400432,5.118878209400432,5.118878209400432,5.118878209400432,5.118878209400432,5.118878209400432,5.118878209400432,5.118878209400432,5.118878209400432,5.118878209400432,5.118878209400432,5.118878209400432,5.118878209400432,5.118878209400432,5.118878209400432,5.118878209400432,5.118878209400432,5.118878209400432,5.118878209400432,5.118878209400432,5.118878209400432,5.118878209400432,5.118878209400432,5.118878209400432,5.118878209400432,5.118878209400432,5.118878209400432,5.118878209400432,5.118878209400432,5.118878209400432,5.118878209400432,5.118878209400432,5.118878209400432,5.118878209400432,5.118878209400432,5.118878209400432,5.118878209400432,5.118878209400432,5.118878209400432,5.118878209400432,5.118878209400432,5.118878209400432,5.118878209400432,5.118878209400432,5.118878209400432,5.118878209400432,5.118878209400432,5.118878209400432,5.118878209400432,5.118878209400432,5.118878209400432,5.118878209400432,5.118878209400432,5.118878209400432,5.118878209400432,5.118878209400432,5.118878209400432,5.118878209400432,5.118878209400432,5.118878209400432,5.118878209400432,5.118878209400432,5.118878209400432,5.118878209400432,5.118878209400432,5.118878209400432,5.118878209400432,5.118878209400432,5.118878209400432,5.118878209400432,5.118878209400432,5.118878209400432,5.118878209400432,5.118878209400432,5.118878209400432,5.118878209400432,5.118878209400432,5.118878209400432,5.118878209400432,5.118878209400432,5.118878209400432,5.118878209400432,5.118878209400432,5.118878209400432,5.118878209400432,5.118878209400432,5.118878209400432,5.118878209400432,5.118878209400432,5.118878209400432,5.118878209400432,5.118878209400432,5.118878209400432,5.118878209400432,5.118878209400432,5.118878209400432,5.118878209400432,5.118878209400432,5.118878209400432,5.118878209400432,5.118878209400432,5.118878209400432,5.118878209400432,5.118878209400432,5.118878209400432,5.118878209400432,5.118878209400432,5.118878209400432,5.118878209400432,5.118878209400432,5.118878209400432,5.118878209400432,5.118878209400432,5.118878209400432,5.118878209400432,5.118878209400432,5.118878209400432,5.118878209400432,5.118878209400432,5.118878209400432,5.118878209400432,5.118878209400432,5.118878209400432,5.118878209400432,5.118878209400432,5.118878209400432,5.118878209400432,5.118878209400432,5.118878209400432,5.118878209400432,5.118878209400432,5.118878209400432,5.118878209400432,5.118878209400432,5.118878209400432,5.118878209400432,5.118878209400432,5.118878209400432,5.118878209400432,5.118878209400432,5.118878209400432,5.118878209400432,5.118878209400432,5.118878209400432,5.118878209400432,5.118878209400432,5.118878209400432,5.118878209400432,5.118878209400432,5.118878209400432,5.118878209400432,5.118878209400432,5.118878209400432,5.118878209400432,5.118878209400432,5.118878209400432,5.118878209400432,5.118878209400432,5.118878209400432,5.118878209400432,5.118878209400432,5.118878209400432,5.118878209400432,5.118878209400432,5.118878209400432,5.118878209400432,5.118878209400432,5.118878209400432,5.118878209400432,5.118878209400432,5.118878209400432,5.118878209400432,5.118878209400432,5.118878209400432,5.118878209400432,5.118878209400432,5.118878209400432,5.118878209400432,5.118878209400432,5.118878209400432,5.118878209400432,5.118878209400432,5.118878209400432,5.118878209400432,5.118878209400432,5.118878209400432,5.118878209400432,5.118878209400432,5.118878209400432,5.118878209400432,5.118878209400432,5.118878209400432,5.118878209400432,5.118878209400432,5.118878209400432,5.118878209400432,5.118878209400432,5.118878209400432,5.118878209400432,5.118878209400432,5.118878209400432,5.118878209400432,5.118878209400432,5.118878209400432,5.118878209400432,5.118878209400432,5.118878209400432,5.118878209400432,5.118878209400432,5.118878209400432,5.118878209400432,5.118878209400432,5.118878209400432,5.118878209400432,5.118878209400432,5.118878209400432,5.118878209400432,5.118878209400432,5.118878209400432,5.118878209400432,5.118878209400432,5.118878209400432,5.118878209400432,5.118878209400432,5.118878209400432,5.118878209400432,5.118878209400432,5.118878209400432,5.118878209400432,5.118878209400432,5.118878209400432,5.118878209400432,5.118878209400432,5.118878209400432,5.118878209400432,5.118878209400432,5.118878209400432,5.118878209400432,5.118878209400432,5.118878209400432,5.118878209400432,5.118878209400432,5.118878209400432,5.118878209400432,5.118878209400432,5.118878209400432,5.118878209400432,5.118878209400432,5.118878209400432,5.118878209400432,5.118878209400432,5.118878209400432,5.118878209400432,5.118878209400432,5.118878209400432,5.118878209400432,5.118878209400432,5.118878209400432,5.118878209400432,5.118878209400432,5.118878209400432,5.118878209400432,5.118878209400432,5.118878209400432,5.118878209400432,5.118878209400432,5.118878209400432,5.118878209400432,5.118878209400432,5.118878209400432,5.118878209400432,5.118878209400432,5.118878209400432,5.118878209400432,5.118878209400432,5.118878209400432,5.118878209400432,5.118878209400432,5.118878209400432,5.118878209400432,5.118878209400432,5.118878209400432,5.118878209400432,5.118878209400432,5.118878209400432,5.118878209400432,5.118878209400432,5.118878209400432,5.118878209400432,5.118878209400432,5.118878209400432,5.118878209400432,5.118878209400432,5.118878209400432,5.118878209400432,5.118878209400432,5.118878209400432,5.118878209400432,5.118878209400432,5.118878209400432,5.118878209400432,5.118878209400432,5.118878209400432,5.118878209400432,5.118878209400432,5.118878209400432,5.118878209400432,5.118878209400432,5.118878209400432,5.118878209400432,5.118878209400432,5.118878209400432,5.118878209400432,5.118878209400432,5.118878209400432,5.118878209400432,5.118878209400432,5.118878209400432,5.118878209400432,5.118878209400432,5.118878209400432,5.118878209400432,5.118878209400432,5.118878209400432,5.118878209400432,5.118878209400432,5.118878209400432,5.118878209400432,5.118878209400432,5.118878209400432,5.118878209400432,5.118878209400432,5.118878209400432,5.118878209400432,5.118878209400432,5.118878209400432,5.118878209400432,5.118878209400432,5.118878209400432,5.118878209400432,5.118878209400432,5.118878209400432,5.118878209400432,5.118878209400432,5.118878209400432,5.118878209400432,5.118878209400432,5.118878209400432,5.118878209400432,5.118878209400432,5.118878209400432,5.118878209400432,5.118878209400432,5.118878209400432,5.118878209400432,5.118878209400432,5.118878209400432,5.118878209400432,5.118878209400432,5.118878209400432,5.118878209400432,5.118878209400432,5.118878209400432,5.118878209400432,5.118878209400432,5.118878209400432,5.118878209400432,5.118878209400432,5.118878209400432,5.118878209400432,5.118878209400432,5.118878209400432,5.118878209400432,5.118878209400432,5.118878209400432,5.118878209400432,5.118878209400432,5.118878209400432,5.118878209400432,5.118878209400432,5.118878209400432,5.118878209400432,5.118878209400432,5.118878209400432,5.118878209400432,5.118878209400432,5.118878209400432,5.118878209400432,5.118878209400432,5.118878209400432,5.118878209400432,5.118878209400432,5.118878209400432,5.118878209400432,5.118878209400432,5.118878209400432,5.118878209400432,5.118878209400432,5.118878209400432,5.118878209400432,5.118878209400432,5.118878209400432,5.118878209400432,5.118878209400432,5.118878209400432,5.118878209400432,5.118878209400432,5.118878209400432,5.118878209400432,5.118878209400432,5.118878209400432,5.118878209400432,5.118878209400432,5.118878209400432,5.118878209400432,5.118878209400432,5.118878209400432,5.118878209400432,5.118878209400432,5.118878209400432,5.118878209400432,5.118878209400432,5.118878209400432,5.118878209400432,5.118878209400432,5.118878209400432,5.118878209400432,5.118878209400432,5.118878209400432,5.118878209400432,5.118878209400432,5.118878209400432,5.118878209400432,5.118878209400432,5.118878209400432,5.118878209400432,5.118878209400432,5.118878209400432,5.118878209400432,5.118878209400432,5.118878209400432,5.118878209400432,5.118878209400432,5.118878209400432,5.118878209400432,5.118878209400432,5.118878209400432,5.118878209400432,5.118878209400432,5.118878209400432,5.118878209400432,5.118878209400432,5.118878209400432,5.118878209400432,5.118878209400432,5.118878209400432,5.118878209400432,5.118878209400432,5.118878209400432,5.118878209400432,5.118878209400432,5.118878209400432,5.118878209400432,5.118878209400432,5.118878209400432,5.118878209400432,5.118878209400432,5.118878209400432,5.118878209400432,5.118878209400432,5.118878209400432,5.118878209400432,5.118878209400432,5.118878209400432,5.118878209400432,5.118878209400432,5.118878209400432,5.118878209400432,5.118878209400432,5.118878209400432,5.118878209400432,5.118878209400432,5.118878209400432,5.118878209400432,5.118878209400432,5.118878209400432,5.118878209400432,5.118878209400432,5.118878209400432,5.118878209400432,5.118878209400432,5.118878209400432,5.118878209400432,5.118878209400432,5.118878209400432,5.118878209400432,5.118878209400432,5.118878209400432,5.118878209400432,5.118878209400432,5.118878209400432,5.118878209400432,5.118878209400432,5.118878209400432,5.118878209400432,5.118878209400432,5.118878209400432,5.118878209400432,5.118878209400432,5.118878209400432,5.118878209400432,5.118878209400432,5.118878209400432,5.118878209400432,5.118878209400432,5.118878209400432,5.118878209400432,5.118878209400432,5.118878209400432,5.118878209400432,5.118878209400432,5.118878209400432,5.118878209400432,5.118878209400432,5.118878209400432,5.118878209400432,5.118878209400432,5.118878209400432,5.118878209400432,5.118878209400432,5.118878209400432,5.118878209400432,5.118878209400432,5.118878209400432,5.118878209400432,5.118878209400432,5.118878209400432,5.118878209400432,5.118878209400432,5.118878209400432,5.118878209400432,5.118878209400432,5.118878209400432,5.118878209400432,5.118878209400432,5.118878209400432,5.118878209400432,5.118878209400432,5.118878209400432,5.118878209400432,5.118878209400432,5.118878209400432,5.118878209400432,5.118878209400432,5.118878209400432,5.118878209400432,5.118878209400432,5.118878209400432,5.118878209400432,5.118878209400432,5.118878209400432,5.118878209400432,5.118878209400432,5.118878209400432,5.118878209400432,5.118878209400432,5.118878209400432,5.118878209400432,5.118878209400432,5.118878209400432,5.118878209400432,5.118878209400432,5.118878209400432,5.118878209400432,5.118878209400432,5.118878209400432,5.118878209400432,5.118878209400432,5.118878209400432,5.118878209400432,5.118878209400432,5.118878209400432,5.118878209400432,5.118878209400432,5.118878209400432,5.118878209400432,5.118878209400432,5.118878209400432,5.118878209400432,5.118878209400432,5.118878209400432,5.118878209400432,5.118878209400432,5.118878209400432,5.118878209400432,5.118878209400432,5.118878209400432,5.118878209400432,5.118878209400432,5.118878209400432,5.118878209400432,5.118878209400432,5.118878209400432,5.118878209400432,5.118878209400432,5.118878209400432,5.118878209400432,5.118878209400432,5.118878209400432,5.118878209400432,5.118878209400432,5.118878209400432,5.118878209400432,5.118878209400432,5.118878209400432,5.118878209400432,5.118878209400432,5.118878209400432,5.118878209400432,5.118878209400432,5.118878209400432,5.118878209400432,5.118878209400432,5.118878209400432,5.118878209400432,5.118878209400432,5.118878209400432,5.118878209400432,5.118878209400432,5.118878209400432,5.118878209400432,5.118878209400432,5.118878209400432,5.118878209400432,5.118878209400432,5.118878209400432,5.118878209400432,5.118878209400432,5.118878209400432,5.118878209400432,5.118878209400432,5.118878209400432,5.118878209400432,5.118878209400432,5.118878209400432,5.118878209400432,5.118878209400432,5.118878209400432,5.118878209400432,5.118878209400432,5.118878209400432,5.118878209400432,5.118878209400432,5.118878209400432,5.118878209400432,5.118878209400432,5.118878209400432,5.118878209400432,5.118878209400432,5.118878209400432,5.118878209400432,5.118878209400432,5.118878209400432,5.118878209400432,5.118878209400432,5.118878209400432,5.118878209400432,5.118878209400432,5.118878209400432,5.118878209400432,5.118878209400432,5.118878209400432,5.118878209400432,5.118878209400432,5.118878209400432,5.118878209400432,5.118878209400432,5.118878209400432,5.118878209400432,5.118878209400432,5.118878209400432,5.118878209400432,5.118878209400432,5.118878209400432,5.118878209400432,5.118878209400432,5.118878209400432,5.118878209400432,5.118878209400432,5.118878209400432,5.118878209400432,5.118878209400432,5.118878209400432,5.118878209400432,5.118878209400432,5.118878209400432,5.118878209400432,5.118878209400432,5.118878209400432,5.118878209400432,5.118878209400432,5.118878209400432,5.118878209400432,5.118878209400432,5.118878209400432,5.118878209400432,5.118878209400432,5.118878209400432,5.118878209400432,5.118878209400432,5.118878209400432,5.118878209400432,5.118878209400432,5.118878209400432,5.118878209400432,5.118878209400432,5.118878209400432,5.118878209400432,5.118878209400432,5.118878209400432,5.118878209400432,5.118878209400432,5.118878209400432,5.118878209400432,5.118878209400432,5.118878209400432,5.118878209400432,5.118878209400432,5.118878209400432,5.118878209400432,5.118878209400432,5.118878209400432,5.118878209400432,5.118878209400432,5.118878209400432,5.118878209400432,5.118878209400432,5.118878209400432,5.118878209400432,5.118878209400432,5.118878209400432,5.118878209400432,5.118878209400432,5.118878209400432,5.118878209400432,5.118878209400432,5.118878209400432,5.118878209400432,5.118878209400432,5.118878209400432,5.118878209400432,5.118878209400432,5.118878209400432,5.118878209400432,5.118878209400432,5.118878209400432,5.118878209400432,5.118878209400432,5.118878209400432,5.118878209400432,5.118878209400432,5.118878209400432,5.118878209400432,5.118878209400432,5.118878209400432,5.118878209400432,5.118878209400432,5.118878209400432,5.118878209400432,5.118878209400432,5.118878209400432,5.118878209400432,5.118878209400432,5.118878209400432,5.118878209400432,5.118878209400432,5.118878209400432,5.118878209400432,5.118878209400432,5.118878209400432,5.118878209400432,5.118878209400432,5.118878209400432,5.118878209400432,5.118878209400432,5.118878209400432,5.118878209400432,5.118878209400432,5.118878209400432,5.118878209400432,5.118878209400432,5.118878209400432,5.118878209400432,5.118878209400432,5.118878209400432,5.118878209400432,5.118878209400432,5.118878209400432,5.118878209400432,5.118878209400432,5.118878209400432,5.118878209400432,5.118878209400432,5.118878209400432,5.118878209400432,5.118878209400432,5.118878209400432,5.118878209400432,5.118878209400432,5.118878209400432,5.118878209400432,5.118878209400432,5.118878209400432,5.118878209400432,5.118878209400432,5.118878209400432,5.118878209400432,5.118878209400432,5.118878209400432,5.118878209400432,5.118878209400432,5.118878209400432,5.118878209400432,5.118878209400432,5.118878209400432,5.118878209400432,5.118878209400432,5.118878209400432,5.118878209400432,5.118878209400432,5.118878209400432,5.118878209400432,5.118878209400432,5.118878209400432,5.118878209400432,5.118878209400432,5.118878209400432,5.118878209400432,5.118878209400432,5.118878209400432,5.118878209400432,5.118878209400432,5.118878209400432,5.118878209400432,5.118878209400432,5.118878209400432,5.118878209400432,5.118878209400432,5.118878209400432,5.118878209400432,5.118878209400432,5.118878209400432,5.118878209400432,5.118878209400432,5.118878209400432,5.118878209400432,5.118878209400432,5.118878209400432,5.118878209400432,5.118878209400432,5.118878209400432,5.118878209400432,5.118878209400432,5.118878209400432,5.118878209400432,5.118878209400432,5.118878209400432,5.118878209400432,5.118878209400432,5.118878209400432,5.118878209400432,5.118878209400432,5.118878209400432,5.118878209400432,5.118878209400432,5.118878209400432,5.118878209400432,5.118878209400432,5.118878209400432,5.118878209400432,5.118878209400432,5.118878209400432,5.118878209400432,5.118878209400432,5.118878209400432,5.118878209400432,5.118878209400432,5.118878209400432,5.118878209400432,5.118878209400432,5.118878209400432,5.118878209400432,5.118878209400432,5.118878209400432,5.118878209400432,5.118878209400432,5.118878209400432,5.118878209400432,5.118878209400432,5.118878209400432,5.118878209400432,5.118878209400432,5.118878209400432,5.118878209400432,5.118878209400432,5.118878209400432,5.118878209400432,5.118878209400432,5.118878209400432,5.118878209400432,5.118878209400432,5.118878209400432,5.118878209400432,5.118878209400432,5.118878209400432,5.118878209400432,5.118878209400432,5.118878209400432,5.118878209400432,5.118878209400432,5.118878209400432,5.118878209400432,5.118878209400432,5.118878209400432,5.118878209400432,5.118878209400432,5.118878209400432,5.118878209400432,5.118878209400432,5.118878209400432,5.118878209400432,5.118878209400432,5.118878209400432,5.118878209400432,5.118878209400432,5.118878209400432,5.118878209400432,5.118878209400432,5.118878209400432,5.118878209400432,5.118878209400432,5.118878209400432,5.118878209400432,5.118878209400432,5.118878209400432,5.118878209400432,5.118878209400432,5.118878209400432,5.118878209400432,5.118878209400432,5.118878209400432,5.118878209400432,5.118878209400432,5.118878209400432,5.118878209400432,5.118878209400432,5.118878209400432,5.118878209400432,5.118878209400432,5.118878209400432,5.118878209400432,5.118878209400432,5.118878209400432,5.118878209400432,5.118878209400432,5.118878209400432,5.118878209400432,5.118878209400432,5.118878209400432,5.118878209400432,5.118878209400432,5.118878209400432,5.118878209400432,5.118878209400432,5.118878209400432,5.118878209400432,5.118878209400432,5.118878209400432,5.118878209400432,5.118878209400432,5.118878209400432,5.118878209400432,5.118878209400432,5.118878209400432,5.118878209400432,5.118878209400432,5.118878209400432,5.118878209400432,5.118878209400432,5.118878209400432,5.118878209400432,5.118878209400432,5.118878209400432,5.118878209400432,5.118878209400432,5.118878209400432,5.118878209400432,5.118878209400432,5.118878209400432,5.118878209400432,5.118878209400432,5.118878209400432,5.118878209400432,5.118878209400432,5.118878209400432,5.118878209400432,5.118878209400432,5.118878209400432,5.118878209400432,5.118878209400432,5.118878209400432,5.118878209400432,5.118878209400432,5.118878209400432,5.118878209400432,5.118878209400432,5.118878209400432,5.118878209400432,5.118878209400432,5.118878209400432,5.118878209400432,5.118878209400432,5.118878209400432,5.118878209400432,5.118878209400432,5.118878209400432,5.118878209400432,5.118878209400432,5.118878209400432,5.118878209400432,5.118878209400432,5.118878209400432,5.118878209400432,5.118878209400432,5.118878209400432,5.118878209400432,5.118878209400432,5.118878209400432,5.118878209400432,5.118878209400432,5.118878209400432,5.118878209400432,5.118878209400432,5.118878209400432,5.118878209400432,5.118878209400432,5.118878209400432,5.118878209400432,5.118878209400432,5.118878209400432,5.118878209400432,5.118878209400432,5.118878209400432,5.118878209400432,5.118878209400432,5.118878209400432,5.118878209400432,5.118878209400432,5.118878209400432,5.118878209400432,5.118878209400432,5.118878209400432,5.118878209400432,5.118878209400432,5.118878209400432,5.118878209400432,5.118878209400432,5.118878209400432,5.118878209400432,5.118878209400432,5.118878209400432,5.118878209400432,5.118878209400432,5.118878209400432,5.118878209400432,5.118878209400432,5.118878209400432,5.118878209400432,5.118878209400432,5.118878209400432,5.118878209400432,5.118878209400432,5.118878209400432,5.118878209400432,5.118878209400432,5.118878209400432,5.118878209400432,5.118878209400432,5.118878209400432,5.118878209400432,5.118878209400432,5.118878209400432,5.118878209400432,5.118878209400432,5.118878209400432,5.118878209400432,5.118878209400432,5.118878209400432,5.118878209400432,5.118878209400432,5.118878209400432,5.118878209400432,5.118878209400432,5.118878209400432,5.118878209400432,5.118878209400432,5.118878209400432,5.118878209400432,5.118878209400432,5.118878209400432,5.118878209400432,5.118878209400432,5.118878209400432,5.118878209400432,5.118878209400432,5.118878209400432,5.118878209400432,5.118878209400432,5.118878209400432,5.118878209400432,5.118878209400432,5.118878209400432,5.118878209400432,5.118878209400432,5.118878209400432,5.118878209400432,5.118878209400432,5.118878209400432,5.118878209400432,5.118878209400432,5.118878209400432,5.118878209400432,5.118878209400432,5.118878209400432,5.118878209400432,5.118878209400432,5.118878209400432,5.118878209400432,5.118878209400432,5.118878209400432,5.118878209400432,5.118878209400432,5.118878209400432,5.118878209400432,5.118878209400432,5.118878209400432,5.118878209400432,5.118878209400432,5.118878209400432,5.118878209400432,5.118878209400432,5.118878209400432,5.118878209400432,5.118878209400432,5.118878209400432,5.118878209400432,5.118878209400432,5.118878209400432,5.118878209400432,5.118878209400432,5.118878209400432,5.118878209400432,5.118878209400432,5.118878209400432,5.118878209400432,5.118878209400432,5.118878209400432,5.118878209400432,5.118878209400432,5.118878209400432,5.118878209400432,5.118878209400432,5.118878209400432,5.118878209400432,5.118878209400432,5.118878209400432,5.118878209400432,5.118878209400432,5.118878209400432,5.118878209400432,5.118878209400432,5.118878209400432,5.118878209400432,5.118878209400432,5.118878209400432,5.118878209400432,5.118878209400432,5.118878209400432,5.118878209400432,5.118878209400432,5.118878209400432,5.118878209400432,5.118878209400432,5.118878209400432,5.118878209400432,5.118878209400432,5.118878209400432,5.118878209400432,5.118878209400432,5.118878209400432,5.118878209400432,5.118878209400432,5.118878209400432,5.118878209400432,5.118878209400432,5.118878209400432,5.118878209400432,5.118878209400432,5.118878209400432,5.118878209400432,5.118878209400432,5.118878209400432,5.118878209400432,5.118878209400432,5.118878209400432,5.118878209400432,5.118878209400432,5.118878209400432,5.118878209400432,5.118878209400432,5.118878209400432,5.118878209400432,5.118878209400432,5.118878209400432,5.118878209400432,5.118878209400432,5.118878209400432,5.118878209400432,5.118878209400432,5.118878209400432,5.118878209400432,5.118878209400432,5.118878209400432,5.118878209400432,5.118878209400432,5.118878209400432,5.118878209400432,5.118878209400432,5.118878209400432,5.118878209400432,5.118878209400432,5.118878209400432,5.118878209400432,5.118878209400432,5.118878209400432,5.118878209400432,5.118878209400432,5.118878209400432,5.118878209400432,5.118878209400432,5.118878209400432,5.118878209400432,5.118878209400432,5.118878209400432,5.118878209400432,5.118878209400432,5.118878209400432,5.118878209400432,5.118878209400432,5.118878209400432,5.118878209400432,5.118878209400432,5.118878209400432,5.118878209400432,5.118878209400432,5.118878209400432,5.118878209400432,5.118878209400432,5.118878209400432,5.118878209400432,5.118878209400432,5.118878209400432,5.118878209400432,5.118878209400432,5.118878209400432,5.118878209400432,5.118878209400432,5.118878209400432,5.118878209400432,5.118878209400432,5.118878209400432,5.118878209400432,5.118878209400432,5.118878209400432,5.118878209400432,5.118878209400432,5.118878209400432,5.118878209400432,5.118878209400432,5.118878209400432,5.118878209400432,5.118878209400432,5.118878209400432,5.118878209400432,5.118878209400432,5.118878209400432,5.118878209400432,5.118878209400432,5.118878209400432,5.118878209400432,5.118878209400432,5.118878209400432,5.118878209400432,5.118878209400432,5.118878209400432,5.118878209400432,5.118878209400432,5.118878209400432,5.118878209400432,5.118878209400432,5.118878209400432,5.118878209400432,5.118878209400432,5.118878209400432,5.118878209400432,5.118878209400432,5.118878209400432,5.118878209400432,5.118878209400432,5.118878209400432,5.118878209400432,5.118878209400432,5.118878209400432,5.118878209400432,5.118878209400432,5.118878209400432,5.118878209400432,5.118878209400432,5.118878209400432,5.118878209400432,5.118878209400432,5.118878209400432,5.118878209400432,5.118878209400432,5.118878209400432,5.118878209400432,5.118878209400432,5.118878209400432,5.118878209400432,5.118878209400432,5.118878209400432,5.118878209400432,5.118878209400432,5.118878209400432,5.118878209400432,5.118878209400432,5.118878209400432,5.118878209400432,5.118878209400432,5.118878209400432,5.118878209400432,5.118878209400432,5.118878209400432,5.118878209400432,5.118878209400432,5.118878209400432,5.118878209400432,5.118878209400432,5.118878209400432,5.118878209400432,5.118878209400432,5.118878209400432,5.118878209400432,5.118878209400432,5.118878209400432,5.118878209400432,5.118878209400432,5.118878209400432,5.118878209400432,5.118878209400432,5.118878209400432,5.118878209400432,5.118878209400432,5.118878209400432,5.118878209400432,5.118878209400432,5.118878209400432,5.118878209400432,5.118878209400432,5.118878209400432,5.118878209400432,5.118878209400432,5.118878209400432,5.118878209400432,5.118878209400432,5.118878209400432,5.118878209400432,5.118878209400432,5.118878209400432,5.118878209400432,5.118878209400432,5.118878209400432,5.118878209400432,5.118878209400432,5.118878209400432,5.118878209400432,5.118878209400432,5.118878209400432,5.118878209400432,5.118878209400432,5.118878209400432,5.118878209400432,5.118878209400432,5.118878209400432,5.118878209400432,5.118878209400432,5.118878209400432,5.118878209400432,5.118878209400432,5.118878209400432,5.118878209400432,5.118878209400432,5.118878209400432,5.118878209400432,5.118878209400432,5.118878209400432,5.118878209400432,5.118878209400432,5.118878209400432,5.118878209400432,5.118878209400432,5.118878209400432,5.118878209400432,5.118878209400432,5.118878209400432,5.118878209400432,5.118878209400432,5.118878209400432,5.118878209400432,5.118878209400432,5.118878209400432,5.118878209400432,5.118878209400432,5.118878209400432,5.118878209400432,5.118878209400432,5.118878209400432,5.118878209400432,5.118878209400432,5.118878209400432,5.118878209400432,5.118878209400432,5.118878209400432,5.118878209400432,5.118878209400432,5.118878209400432,5.118878209400432,5.118878209400432,5.118878209400432,5.118878209400432,5.118878209400432,5.118878209400432,5.118878209400432,5.118878209400432,5.118878209400432,5.118878209400432,5.118878209400432,5.118878209400432,5.118878209400432,5.118878209400432,5.118878209400432,5.118878209400432,5.118878209400432,5.118878209400432,5.118878209400432,5.118878209400432,5.118878209400432,5.118878209400432,5.118878209400432,5.118878209400432,5.118878209400432,5.118878209400432,5.118878209400432,5.118878209400432,5.118878209400432,5.118878209400432,5.118878209400432,5.118878209400432,5.118878209400432,5.118878209400432,5.118878209400432,5.118878209400432,5.118878209400432,5.118878209400432,5.118878209400432,5.118878209400432,5.118878209400432,5.118878209400432,5.118878209400432,5.118878209400432,5.118878209400432,5.118878209400432,5.118878209400432,5.118878209400432,5.118878209400432,5.118878209400432,5.118878209400432,5.118878209400432,5.118878209400432,5.118878209400432,5.118878209400432,5.118878209400432,5.118878209400432,5.118878209400432,5.118878209400432,5.118878209400432,5.118878209400432,5.118878209400432,5.118878209400432,5.118878209400432,5.118878209400432,5.118878209400432,5.118878209400432,5.118878209400432,5.118878209400432,5.118878209400432,5.118878209400432,5.118878209400432,5.118878209400432,5.118878209400432,5.118878209400432,5.118878209400432,5.118878209400432,5.118878209400432,5.118878209400432,5.118878209400432,5.118878209400432,5.118878209400432,5.118878209400432,5.118878209400432,5.118878209400432,5.118878209400432,5.118878209400432,5.118878209400432,5.118878209400432,5.118878209400432,5.118878209400432,5.118878209400432,5.118878209400432,5.118878209400432,5.118878209400432,5.118878209400432,5.118878209400432,5.118878209400432,5.118878209400432,5.118878209400432,5.118878209400432,5.118878209400432,5.118878209400432,5.118878209400432,5.118878209400432,5.118878209400432,5.118878209400432,5.118878209400432,5.118878209400432,5.118878209400432,5.118878209400432,5.118878209400432,5.118878209400432,5.118878209400432,5.118878209400432,5.118878209400432,5.118878209400432,5.118878209400432,5.118878209400432,5.118878209400432,5.118878209400432,5.118878209400432,5.118878209400432,5.118878209400432,5.118878209400432,5.118878209400432,5.118878209400432,5.118878209400432,5.118878209400432,5.118878209400432,5.118878209400432,5.118878209400432,5.118878209400432,5.118878209400432,5.118878209400432,5.118878209400432,5.118878209400432,5.118878209400432,5.118878209400432,5.118878209400432,5.118878209400432,5.118878209400432,5.118878209400432,5.118878209400432,5.118878209400432,5.118878209400432,5.118878209400432,5.118878209400432,5.118878209400432,5.118878209400432,5.118878209400432,5.118878209400432,5.118878209400432,5.118878209400432,5.118878209400432,5.118878209400432,5.118878209400432,5.118878209400432,5.118878209400432,5.118878209400432,5.118878209400432,5.118878209400432,5.118878209400432,5.118878209400432,5.118878209400432,5.118878209400432,5.118878209400432,5.118878209400432,5.118878209400432,5.118878209400432,5.118878209400432,5.118878209400432,5.118878209400432,5.118878209400432,5.118878209400432,5.118878209400432,5.118878209400432,5.118878209400432,5.118878209400432,5.118878209400432,5.118878209400432,5.118878209400432,5.118878209400432,5.118878209400432,5.118878209400432,5.118878209400432,5.118878209400432,5.118878209400432,5.118878209400432,5.118878209400432,5.118878209400432,5.118878209400432,5.118878209400432,5.118878209400432,5.118878209400432,5.118878209400432,5.118878209400432,5.118878209400432,5.118878209400432,5.118878209400432,5.118878209400432,5.118878209400432,5.118878209400432,5.118878209400432,5.118878209400432,5.118878209400432,5.118878209400432,5.118878209400432,5.118878209400432,5.118878209400432,5.118878209400432,5.118878209400432,5.118878209400432,5.118878209400432,5.118878209400432,5.118878209400432,5.118878209400432,5.118878209400432,5.118878209400432,5.118878209400432,5.118878209400432,5.118878209400432,5.118878209400432,5.118878209400432,5.118878209400432,5.118878209400432,5.118878209400432,5.118878209400432,5.118878209400432,5.118878209400432,5.118878209400432,5.118878209400432,5.118878209400432,5.118878209400432,5.118878209400432,5.118878209400432,5.118878209400432,5.118878209400432,5.118878209400432,5.118878209400432,5.118878209400432,5.118878209400432,5.118878209400432,5.118878209400432,5.118878209400432,5.118878209400432,5.118878209400432,5.118878209400432,5.118878209400432,5.118878209400432,5.118878209400432,5.118878209400432,5.118878209400432,5.118878209400432,5.118878209400432,5.118878209400432,5.118878209400432,5.118878209400432,5.118878209400432,5.118878209400432,5.118878209400432,5.118878209400432,5.118878209400432,5.118878209400432,5.118878209400432,5.118878209400432,5.118878209400432,5.118878209400432,5.118878209400432,5.118878209400432,5.118878209400432,5.118878209400432,5.118878209400432,5.118878209400432,5.118878209400432,5.118878209400432,5.118878209400432,5.118878209400432,5.118878209400432,5.118878209400432,5.118878209400432,5.118878209400432,5.118878209400432,5.118878209400432,5.118878209400432,5.118878209400432,5.118878209400432,5.118878209400432,5.118878209400432,5.118878209400432,5.118878209400432,5.118878209400432,5.118878209400432,5.118878209400432,5.118878209400432,5.118878209400432,5.118878209400432,5.118878209400432,5.118878209400432,5.118878209400432,5.118878209400432,5.118878209400432,5.118878209400432,5.118878209400432,5.118878209400432,5.118878209400432,5.118878209400432,5.118878209400432,5.118878209400432,5.118878209400432,5.118878209400432,5.118878209400432,5.118878209400432,5.118878209400432,5.118878209400432,5.118878209400432,5.118878209400432,5.118878209400432,5.118878209400432,5.118878209400432,5.118878209400432,5.118878209400432,5.118878209400432,5.118878209400432,5.118878209400432,5.118878209400432,5.118878209400432,5.118878209400432,5.118878209400432,5.118878209400432,5.118878209400432,5.118878209400432,5.118878209400432,5.118878209400432,5.118878209400432,5.118878209400432,5.118878209400432,5.118878209400432,5.118878209400432,5.118878209400432,5.118878209400432,5.118878209400432,5.118878209400432,5.118878209400432,5.118878209400432,5.118878209400432,5.118878209400432,5.118878209400432,5.118878209400432,5.118878209400432,5.118878209400432,5.118878209400432,5.118878209400432,5.118878209400432,5.118878209400432,5.118878209400432,5.118878209400432,5.118878209400432,5.118878209400432,5.118878209400432,5.118878209400432,5.118878209400432,5.118878209400432,5.118878209400432,5.118878209400432,5.118878209400432,5.118878209400432,5.118878209400432,5.118878209400432,5.118878209400432,5.118878209400432,5.118878209400432,5.118878209400432,5.118878209400432,5.118878209400432,5.118878209400432,5.118878209400432,5.118878209400432,5.118878209400432,5.118878209400432,5.118878209400432,5.118878209400432,5.118878209400432,5.118878209400432,5.118878209400432,5.118878209400432,5.118878209400432,5.118878209400432,5.118878209400432,5.118878209400432,5.118878209400432,5.118878209400432,5.118878209400432,5.118878209400432,5.118878209400432,5.118878209400432,5.118878209400432,5.118878209400432,5.118878209400432,5.118878209400432,5.118878209400432,5.118878209400432,5.118878209400432,5.118878209400432,5.118878209400432,5.118878209400432,5.118878209400432,5.118878209400432,5.118878209400432,5.118878209400432,5.118878209400432,5.118878209400432,5.118878209400432,5.118878209400432,5.118878209400432,5.118878209400432,5.118878209400432,5.118878209400432,5.118878209400432,5.118878209400432,5.118878209400432,5.118878209400432,5.118878209400432,5.118878209400432,5.118878209400432,5.118878209400432,5.118878209400432,5.118878209400432,5.118878209400432,5.118878209400432,5.118878209400432,5.118878209400432,5.118878209400432,5.118878209400432,5.118878209400432,5.118878209400432,5.118878209400432,5.118878209400432,5.118878209400432,5.118878209400432,5.118878209400432,5.118878209400432,5.118878209400432,5.118878209400432,5.118878209400432,5.118878209400432,5.118878209400432,5.118878209400432,5.118878209400432,5.118878209400432,5.118878209400432,5.118878209400432,5.118878209400432,5.118878209400432,5.118878209400432,5.118878209400432,5.118878209400432,5.118878209400432,5.118878209400432,5.118878209400432,5.118878209400432,5.118878209400432,5.118878209400432,5.118878209400432,5.118878209400432,5.118878209400432,5.118878209400432,5.118878209400432,5.118878209400432,5.118878209400432,5.118878209400432,5.118878209400432,5.118878209400432,5.118878209400432,5.118878209400432,5.118878209400432,5.118878209400432,5.118878209400432,5.118878209400432,5.118878209400432,5.118878209400432,5.118878209400432,5.118878209400432,5.118878209400432,5.118878209400432,5.118878209400432,5.118878209400432,5.118878209400432,5.118878209400432,5.118878209400432,5.118878209400432,5.118878209400432,5.118878209400432,5.118878209400432,5.118878209400432,5.118878209400432,5.118878209400432,5.118878209400432,5.118878209400432,5.118878209400432,5.118878209400432,5.118878209400432,5.118878209400432,5.118878209400432,5.118878209400432,5.118878209400432,5.118878209400432,5.118878209400432,5.118878209400432,5.118878209400432,5.118878209400432,5.118878209400432,5.118878209400432,5.118878209400432,5.118878209400432,5.118878209400432,5.118878209400432,5.118878209400432,5.118878209400432,5.118878209400432,5.118878209400432,5.118878209400432,5.118878209400432,5.118878209400432,5.118878209400432,5.118878209400432,5.118878209400432,5.118878209400432,5.118878209400432,5.118878209400432,5.118878209400432,5.118878209400432,5.118878209400432,5.118878209400432,5.118878209400432,5.118878209400432,5.118878209400432,5.118878209400432,5.118878209400432,5.118878209400432,5.118878209400432,5.118878209400432,5.118878209400432,5.118878209400432,5.118878209400432,5.118878209400432,5.118878209400432,5.118878209400432,5.118878209400432,5.118878209400432,5.118878209400432,5.118878209400432,5.118878209400432,5.118878209400432,5.118878209400432,5.118878209400432,5.118878209400432,5.118878209400432,5.118878209400432,5.118878209400432,5.118878209400432,5.118878209400432,5.118878209400432,5.118878209400432,5.118878209400432,5.118878209400432,5.118878209400432,5.118878209400432,5.118878209400432,5.118878209400432,5.118878209400432,5.118878209400432,5.118878209400432,5.118878209400432,5.118878209400432,5.118878209400432,5.118878209400432,5.118878209400432,5.118878209400432,5.118878209400432,5.118878209400432,5.118878209400432,5.118878209400432,5.118878209400432,5.118878209400432,5.118878209400432,5.118878209400432,5.118878209400432,5.118878209400432,5.118878209400432,5.118878209400432,5.118878209400432,5.118878209400432,5.118878209400432,5.118878209400432,5.118878209400432,5.118878209400432,5.118878209400432,5.118878209400432,5.118878209400432,5.118878209400432,5.118878209400432,5.118878209400432,5.118878209400432,5.118878209400432,5.118878209400432,5.118878209400432,5.118878209400432,5.118878209400432,5.118878209400432,5.118878209400432,5.118878209400432,5.118878209400432,5.118878209400432,5.