[{"nsides":6,"instructions":"Let's define a new operation <img src=\"./images/hexagon_symbol.png\" style=\"width:14px;height:14px\">. This operation will give us a way of combining two of the numbers 0, 1, 2, 3, 4, 5 to get another one of them back. Consider the hexagon at the right, where I've labeled each point with one of the numbers. To perform <img src=\"./images/hexagon_symbol.png\" style=\"width:14px;height:14px\">, you can use the interactive diagram on the right, or perform the operation in your mind. or perform the operation in your mind. Point the arrow at the first number on the hexagon, then move the arrow the second number of points clockwise around the hexagon. The number the arrow arrives at is your result. (The operation is called <img src=\"./images/hexagon_symbol.png\" style=\"width:14px;height:14px\"> because it uses the hexagon, which has 6 sides.) <br /><br />For example, 3 <img src=\"./images/hexagon_symbol.png\" style=\"width:14px;height:14px\"> 5 = 2,  because  5 steps clockwise from 3 on the hexagon brings us to 2. So 3 <img src=\"./images/hexagon_symbol.png\" style=\"width:14px;height:14px\"> 5 = 2.<br /><br />Similarly, 1 <img src=\"./images/hexagon_symbol.png\" style=\"width:14px;height:14px\"> 4 = 5, because 4 steps clockwise from 1 brings us to 5. <br /><br />Click \"Continue\" when you are ready to move on.","orientation_history":[0],"rt":81438,"trial_type":"polygon-arrow-instructions","trial_index":0,"trial_index_global":1,"time_elapsed":159906,"internal_chunk_id":"0-0"},{"nsides":6,"question":"Now try one on your own! What is 4 <img src=\"./images/hexagon_symbol.png\" style=\"width:14px;height:14px\"> 5? <br /><br /> (Remember, to perform <img src=\"./images/hexagon_symbol.png\" style=\"width:14px;height:14px\">, you can use the interactive diagram on the right, or perform the operation in your mind. Point the arrow at the first number on the hexagon, then move the arrow the second number of points clockwise around the he xagon. T he number the arrow arrives at is your result.)","response_type":"free","response_choices":[],"correct_response":"3","response":"3","orientation_history":[[0]],"response_history":["1","3"],"rt":30169,"trial_type":"polygon-arrow-question","trial_index":0,"trial_index_global":2,"time_elapsed":190082,"internal_chunk_id":"0-0.2-0"},{"nsides":6,"feedback":"Correct! 4 <img src=\"./images/hexagon_symbol.png\" style=\"width:14px;height:14px\"> 5 = 3 because 5 steps clockwise on the hexagon from 4 brings us to 3","orientation_history":[0],"rt":7571,"trial_type":"polygon-arrow-feedback","trial_index":0,"trial_index_global":3,"time_elapsed":197662,"internal_chunk_id":"0-0.2-0"},{"nsides":6,"question":"What is 3 <img src=\"./images/hexagon_symbol.png\" style=\"width:14px;height:14px\"> 2? <br /><br /> (Remember, to perform <img src=\"./images/hexagon_symbol.png\" style=\"width:14px;height:14px\">, you can use the interactive diagram on the right, or perform the operation in your mind. P oint the  arrow at the first number on the hexagon, then move the arrow the second number of points clockwise around the hexagon. The number the arrow arrives at is your result.)","response_type":"free","response_choices":[],"correct_response":"5","response":"5","orientation_history":[[0]],"response_history":["5"],"rt":8543,"trial_type":"polygon-arrow-question","trial_index":0,"trial_index_global":4,"time_elapsed":206212,"internal_chunk_id":"0-0.2-0"},{"nsides":6,"feedback":"Correct! 3 <img src=\"./images/hexagon_symbol.png\" style=\"width:14px;height:14px\"> 2 = 5 because 2 steps clockwise on the hexagon from 3 brings us to 5","orientation_history":[0],"rt":1536,"trial_type":"polygon-arrow-feedback","trial_index":0,"trial_index_global":5,"time_elapsed":207751,"internal_chunk_id":"0-0.2-0"},{"nsides":6,"question":"What is 1 <img src=\"./images/hexagon_symbol.png\" style=\"width:14px;height:14px\"> 5? <br /><br /> (Remember, to perform <img src=\"./images/hexagon_symbol.png\" style=\"width:14px;height:14px\">, you can use the interactive diagram on the right, or perform the operation in your mind. Point the arrow at the first number on the hexagon, then move the arrow the second number of points clockwise around the hexagon. The number the arrow arrives at is your result.)","response_type":"free","response_choices":[],"correct_response":"0","response":"0","orientation_history":[[0]],"response_history":["0"],"rt":6618,"trial_type":"polygon-arrow-question","trial_index":0,"trial_index_global":6,"time_elapsed":214374,"internal_chunk_id":"0-0.2-0"},{"nsides":6,"feedback":"Correct! 1 <img src=\"./images/hexagon_symbol.png\" style=\"width:14px;height:14px\"> 5 = 0 because 5 steps clockwise on the hexagon from 1 brings us to 0","orientation_history":[0],"rt":1917,"trial_type":"polygon-arrow-feedback","trial_index":0,"trial_index_global":7,"time_elapsed":216294,"internal_chunk_id":"0-0.2-0"},{"nsides":6,"question":"What is 1 <img src=\"./images/hexagon_symbol.png\" styl e=\"width:14px;height:14px\"> 1? <br /><br /> (Remember, to perform <img src=\"./images/hexagon_symbol.png\" style=\"width:14px;height:14px\">, you can use the interactive diagram on the right, or perform the operation in your mind. Point the arrow at the first number on the hexagon, then move the arrow the second number of points clockwise around the hexagon. The number the arrow arrives at is your result.)","response_type":"free","response_choices":[],"correct_response":"2","response":"2","orientation_history":[[0]],"response_history":["2"],"rt":6331,"trial_type":"polygon-arrow-question","trial_index":0,"trial_index_global":8,"time_elapsed":222627,"internal_chunk_id":"0-0.2-0"},{"nsides":6,"feedback":"Correct! 1 <img src=\"./images/hexagon_symbol.png\" style=\"width:14px;height:14px\"> 1 = 2 because 1 steps clockwise on the hexagon from 1 brings us to 2","orientation_history":[0],"rt":1231,"trial_type":"polygon-arrow-feedback","trial_index":0,"trial_index_global":9,"time_elapsed":223862,"internal_chunk_id":"0-0.2-0"},{"nsides":6,"question":"What is 3 <img src=\"./images/hexagon_symbol.png\" style=\"width:14px;height:14px\"> 0? <br /><br /> (Remember, to perform <img src=\"./images/hexagon_symbol.png\" style=\"width:14px;height:14px\">, you can use the interactive diagram on the right, or perform the operation in your mind. Point the arrow at the first number on the hexagon, then move the arrow the second number of points clockwise around the hexagon. The number the arrow arrives at is your result.)","response_type":"free","response_choices":[],"correct_response":"3","response":"3","orientation_history":[[0]],"response_history":["3"],"rt":5266,"trial_type":"polygon-arrow-question","trial_index":0,"trial_index_global":10,"time_elapsed":229133,"internal_chunk_id":"0-0.2-0"},{"nsides":6,"feedback":"Correct! 3 <img src=\"./images/hexagon_symbol.png\" style=\"width:14px;height:14px\"> 0 = 3 because 0 steps clockwise on the hexagon from 3 brings us to 3","orientation_history":[0],"rt":4610,"trial_type":"polygon-arrow-feedback","trial_index":0,"trial_index_global":11,"time_elapsed":233747,"internal_chunk_id":"0-0.2-0"},{"nsides":6,"question":"What is 4 <img src=\"./images/hexagon_symbol.png\" style=\"width:14px;height:14px\"> 4? <br /><br /> (Remember, to perform <img src=\"./images/hexagon_symbol.png\" style=\"width:14px;height:14px\">, you can use the interactive diagram on the right, or perform the operation in your mind. Point the arrow at the first number on the hexagon, then move the arrow the second number of points clockwise around the hexagon. The number the arrow arrives at is your result.)","response_type":"free","response_choices":[],"correct_response":"2","response":"2","orientation_history":[[0]],"response_history":["2"],"rt":145934,"trial_type":"polygon-arrow-question","trial_index":0,"trial_index_global":12,"time_elapsed":379686,"internal_chunk_id":"0-0.2-0"},{"nsides":6,"feedback":"Correct! 4 <img src=\"./images/hexagon_symbol.png\" s tyle=\"width:14px;height:14px\"> 4 = 2 because 4 steps clockwise on the hexagon from 4 brings us to 2","orientation_history":[0],"rt":1314,"trial_type":"polygon-arrow-feedback","trial_index":0,"trial_index_global":13,"time_elapsed":381004,"internal_chunk_id":"0-0.2-0"},{"nsides":6,"question":"What is 1 <img src=\"./images/hexagon_symbol.png\" style=\"width:14px;height:14px\"> 3? <br /><br /> (Remember, to perform <img src=\"./images/hexagon_symbol.png\" style=\"width:14px;height:14px\">, you can use the interactive diagram on the right, or perform the operation in your mind. Point the arrow at the first number on the hexagon, then move the arrow the second number of points clockwise around the hexagon. The number the arrow arrives at is your result.)","response_type":"free","response_choices":[],"correct_response":"4","response":"4","orientation_history":[[0]],"response_history":["4"],"rt":4177,"trial_type":"polygon-arrow-question","trial_index":0,"trial_index_global":14,"time_elapsed":385186,"internal_chunk_id":"0-0.2-0"},{"nsides":6,"feedback":"Correct! 1 <img src=\"./images/hexagon_symbol.png\" style=\"width:14px;height:14px\"> 3 = 4 because 3 steps clockwise on the hexagon from 1 brings us to 4","orientation_history":[0],"rt":1168,"trial_type":"polygon-arrow-feedback","trial_index":0,"trial_index_global":15,"time_elapsed":386361,"internal_chunk_id":"0-0.2-0"},{"nsides":6,"question":"What is 4 <img src=\"./images/hexagon_symbol.png\" style=\"width:14px;height:14px\"> 3? <br /><br /> (Remember, to perform <img src=\"./images/hexagon_symbol.png\" style=\"width:14px;height:14px\">, you can use the interactive diagram on the right, or perform the operation in your mind. Point the arrow at the first number on the hexagon, then move the arrow the second number of points clockwise around the hexagon. The number the arrow arrives at is your result.)","response_type":"free","response_choices":[],"correct_response":"1","response":"1","orientation_history":[[0]],"response_history":["1"],"rt":3794,"trial_type":"polygon-arrow-question","trial_index":0,"trial_index_global":16,"time_elapsed":390157,"internal_chunk_id":"0-0.2-0"},{"nsides":6,"feedback":"Correct! 4 <img src=\"./images/hexagon_symbol.png\" style=\"width:14px;height:14px\"> 3 = 1 because 3 steps clockwise on the hexagon from 4 brings us to 1","orientation_history":[0],"rt":1039,"trial_type":"polygon-arrow-feedback","trial_index":0,"trial_index_global":17,"time_elapsed":391198,"internal_chunk_id":"0-0.2-0"},{"nsides":6,"question":"What is 0 <img src=\"./images/hexagon_symbol.png\" style=\"width:14px;height:14px\"> 5? <br /><br /> (Remember, to perform <img src=\"./images/hexagon_symbol.png\" style=\"width:14px;height:14px\">, you can use the interactive diagram on the right, or perform the operation in your mind. Point the arrow at the first number on the hexagon, then move the arrow the second number of points clockwise around the hexagon. The number the arrow arrives at is your  result. )","response_type":"free","response_choices":[],"correct_response":"5","response":"5","orientation_history":[[0]],"response_history":["5"],"rt":5696,"trial_type":"polygon-arrow-question","trial_index":0,"trial_index_global":18,"time_elapsed":396896,"internal_chunk_id":"0-0.2-0"},{"nsides":6,"feedback":"Correct! 0 <img src=\"./images/hexagon_symbol.png\" style=\"width:14px;height:14px\"> 5 = 5 because 5 steps clockwise on the hexagon from 0 brings us to 5","orientation_history":[0],"rt":1014,"trial_type":"polygon-arrow-feedback","trial_index":0,"trial_index_global":19,"time_elapsed":397913,"internal_chunk_id":"0-0.2-0"},{"nsides":6,"question":"What is 2 <img src=\"./images/hexagon_symbol.png\" style=\"width:14px;height:14px\"> 5? <br /><br /> (Remember, to perform <img src=\"./images/hexagon_symbol.png\" style=\"width:14px;height:14px\">, you can use the interactive diagram on the right, or perform the operation in your mind. Point the arrow at the first number on the hexagon , then m ove the arrow the second number of points clockwise around the hexagon. The number the arrow arrives at is your result.)","response_type":"free","response_choices":[],"correct_response":"1","response":"1","orientation_history":[[0]],"response_history":["1"],"rt":8423,"trial_type":"polygon-arrow-question","trial_index":0,"trial_index_global":20,"time_elapsed":406339,"internal_chunk_id":"0-0.2-0"},{"nsides":6,"feedback":"Correct! 2 <img src=\"./images/hexagon_symbol.png\" style=\"width:14px;height:14px\"> 5 = 1 because 5 steps clockwise on the hexagon from 2 brings us to 1","orientation_history":[0],"rt":1018,"trial_type":"polygon-arrow-feedback","trial_index":0,"trial_index_global":21,"time_elapsed":407361,"internal_chunk_id":"0-0.2-0"},{"nsides":6,"instructions":"Now we're going to discuss a couple special properties of this new operation, <img src=\"./images/hexagon_symbol.png\" style=\"width:14px;height:14px\"> that we've learned. First, notice that the number 0 behaves in  a speci al way under <img src=\"./images/hexagon_symbol.png\" style=\"width:14px;height:14px\">. Whenever we combine 0 with anything else, we get that same thing back. We'll say that 0 is the <i>identity</i> under <img src=\"./images/hexagon_symbol.png\" style=\"width:14px;height:14px\">, because when you combine it with something it gives you that identical thing back.","orientation_history":[0],"rt":20550,"trial_type":"polygon-arrow-instructions","trial_index":0,"trial_index_global":22,"time_elapsed":427950,"internal_chunk_id":"0-0"},{"nsides":6,"instructions":"Now that we know 0 is the identity under <img src=\"./images/hexagon_symbol.png\" style=\"width:14px;height:14px\">, we're going to make a new definition. We'll say that the <i>inverse</i> of a number is the thing that you combine with it to produce the identity under our operation. For example, 5 <img src=\"./images/hexagon_symbol.png\" style=\"width:14px;height:14px\"> 1 = 0, so we say 1 is the inverse of 5 under <img src =\"./images/hexagon_symbol.png\" style=\"width:14px;height:14px\">, (remember 0 is the identity under <img src=\"./images/hexagon_symbol.png\" style=\"width:14px;height:14px\">). Similarly, 3 is its own inverse under <img src=\"./images/hexagon_symbol.png\" style=\"width:14px;height:14px\">, because 3 <img src=\"./images/hexagon_symbol.png\" style=\"width:14px;height:14px\"> 3 = 0.","orientation_history":[0],"rt":76576,"trial_type":"polygon-arrow-instructions","trial_index":0,"trial_index_global":23,"time_elapsed":504532,"internal_chunk_id":"0-0"},{"nsides":6,"question":"Now you try! What is the inverse of 4 under <img src=\"./images/hexagon_symbol.png\" style=\"width:14px;height:14px\">? <br /><br /> (Remember, the inverse of an element is the thing which you combine with it to produce the identity.)","response_type":"free","response_choices":[],"correct_response":"2","response":"2","orientation_history":[[0]],"response_history":["2"],"rt":4341,"trial_type":"polygon-arrow-question","trial_index":0,"trial_index_global":24,"time_elapsed":508876,"internal_chunk_id":"0-0.6-0"},{"nsides":6,"feedback":"Correct! The inverse of 4 under <img src=\"./images/hexagon_symbol.png\" style=\"width:14px;height:14px\"> is 2 because 2 steps clockwise on the hexagon from 4 brings us to 0, and 0 is the identity under <img src=\"./images/hexagon_symbol.png\" style=\"width:14px;height:14px\">.","orientation_history":[0],"rt":973,"trial_type":"polygon-arrow-feedback","trial_index":0,"trial_index_global":25,"time_elapsed":509852,"internal_chunk_id":"0-0.6-0"},{"nsides":6,"question":"What is the inverse of 1 under <img src=\"./images/hexagon_symbol.png\" style=\"width:14px;height:14px\">? <br /><br /> (Remember, the inverse of an element is the thing which you combine with it to produce the identity.)","response_type":"free","response_choices":[],"correct_response":"5","response":"5","orientation_history":[[0]],"response_history":["5"],"rt":5446,"trial_type":"polygon-arrow-question","trial_index":0,"trial_index_global":26,"time_elapsed":515301,"internal_chunk_id":"0-0.6-0"},{"nsides":6,"feedback":"Correct! The inverse of 1 under <img src=\"./images/hexagon_symbol.png\" style=\"width:14px;height:14px\"> is 5 because 5 steps clockwise on the hexagon from 1 brings us to 0, and 0 is the identity under <img src=\"./images/hexagon_symbol.png\" style=\"width:14px;height:14px\">.","orientation_history":[0],"rt":1220,"trial_type":"polygon-arrow-feedback","trial_index":0,"trial_index_global":27,"time_elapsed":516523,"internal_chunk_id":"0-0.6-0"},{"nsides":6,"question":"What is the inverse of 3 under <img src=\"./images/hexagon_symbol.png\" style=\"width:14px;height:14px\">? <br /><br /> (Remember, the inverse of an element is the thing which you combine with it to produce the identity.)","response_type":"free","response_choices":[],"correct_response":"3","response":"3","orientation_history":[[0]],"response_history":["3"],"rt":2697,"trial_type":"polygon-arrow-question","trial_index":0,"trial_index_global":28,"time_elapsed":519224,"internal_chunk_id":"0-0.6-0"},{"nsides":6,"feedback":"Correct! The inverse of 3 under <img src=\"./images/hexagon_symbol.png\" style=\"width:14px;height:14px\"> is 3 because 3 steps clockwise on the hexagon from 3 brings us to 0, and 0 is the identity under <img src=\"./images/hexagon_symbol.png\" style=\"width:14px;height:14px\">.","orientation_history":[0],"rt":787,"trial_type":"polygon-arrow-feedback","trial_index":0,"trial_index_global":29,"time_elapsed":520013,"internal_chunk_id":"0-0.6-0"},{"nsides":6,"question":"What is the inverse of 2 under <img src=\"./images/hexagon_symbol.png\" style=\"width:14px;height:14px\">? <br /><br /> (Remember, the inverse of an element is the thing which you combine with it to produce the identity.)","response_type":"free","response_choices":[],"correct_response":"4","response":"4","orientation_history":[[0]],"response_history":["4"],"rt":3925,"trial_type":"polygon-arrow-question","trial_index":0,"trial_index_global":30,"time_elapsed":523941,"internal_chunk_id":"0-0.6-0"},{"nsides":6,"feedback":"Correct! The inverse of 2 under <img src=\"./images/hexagon_symbol.png\" style=\"width:14px;height:14px\"> is 4 because 4 steps clockwise on the hexagon from 2 brings us to 0, and 0 is the identity under <img src=\"./images/hexagon_symbol.png\" style=\"width:14px;height:14px\">.","orientation_history":[0],"rt":871,"trial_type":"polygon-arrow-feedback","trial_index":0,"trial_index_global":31,"time_elapsed":524815,"internal_chunk_id":"0-0.6-0"},{"nsides":6,"question":"What is the inverse of 0 under <img src=\"./images/hexagon_symbol.png\" style=\"width:14px;height:14px\">? <br /><br /> (Remember, the inverse of an element is the thing which you combine with it to produce the identity.)","response_type":"free","response_choices":[],"correct_response":"0","response":"0","orientation_history":[[0]],"response_history":["0"],"rt":4808,"trial_type":"polygon-arrow-question","trial_index":0,"trial_index_global":32,"time_elapsed":529628,"internal_chunk_id":"0-0.6-0"},{"nsides":6,"feedback":"Correct! The inverse of 0 under <img src=\"./images/hexagon_symbol.png\" style=\"width:14px;height:14px\"> is 0 because 0 steps clockwise on the hexagon from 0 brings us to 0, and 0 is the identity under <img src=\"./images/hexagon_symbol.png\" style=\"width:14px;height:14px\">.","orientation_history":[0],"rt":1076,"trial_type":"polygon-arrow-feedback","trial_index":0,"trial_index_global":33,"time_elapsed":530706,"internal_chunk_id":"0-0.6-0"},{"instructions":"It is also possible to successively apply <img src=\"./images/hexagon_symbol.png\" style=\"width:14px;height:14px\">, and the operation can simply be performed starting with the left-most pair. For example, 2 <img src=\"./images/hexagon_symbol.png\" style=\"width:14px;height:14px\"> 3 <img src=\"./images/hexagon_symbol.png\" style=\"width:14px;height:14px\"> 4 = 5 <img src=\"./images/hexagon_symbol.png\" style=\"width:14px;height:14px\"> 4 = 3.","rt":10343,"trial_type":"instructions","trial_index":0,"trial_index_global":34,"time_elapsed":541052,"internal_chunk_id":"0-0"},{"nsides":6,"instructions":"We have one last definition to learn today. Let's start with an example. Under our operation <img src=\"./images/hexagon_symbol.png\" style=\"width:14px;height:14px\"> we can make every other number using just 1: 2 = 1 <img src=\"./images/hexagon_symbol.png\" style=\"width:14px;height:14px\"> 1, 3 = 1 <img src=\"./images/hexagon_symbol.png\" style=\"width:14px;height:14px\"> 1 <img src=\"./images/hexagon_symbol.png\" style=\"width:14px;height:14px\"> 1, 4 = 1 <img src=\"./images/hexagon_symbol.png\" style=\"width:14px;height:14px\"> 1 <img src=\"./images/hexagon_symbol.png\" style=\"width:14px;height:14px\"> 1 <img src=\"./images/hexagon_symbol.png\" style=\"width:14px;height:14px\"> 1, 5 = 1 <img src=\"./images/hexagon_symbol.png\" style=\"width:14px;height:14px\"> 1 <img src=\"./images/hexagon_symbol.png\"  style=\"width:14px;height:14px\"> 1 <img src=\"./images/hexagon_symbol.png\" style=\"width:14px;height:14px\"> 1 <img src=\"./images/hexagon_symbol.png\" style=\"width:14px;height:14px\"> 1, and 0 = 1 <img src=\"./images/hexagon_symbol.png\" style=\"width:14px;height:14px\"> 1 <img src=\"./images/hexagon_symbol.png\" style=\"width:14px;height:14px\"> 1 <img src=\"./images/hexagon_symbol.png\" style=\"width:14px;height:14px\"> 1 <img src=\"./images/hexagon_symbol.png\" style=\"width:14px;height:14px\"> 1 <img src=\"./images/hexagon_symbol.png\" style=\"width:14px;height:14px\"> 1. Because 1 can make every other element under <img src=\"./images/hexagon_symbol.png\" style=\"width:14px;height:14px\">, we say that 1 is a <i>generator</i> under <img src=\"./images/hexagon_symbol.png\" style=\"width:14px;height:14px\">. <br /><br /> However, 2 is not a generator under <img src=\"./images/hexagon_symbol.png\" style=\"width:14px;height:14px\">, because 4 = 2 <img src=\"./images/hexagon_symbol.png\" style=\"width:14px;height:14px\"> 2, and 0 = 2 <img src=\"./images/hexagon_symbol.png\" style=\"width:14px;height:14px\"> 2 <img src=\"./images/hexagon_symbol.png\" style=\"width:14px;height:14px\"> 2, but there is no way to make 1, 3, or 5 using just 2.","orientation_history":[0],"rt":718220,"trial_type":"polygon-arrow-instructions","trial_index":0,"trial_index_global":35,"time_elapsed":1259306,"internal_chunk_id":"0-0"},{"nsides":6,"question":"Now you try! Is 3 a generator under <img src=\"./images/hexagon_symbol.png\" style=\"width:14px;height:14px\">? <br /><br /> (Remember, a generator is an element which can make every other element.)","response_type":"multi","response_choices":["Yes","No"],"correct_response":"No","response":"Yes","orientation_history":[[0]],"response_history":["Yes"],"rt":18548,"trial_type":"polygon-arrow-question","trial_index":0,"trial_index_global":36,"time_elapsed":1277953,"internal_chunk_id":"0-0.9-0"},{"nsides":6,"feedback":"Sorry, that 's incor rect. 3 is not a generator under <img src=\"./images/hexagon_symbol.png\" style=\"width:14px;height:14px\">, because 3 = 3, 0 = 3 <img src=\"./images/hexagon_symbol.png\" style=\"width:14px;height:14px\"> 3, but there is no way to make 1, 2, 4, or 5 using just 3.","orientation_history":[0],"rt":16965,"trial_type":"polygon-arrow-feedback","trial_index":0,"trial_index_global":37,"time_elapsed":1294951,"internal_chunk_id":"0-0.9-0"},{"nsides":6,"question":"Is 5 a generator under <img src=\"./images/hexagon_symbol.png\" style=\"width:14px;height:14px\">? <br /><br /> (Remember, a generator is an element which can make every other element.)","response_type":"multi","response_choices":["Yes","No"],"correct_response":"Yes","response":"Yes","orientation_history":[[0]],"response_history":["Yes"],"rt":112769,"trial_type":"polygon-arrow-question","trial_index":0,"trial_index_global":38,"time_elapsed":1407725,"internal_chunk_id":"0-0.9-0"},{"nsides":6,"feedback":"Correct! 5 is a generat or under  <img src=\"./images/hexagon_symbol.png\" style=\"width:14px;height:14px\">, because 5 = 5, 4 = 5 <img src=\"./images/hexagon_symbol.png\" style=\"width:14px;height:14px\"> 5, 3 = 5 <img src=\"./images/hexagon_symbol.png\" style=\"width:14px;height:14px\"> 5 <img src=\"./images/hexagon_symbol.png\" style=\"width:14px;height:14px\"> 5, 2 = 5 <img src=\"./images/hexagon_symbol.png\" style=\"width:14px;height:14px\"> 5 <img src=\"./images/hexagon_symbol.png\" style=\"width:14px;height:14px\"> 5 <img src=\"./images/hexagon_symbol.png\" style=\"width:14px;height:14px\"> 5, 1 = 5 <img src=\"./images/hexagon_symbol.png\" style=\"width:14px;height:14px\"> 5 <img src=\"./images/hexagon_symbol.png\" style=\"width:14px;height:14px\"> 5 <img src=\"./images/hexagon_symbol.png\" style=\"width:14px;height:14px\"> 5 <img src=\"./images/hexagon_symbol.png\" style=\"width:14px;height:14px\"> 5, and 0 = 5 <img src=\"./images/hexagon_symbol.png\" style=\"width:14px;height:14px\"> 5 <img src=\"./images/hexagon_symbol.png\" style=\"width:14px;height:14px\"> 5 <img src=\"./images/hexagon_symbol.png\" style=\"width:14px;height:14px\"> 5 <img src=\"./images/hexagon_symbol.png\" style=\"width:14px;height:14px\"> 5 <img src=\"./images/hexagon_symbol.png\" style=\"width:14px;height:14px\"> 5, so you can make all of the numbers under <img src=\"./images/hexagon_symbol.png\" style=\"width:14px;height:14px\"> using 5","orientation_history":[0],"rt":2261,"trial_type":"polygon-arrow-feedback","trial_index":0,"trial_index_global":39,"time_elapsed":1410029,"internal_chunk_id":"0-0.9-0"},{"nsides":6,"question":"Is 4 a generator under <img src=\"./images/hexagon_symbol.png\" style=\"width:14px;height:14px\">? <br /><br /> (Remember, a generator is an element which can make every other element.)","response_type":"multi","response_choices":["Yes","No"],"correct_response":"No","response":"Yes","orientation_history":[[0]],"response_history":["Yes"],"rt":23724,"trial_type":"polygon-arrow-quest ion","trial_index":0,"trial_index_global":40,"time_elapsed":1433756,"internal_chunk_id":"0-0.9-0"},{"nsides":6,"feedback":"Sorry, that's incorrect. 4 is not a generator under <img src=\"./images/hexagon_symbol.png\" style=\"width:14px;height:14px\">, because 4 = 4, 2 = 4 <img src=\"./images/hexagon_symbol.png\" style=\"width:14px;height:14px\"> 4, and 0 = 4 <img src=\"./images/hexagon_symbol.png\" style=\"width:14px;height:14px\"> 4 <img src=\"./images/hexagon_symbol.png\" style=\"width:14px;height:14px\"> 4, but there is no way to make 1, 3, or 5 using just 4.","orientation_history":[0],"rt":1728,"trial_type":"polygon-arrow-feedback","trial_index":0,"trial_index_global":41,"time_elapsed":1435569,"internal_chunk_id":"0-0.9-0"},{"nsides":6,"question":"Is 0 a generator under <img src=\"./images/hexagon_symbol.png\" style=\"width:14px;height:14px\">? <br /><br /> (Remember, a generator is an element which can make every other element.)","response_type":"multi","response_choices":["Yes","No"],"correct_response":"No","response":"Yes","orientation_history":[[0]],"response_history":["Yes"],"rt":8544,"trial_type":"polygon-arrow-question","trial_index":0,"trial_index_global":42,"time_elapsed":1444116,"internal_chunk_id":"0-0.9-0"},{"nsides":6,"feedback":"Sorry, that's incorrect. 0 is not a generator under <img src=\"./images/hexagon_symbol.png\" style=\"width:14px;height:14px\">, because 0 = 0, but there is no way to make 1, 2, 3, 4, or 5 using just 0.","orientation_history":[0],"rt":2646,"trial_type":"polygon-arrow-feedback","trial_index":0,"trial_index_global":43,"time_elapsed":1446764,"internal_chunk_id":"0-0.9-0"},{"nsides":9,"instructions":"Now we are going to ask you some questions about a new operation, <img src=\"./images/nonagon_symbol.png\" style=\"width:14px;height:14px\">, on the numbers 0, 1, 2, 3, 4, 5, 6, 7, 8. It works exactly like <img src=\"./images/hexagon_symbol.png\" style=\"width:14px;height:14px\">, except now you use the nonagon shown at the rig ht. <br  /><br />We'll give you one practice question with feedback to make sure you understand the new operation. After that, try to complete the remaining questions as accurately as possible.","orientation_history":[0],"rt":20494,"trial_type":"polygon-arrow-instructions","trial_index":0,"trial_index_global":44,"time_elapsed":1467260,"internal_chunk_id":"0-0"},{"nsides":9,"question":"Practice: What is 5 <img src=\"./images/nonagon_symbol.png\" style=\"width:14px;height:14px\"> 5?","response_type":"free","response_choices":[],"correct_response":"1","response":"1","orientation_history":[[0]],"response_history":["1"],"rt":11061,"trial_type":"polygon-arrow-question","trial_index":0,"trial_index_global":45,"time_elapsed":1478324,"internal_chunk_id":"0-0.11-0"},{"nsides":9,"feedback":"Correct! 5 <img src=\"./images/nonagon_symbol.png\" style=\"width:14px;height:14px\"> 5 = 1 because 5 steps clockwise on the nonagon from 5 brings us to 1","orientation_history":[0],"rt":5192,"trial_type":"p olygon-a rrow-feedback","trial_index":0,"trial_index_global":46,"time_elapsed":1483518,"internal_chunk_id":"0-0.11-0"},{"nsides":9,"question":"What is 3 <img src=\"./images/nonagon_symbol.png\" style=\"width:14px;height:14px\"> 3?","response_type":"free","response_choices":[],"correct_response":"6","response":"6","orientation_history":[[0]],"response_history":["6"],"rt":12436,"trial_type":"polygon-arrow-question","trial_index":0,"trial_index_global":47,"time_elapsed":1495958,"internal_chunk_id":"0-0.11-0"},{"nsides":9,"question":"What is 7 <img src=\"./images/nonagon_symbol.png\" style=\"width:14px;height:14px\"> 4?","response_type":"free","response_choices":[],"correct_response":"2","response":"2","orientation_history":[[0]],"response_history":["2"],"rt":9518,"trial_type":"polygon-arrow-question","trial_index":0,"trial_index_global":48,"time_elapsed":1505481,"internal_chunk_id":"0-0.11-0"},{"nsides":9,"question":"What is 1 <img src=\"./images/nonagon_symbol.png\" style=\"width:14px;height:14px\"> 8?","response_type":"free","response_choices":[],"correct_response":"0","response":"0","orientation_history":[[0]],"response_history":["0"],"rt":7863,"trial_type":"polygon-arrow-question","trial_index":0,"trial_index_global":49,"time_elapsed":1513349,"internal_chunk_id":"0-0.11-0"},{"nsides":9,"question":"What is 5 <img src=\"./images/nonagon_symbol.png\" style=\"width:14px;height:14px\"> 4?","response_type":"free","response_choices":[],"correct_response":"0","response":"0","orientation_history":[[0]],"response_history":["0"],"rt":5949,"trial_type":"polygon-arrow-question","trial_index":0,"trial_index_global":50,"time_elapsed":1519300,"internal_chunk_id":"0-0.11-0"},{"nsides":9,"question":"What is 6 <img src=\"./images/nonagon_symbol.png\" style=\"width:14px;height:14px\"> 6?","response_type":"free","response_choices":[],"correct_response":"3","response":"3","orientation_history":[[0]],"response_history":["3"],"rt":6135,"trial_type":"polygon-arrow-question","trial_index":0,"trial_index_global":51,"time_elapsed":1525438,"internal_chunk_id":"0-0.11-0"},{"nsides":9,"question":"What is 4 <img src=\"./images/nonagon_symbol.png\" style=\"width:14px;height:14px\"> 1? Please explain in words how you got your answer.","response_type":"free","response_choices":[],"correct_response":"","response":"5. I started at the number 4 on the diagram and, moving clockwise, counted one number to the right, which brought me to 5.","orientation_history":[[0]],"response_history":["5 ","5, ","5,","5.. ","5..","5. I started at the number 4 on the diagram and coun","5. I started at the number 4 on the diagram and cou","5. I started at the number 4 on the diagram and co","5. I started at the number 4 on the diagram and c","5. I started at the number 4 on the diagram and counted one number clo","5. I started at the number 4 on the diagram and cou","5. I started at the number 4 on the diagram and co","5. I started at the number 4 on the diagram and c","5. I started at the num ber 4 on  the diagram and ","5. I started at the number 4 on the diagram and, moving clockwise, r","5. I started at the number 4 on the diagram and, moving clockwise, moved one","5. I started at the number 4 on the diagram and, moving clockwise, moved on","5. I started at the number 4 on the diagram and, moving clockwise, moved o","5. I started at the number 4 on the diagram and, moving clockwise, moved ","5. I started at the number 4 on the diagram and, moving clockwise, moved","5. I started at the number 4 on the diagram and, moving clockwise, move","5. I started at the number 4 on the diagram and, moving clockwise, mov","5. I started at the number 4 on the diagram and, moving clockwise, mo","5. I started at the number 4 on the diagram and, moving clockwise, m","5. I started at the number 4 on the diagram and, moving clockwise, counted one number to the right, which brought me to 5."],"rt":53362,"trial_type":"polygon-arrow-question","trial_index":0,"trial_index_global":52,"time_elapsed":1578803,"internal_chunk_id":"0-0.11-0"},{"nsides":9,"question":"What is 8 <img src=\"./images/nonagon_symbol.png\" style=\"width:14px;height:14px\"> 4? Please explain in words how you got your answer.","response_type":"free","response_choices":[],"correct_response":"","response":"3. I started at 8 and counted clockwise 4 numbers to reach number 3.","orientation_history":[[0]],"response_history":["3. I started at 8 and cou","3. I started at 8 and co","3. I started at 8 and c","3. I started at 8 and counted clockwise 4 numbers to reach number 3."],"rt":109519,"trial_type":"polygon-arrow-question","trial_index":0,"trial_index_global":53,"time_elapsed":1688326,"internal_chunk_id":"0-0.11-0"},{"nsides":9,"question":"What is the identity under <img src=\"./images/nonagon_symbol.png\" style=\"width:14px;height:14px\">? Please explain in words how you got your answer.","response_type":"free","response_choices":[],"correct_response":"0","response":"0.  I got 0 as the identity because 0  plus ea ch number equals itself.","orientation_history":[[0]],"response_history":["0.  I got 0 as the identity because 0 ply","0.  I got 0 as the identity because 0 plus each number equals itself."],"rt":42629,"trial_type":"polygon-arrow-question","trial_index":0,"trial_index_global":54,"time_elapsed":1730958,"internal_chunk_id":"0-0.11-0"},{"nsides":9,"question":"What is the inverse of 5 under <img src=\"./images/nonagon_symbol.png\" style=\"width:14px;height:14px\">?","response_type":"free","response_choices":[],"correct_response":"4","response":"5","orientation_history":[[0]],"response_history":["5"],"rt":20380,"trial_type":"polygon-arrow-question","trial_index":0,"trial_index_global":55,"time_elapsed":1751340,"internal_chunk_id":"0-0.11-0"},{"nsides":9,"question":"What is the inverse of 2 under <img src=\"./images/nonagon_symbol.png\" style=\"width:14px;height:14px\">?","response_type":"free","response_choices":[],"correct_response":"7","response":"2","orientation_history":[[0]],"response_history":["2"],"rt":2982,"trial_type":"polygon-arrow-question","trial_index":0,"trial_index_global":56,"time_elapsed":1754325,"internal_chunk_id":"0-0.11-0"},{"nsides":9,"question":"What is the inverse of 3 under <img src=\"./images/nonagon_symbol.png\" style=\"width:14px;height:14px\">? Please explain in words how you got your answer.","response_type":"free","response_choices":[],"correct_response":"","response":"6. Starting at 3 on the image and counting 6 brings me to 0.  I think 0 is the identity.  (I am not sure if I answered the previous few questions correctly, because now I find I am confusing myself). ","orientation_history":[[0]],"response_history":["3.  IF ","3.  IF","3.  I","3.  If I unders","3. I ","3. I","3. ","6? Now I am not sure if I ansswered t","6? Now I am not sure if I ansswered ","6? Now I am not sure if I ansswered","6? Now I am not sure if I ansswere","6? Now I am not sure if I ansswer","6? Now I am not sure if I ansswe","6? Now I am not sure if I  anssw"," 6? Now I am not sure if I anss","6? Now I am not sure if I answered the previous few questions correctly)","6? (Now I am not sure if I answered the previous few questions correctly).  Starting at 3 on the image and cout","6? (Now I am not sure if I answered the previous few questions correctly).  Starting at 3 on the image and counting 6 brings","6? (Now I am not sure if I answered the previous few questions correctly).  Starting at 3 on the image and counting 6 bring","6? (Now I am not sure if I answered the previous few questions correctly).  Starting at 3 on the image and counting 6 brin","6? (Now I am not sure if I answered the previous few questions correctly).  Starting at 3 on the image and counting 6 bri","6? (Now I am not sure if I answered the previous few questions correctly).  Starting at 3 on the image and counting 6 br","6? (Now I am not sure if I answered the previous few questions correctly).  Starting at 3 on the image and counting 6 brings me to 0.  I think  0 is th e identity under this new image.","6? (Now I am not sure if I answered the previous few questions correctly).  Starting at 3 on the image and counting 6 brings","6 (Now I am not sure if I answered the previous few questions correctly).  Starting at 3 on the image and counting 6 brings","6. (Now I am not sure if I answered the previous few questions correctly).  Starting at 3 on the image and counting 6 brings","6? (Now I am not sure if I answered the previous few questions correctly).  Starting at 3 on the image and counting 6 brings","6? (Now I am not sure if I answered the previous few questions correctly).  Starting at 3 on the image and cout","6? (Now I am not sure if I answered the previous few questions correctly)","6? Now I am not sure if I answered the previous few questions correctly)","6? Now I am not sure if I ansswered t","6? Now I am not sure if I answered the previous few questions correctly)","6? (Now I am not sure if I answered the previous few questions corr ectly).   Starting at 3 on the image and cout","6? (Now I am not sure if I answered the previous few questions correctly).  Starting at 3 on the image and counting 6 brings","6. (Now I am not sure if I answered the previous few questions correctly).  Starting at 3 on the image and counting 6 brings me to 0.  I h","6. (Now I am not sure if I answered the previous few questions correctly).  Starting at 3 on the image and counting 6 brings me to 0.  I think 0 is the identity.  ","6.  Starting at 3 on the image and counting 6 brings me to 0.  I think 0 is the identity.  ","6. Starting at 3 on the image and counting 6 brings me to 0.  I think 0 is the identity.  (Now I am not sure if I answered the previous few questions correctly). ","6. Starting at 3 on the image and counting 6 brings me to 0.  I think 0 is the identity.  (ow I am not sure if I answered the previous few questions correctly). ","6. Starting at 3 on the image and counting 6 brings me to 0.  I think 0 is the identity.  (w  I am not  sure if I answered the previous few questions correctly). ","6. Starting at 3 on the image and counting 6 brings me to 0.  I think 0 is the identity.  ( I am not sure if I answered the previous few questions correctly). ","6. Starting at 3 on the image and counting 6 brings me to 0.  I think 0 is the identity.  (I am not sure if I answered the previous few questions correctly). ","6. Starting at 3 on the image and counting 6 brings me to 0.  I think 0 is the identity.  (I am not sure if I answered the previous few questions correctly,). ","6. Starting at 3 on the image and counting 6 brings me to 0.  I think 0 is the identity.  (I am not sure if I answered the previous few questions correctly, ). ","6. Starting at 3 on the image and counting 6 brings me to 0.  I think 0 is the identity.  (I am not sure if I answered the previous few questions correctly, be). ","6. Starting at 3 on the image and counting 6 brings me to 0.  I think 0 is the identity.  (I am not sure if I answ ered the  previous few questions correctly, bec). ","6. Starting at 3 on the image and counting 6 brings me to 0.  I think 0 is the identity.  (I am not sure if I answered the previous few questions correctly, because). ","6. Starting at 3 on the image and counting 6 brings me to 0.  I think 0 is the identity.  (I am not sure if I answered the previous few questions correctly, because ). ","6. Starting at 3 on the image and counting 6 brings me to 0.  I think 0 is the identity.  (I am not sure if I answered the previous few questions correctly, because no). ","6. Starting at 3 on the image and counting 6 brings me to 0.  I think 0 is the identity.  (I am not sure if I answered the previous few questions correctly, because now). ","6. Starting at 3 on the image and counting 6 brings me to 0.  I think 0 is the identity.  (I am not sure if I answered the previous few questions correctly, because now ). ","6. Starting at 3 on the image and counting 6 brings me to 0.  I think 0 is the ide ntity.   (I am not sure if I answered the previous few questions correctly, because now I). ","6. Starting at 3 on the image and counting 6 brings me to 0.  I think 0 is the identity.  (I am not sure if I answered the previous few questions correctly, because now I'). ","6. Starting at 3 on the image and counting 6 brings me to 0.  I think 0 is the identity.  (I am not sure if I answered the previous few questions correctly, because now I''). ","6. Starting at 3 on the image and counting 6 brings me to 0.  I think 0 is the identity.  (I am not sure if I answered the previous few questions correctly, because now I'). ","6. Starting at 3 on the image and counting 6 brings me to 0.  I think 0 is the identity.  (I am not sure if I answered the previous few questions correctly, because now I). ","6. Starting at 3 on the image and counting 6 brings me to 0.  I think 0 is the identity.  (I am not sure if I answered the previous few questions correctly, because now I ). ","6. Starting at 3 o n the im age and counting 6 brings me to 0.  I think 0 is the identity.  (I am not sure if I answered the previous few questions correctly, because now I fi). ","6. Starting at 3 on the image and counting 6 brings me to 0.  I think 0 is the identity.  (I am not sure if I answered the previous few questions correctly, because now I find). ","6. Starting at 3 on the image and counting 6 brings me to 0.  I think 0 is the identity.  (I am not sure if I answered the previous few questions correctly, because now I find ). ","6. Starting at 3 on the image and counting 6 brings me to 0.  I think 0 is the identity.  (I am not sure if I answered the previous few questions correctly, because now I find I ). ","6. Starting at 3 on the image and counting 6 brings me to 0.  I think 0 is the identity.  (I am not sure if I answered the previous few questions correctly, because now I find I am ). ","6. Starting at 3 on the image and counting 6 brings me to 0.  I think 0 is the identity.  (I am not su re if I  answered the previous few questions correctly, because now I find I am con). ","6. Starting at 3 on the image and counting 6 brings me to 0.  I think 0 is the identity.  (I am not sure if I answered the previous few questions correctly, because now I find I am confu). ","6. Starting at 3 on the image and counting 6 brings me to 0.  I think 0 is the identity.  (I am not sure if I answered the previous few questions correctly, because now I find I am confusin). ","6. Starting at 3 on the image and counting 6 brings me to 0.  I think 0 is the identity.  (I am not sure if I answered the previous few questions correctly, because now I find I am confusing). ","6. Starting at 3 on the image and counting 6 brings me to 0.  I think 0 is the identity.  (I am not sure if I answered the previous few questions correctly, because now I find I am confusing m). ","6. Starting at 3 on the image and counting 6 brings me to 0.  I think 0 is the identity.  (I am not sure if I answered the previ ous few  questions correctly, because now I find I am confusing my). ","6. Starting at 3 on the image and counting 6 brings me to 0.  I think 0 is the identity.  (I am not sure if I answered the previous few questions correctly, because now I find I am confusing myse). ","6. Starting at 3 on the image and counting 6 brings me to 0.  I think 0 is the identity.  (I am not sure if I answered the previous few questions correctly, because now I find I am confusing myself). "],"rt":217389,"trial_type":"polygon-arrow-question","trial_index":0,"trial_index_global":57,"time_elapsed":1971716,"internal_chunk_id":"0-0.11-0"},{"nsides":9,"question":"Is 2 a generator under <img src=\"./images/nonagon_symbol.png\" style=\"width:14px;height:14px\">? Please explain in words how you got your answer.","response_type":"free","response_choices":[],"correct_response":"","response":"Yes.  Starting at any number on the image and counting 2 clockwise brings you to a different number.  All numbers in the imag e can be  achieved with 2 as a generator.","orientation_history":[[0]],"response_history":["Yes.  2 ","Yes.  2","Yes.  Starting at 2 on the image a","Yes.  Starting at any number on the image and counting 2 clockwise brings you to a different number.  All numbers in the image can be achieved with 2 as a generator."],"rt":94675,"trial_type":"polygon-arrow-question","trial_index":0,"trial_index_global":58,"time_elapsed":2066393,"internal_chunk_id":"0-0.11-0"},{"nsides":9,"question":"Is 3 a generator under <img src=\"./images/nonagon_symbol.png\" style=\"width:14px;height:14px\">? Please explain in words how you got your answer.","response_type":"free","response_choices":[],"correct_response":"","response":"Yes.  Using the graph at the right, all numbers can be achieved by counting clockwise on the graph.","orientation_history":[[0]],"response_history":["Yes.  All","Yes.  Al","Yes.  A","Yes.  Using the graph at the right, all numbers can be achieved bu","Yes.  Using the graph at the rig ht, all  numbers can be achieved by counting closc","Yes.  Using the graph at the right, all numbers can be achieved by counting clos","Yes.  Using the graph at the right, all numbers can be achieved by counting clocks","Yes.  Using the graph at the right, all numbers can be achieved by counting clockwise on the graph."],"rt":45134,"trial_type":"polygon-arrow-question","trial_index":0,"trial_index_global":59,"time_elapsed":2111533,"internal_chunk_id":"0-0.11-0"},{"nsides":9,"question":"Is 5 a generator under <img src=\"./images/nonagon_symbol.png\" style=\"width:14px;height:14px\">? Please explain in words how you got your answer.","response_type":"free","response_choices":[],"correct_response":"","response":"Yes, if I understand correctly, starting at any number and counting 5 clockwise on the image will bring you to a different number, and all numbers on the graph can be achieved.","orientation_history":[[0]],"response_history":["Yes, if I understand correctly, starting at any numb er and c ounting 5 clockwise on the gr","Yes, if I understand correctly, starting at any number and counting 5 clockwise on the g","Yes, if I understand correctly, starting at any number and counting 5 clockwise on the image will bring you to a different number, and all numbers on the graph can be achieved."],"rt":134876,"trial_type":"polygon-arrow-question","trial_index":0,"trial_index_global":60,"time_elapsed":2246411,"internal_chunk_id":"0-0.11-0"},{"nsides":9,"question":"Is 6 a generator under <img src=\"./images/nonagon_symbol.png\" style=\"width:14px;height:14px\">? Please explain in words how you got your answer.","response_type":"free","response_choices":[],"correct_response":"","response":"I think so.  I think that all numbers on the image can be achieved by counting 6 clockwise. ","orientation_history":[[0]],"response_history":["Yes, if ","Yes, if","Yes, i","Yes, ","Yes,","Yes","Ye","Y","I think so.  I think that all numbers on the image can be achieved by counting 6 clockw ise.  I  ","I think so.  I think that all numbers on the image can be achieved by counting 6 clockwise.  I","I think so.  I think that all numbers on the image can be achieved by counting 6 clockwise.  ","I think so.  I think that all numbers on the image can be achieved by counting 6 clockwise. "],"rt":62543,"trial_type":"polygon-arrow-question","trial_index":0,"trial_index_global":61,"time_elapsed":2308956,"internal_chunk_id":"0-0.11-0"},{"nsides":"n","instructions":"Now we'd like to ask you some questions about <img src=\"./images/ngon_symbol.png\" style=\"width:14px;height:14px\">, where n could be any positive counting number. For example, n could be 3, and the polygon a triangle, or n could be any other counting number you can think of. If you need to write the operation, you can use \"(n)\", and your answers can include n to stand in for the arbitrary value if necessary. (You can use the polygon at the right to think, but it doesn't necessarily correspond to the real polygon,  which is  why we've left most of it dashed.)","orientation_history":[0],"rt":9462,"trial_type":"polygon-arrow-instructions","trial_index":0,"trial_index_global":62,"time_elapsed":2318420,"internal_chunk_id":"0-0"},{"nsides":"n","question":"What is the formula for the inverse of 1 under <img src=\"./images/ngon_symbol.png\" style=\"width:14px;height:14px\">?","response_type":"free","response_choices":[],"correct_response":"n-1","response":"n-1","orientation_history":[[0]],"response_history":["1","n-1"],"rt":29057,"trial_type":"polygon-arrow-question","trial_index":0,"trial_index_global":63,"time_elapsed":2347499,"internal_chunk_id":"0-0.13-0"},{"nsides":"n","question":"What is the formula for the inverse of an element x under <img src=\"./images/ngon_symbol.png\" style=\"width:14px;height:14px\">? Please explain in words why your answer is correct.","response_type":"free","response_choices":[],"correct_response":"n-x","response":"x+2.  The inverse is the number combined with another n umber to  produce the identity, so adding 2 to x will equal the inverse.  ","orientation_history":[[0]],"response_history":["x-1.  ","x-.  ","x.  ","x+.  ","x+2.    ","x+2.  T  ","x+2.  The   ","x+2.  The i  ","x+2.  The in  ","x+2.  The inv  ","x+2.  The inve  ","x+2.  The inver  ","x+2.  The inverse  ","x+2.  The inverse i  ","x+2.  The inverse is   ","x+2.  The inverse is t  ","x+2.  The inverse is the   ","x+2.  The inverse is the n  ","x+2.  The inverse is the nu  ","x+2.  The inverse is the numb  ","x+2.  The inverse is the number   ","x+2.  The inverse is the number co  ","x+2.  The inverse is the number com  ","x+2.  The inverse is the number comb  ","x+2.  The inverse is the number combin  ","x+2.  The inverse is the number combine  ","x+2.  The inverse is the number combined   ","x+2.  The inverse is the number combined w  ","x+2.  The inverse is the number combined wit  ","x+2.  The inverse is the number combined with  ","x+2.  The inverse is the number combined with a  ","x+2.  T he inverse is the number combined with ano  ","x+2.  The inverse is the number combined with anoth  ","x+2.  The inverse is the number combined with anothe  ","x+2.  The inverse is the number combined with another   ","x+2.  The inverse is the number combined with another n  ","x+2.  The inverse is the number combined with another nu  ","x+2.  The inverse is the number combined with another numb  ","x+2.  The inverse is the number combined with another numbe  ","x+2.  The inverse is the number combined with another number   ","x+2.  The inverse is the number combined with another number t  ","x+2.  The inverse is the number combined with another number to   ","x+2.  The inverse is the number combined with another number to pro  ","x+2.  The inverse is the number combined with another number to prod  ","x+2.  The inverse is the number combined with another number to produc  ","x+2.  The inverse is the number combined with another number to produce  ","x+2.  The inverse is the  number  combined with another number to produce t  ","x+2.  The inverse is the number combined with another number to produce the   ","x+2.  The inverse is the number combined with another number to produce the i  ","x+2.  The inverse is the number combined with another number to produce the id  ","x+2.  The inverse is the number combined with another number to produce the ident  ","x+2.  The inverse is the number combined with another number to produce the identi  ","x+2.  The inverse is the number combined with another number to produce the identit  ","x+2.  The inverse is the number combined with another number to produce the identity  ","x+2.  The inverse is the number combined with another number to produce the identity,   ","x+2.  The inverse is the number combined with another number to produce the identity, so   ","x+2.  The inverse is the number combined with another number to produce the identity, so x   ","x+2.  The inverse is the number combined with another number to pr oduce th e identity, so x  ","x+2.  The inverse is the number combined with another number to produce the identity, so   ","x+2.  The inverse is the number combined with another number to produce the identity, so ad  ","x+2.  The inverse is the number combined with another number to produce the identity, so addi  ","x+2.  The inverse is the number combined with another number to produce the identity, so adding   ","x+2.  The inverse is the number combined with another number to produce the identity, so adding 2   ","x+2.  The inverse is the number combined with another number to produce the identity, so adding 2 to   ","x+2.  The inverse is the number combined with another number to produce the identity, so adding 2 to x  ","x+2.  The inverse is the number combined with another number to produce the identity, so adding 2 to x w  ","x+2.  The inverse is the number combined with another number to produce the identity, so adding 2 to x wi  ","x+2.  The inverse is the number combined wit h anothe r number to produce the identity, so adding 2 to x wil  ","x+2.  The inverse is the number combined with another number to produce the identity, so adding 2 to x will   ","x+2.  The inverse is the number combined with another number to produce the identity, so adding 2 to x will e  ","x+2.  The inverse is the number combined with another number to produce the identity, so adding 2 to x will equ  ","x+2.  The inverse is the number combined with another number to produce the identity, so adding 2 to x will equal   ","x+2.  The inverse is the number combined with another number to produce the identity, so adding 2 to x will equal t  ","x+2.  The inverse is the number combined with another number to produce the identity, so adding 2 to x will equal the   ","x+2.  The inverse is the number combined with another number to produce the identity, so adding 2 to x will equal the i  ","x+2.  The inverse is the number combined with another number to produce the identity, so adding 2 to  x will e qual the in  ","x+2.  The inverse is the number combined with another number to produce the identity, so adding 2 to x will equal the inv  ","x+2.  The inverse is the number combined with another number to produce the identity, so adding 2 to x will equal the inve  ","x+2.  The inverse is the number combined with another number to produce the identity, so adding 2 to x will equal the inver  ","x+2.  The inverse is the number combined with another number to produce the identity, so adding 2 to x will equal the inverse  ","x+2.  The inverse is the number combined with another number to produce the identity, so adding 2 to x will equal the inverse.  "],"rt":107629,"trial_type":"polygon-arrow-question","trial_index":0,"trial_index_global":64,"time_elapsed":2455132,"internal_chunk_id":"0-0.13-0"},{"nsides":"n","question":"Is there a pattern to which elements are generators? How can you know if an element x is a generator under <img src=\"./images/ngon_symbol.png\" style=\"width:14px;height:14px\"> without seeing whether it can make all the elements?.","response_type":"free","response_choices":[],"correct_response":"","response":"There is probably a pattern to which elements are generators, but I don't know what it is.  The information provided was not detailed enough for me to fully understand, and I am not sure I have supplied correct answers.  If there is a pattern, then based upon the pattern, one could assume the element is a generator.  For example, if all numbers that are multiples of 3 are generators, it would be clear that 12, 21, 24, etc., are generators.","orientation_history":[[0]],"response_history":["No, there is no pattern to which elements are generators.  IF the","No, there is no pattern to which elements are generators.  IF th","No, there is no pattern to which elements are generators.  IF t","No, there is no pattern to which elements are generators.  IF ","No, there is no pattern to which elements are generators.  IF","No, there is no patt ern to w hich elements are generators.  I","No, there is no pattern to which elements are generators.  Y","No, there is no pattern to which elements are generators.  Without","No, there is no pattern to which elements are generators.  Withou","No, there is no pattern to which elements are generators.  Witho","No, there is no pattern to which elements are generators.  With","No, there is no pattern to which elements are generators.  W","There is probably a pattern to which elements are e","There is probably a pattern to which elements are generators, but I don't w","There is probably a pattern to which elements are generators, but I don't know what it is.  THe ","There is probably a pattern to which elements are generators, but I don't know what it is.  THe","There is probably a pattern to which elements are generators, but I don't know what it is.  TH","There is probably a pattern to which elements are generators, but I don't know what it is.  The information rpovi","There is probabl y a patt ern to which elements are generators, but I don't know what it is.  The information rpov","There is probably a pattern to which elements are generators, but I don't know what it is.  The information rpo","There is probably a pattern to which elements are generators, but I don't know what it is.  The information rp","There is probably a pattern to which elements are generators, but I don't know what it is.  The information r","There is probably a pattern to which elements are generators, but I don't know what it is.  The information provided was not detailed enough for me to fully understand.","There is probably a pattern to which elements are generators, but I don't know what it is.  The information provided was not detailed enough for me to fully understand, and I am not sure I have provided","There is probably a pattern to which elements are generators, but I don't know what it is.  The information provided was not detailed enough for me to fully understand, and I am not s ure I ha ve provide","There is probably a pattern to which elements are generators, but I don't know what it is.  The information provided was not detailed enough for me to fully understand, and I am not sure I have provid","There is probably a pattern to which elements are generators, but I don't know what it is.  The information provided was not detailed enough for me to fully understand, and I am not sure I have provi","There is probably a pattern to which elements are generators, but I don't know what it is.  The information provided was not detailed enough for me to fully understand, and I am not sure I have prov","There is probably a pattern to which elements are generators, but I don't know what it is.  The information provided was not detailed enough for me to fully understand, and I am not sure I have pro","There is probably a pattern to which elements are generators, but I don't know what it is.  The information provided was not detailed enough for me to fully understand, a nd I am  not sure I have pr","There is probably a pattern to which elements are generators, but I don't know what it is.  The information provided was not detailed enough for me to fully understand, and I am not sure I have p","There is probably a pattern to which elements are generators, but I don't know what it is.  The information provided was not detailed enough for me to fully understand, and I am not sure I have supplied correct answers.  If tehre i","There is probably a pattern to which elements are generators, but I don't know what it is.  The information provided was not detailed enough for me to fully understand, and I am not sure I have supplied correct answers.  If tehre ","There is probably a pattern to which elements are generators, but I don't know what it is.  The information provided was not detailed enough for me to fully understand, and I am not sure I have supplied correct answers.  If tehre","There is probably a pattern to which elements are generators, but I don 't know  what it is.  The information provided was not detailed enough for me to fully understand, and I am not sure I have supplied correct answers.  If tehr","There is probably a pattern to which elements are generators, but I don't know what it is.  The information provided was not detailed enough for me to fully understand, and I am not sure I have supplied correct answers.  If teh","There is probably a pattern to which elements are generators, but I don't know what it is.  The information provided was not detailed enough for me to fully understand, and I am not sure I have supplied correct answers.  If te","There is probably a pattern to which elements are generators, but I don't know what it is.  The information provided was not detailed enough for me to fully understand, and I am not sure I have supplied correct answers.  If there is a pattern, then based upon the pattern, one could assume the element is a generator.  For example, if all numbers that are multiples of 3 are gen erators,  it would be clear tah","There is probably a pattern to which elements are generators, but I don't know what it is.  The information provided was not detailed enough for me to fully understand, and I am not sure I have supplied correct answers.  If there is a pattern, then based upon the pattern, one could assume the element is a generator.  For example, if all numbers that are multiples of 3 are generators, it would be clear ta","There is probably a pattern to which elements are generators, but I don't know what it is.  The information provided was not detailed enough for me to fully understand, and I am not sure I have supplied correct answers.  If there is a pattern, then based upon the pattern, one could assume the element is a generator.  For example, if all numbers that are multiples of 3 are generators, it would be clear that 12 is a generator.","There is probably a pattern to which elements are generators, but I don't know what it is.  The information provided was no t detail ed enough for me to fully understand, and I am not sure I have supplied correct answers.  If there is a pattern, then based upon the pattern, one could assume the element is a generator.  For example, if all numbers that are multiples of 3 are generators, it would be clear that 12,  is a generator.","There is probably a pattern to which elements are generators, but I don't know what it is.  The information provided was not detailed enough for me to fully understand, and I am not sure I have supplied correct answers.  If there is a pattern, then based upon the pattern, one could assume the element is a generator.  For example, if all numbers that are multiples of 3 are generators, it would be clear that 12, 21 is a generator.","There is probably a pattern to which elements are generators, but I don't know what it is.  The information provided was not detailed enough for me to fully understand, and I am not sure I have supplied correct answers.  If there is a pattern, then bas ed upon  the pattern, one could assume the element is a generator.  For example, if all numbers that are multiples of 3 are generators, it would be clear that 12, 21,  is a generator.","There is probably a pattern to which elements are generators, but I don't know what it is.  The information provided was not detailed enough for me to fully understand, and I am not sure I have supplied correct answers.  If there is a pattern, then based upon the pattern, one could assume the element is a generator.  For example, if all numbers that are multiples of 3 are generators, it would be clear that 12, 21, 24 is a generator.","There is probably a pattern to which elements are generators, but I don't know what it is.  The information provided was not detailed enough for me to fully understand, and I am not sure I have supplied correct answers.  If there is a pattern, then based upon the pattern, one could assume the element is a generator.  For example, if all numbers that are multiples of 3 ar e genera tors, it would be clear that 12, 21, 24,  is a generator.","There is probably a pattern to which elements are generators, but I don't know what it is.  The information provided was not detailed enough for me to fully understand, and I am not sure I have supplied correct answers.  If there is a pattern, then based upon the pattern, one could assume the element is a generator.  For example, if all numbers that are multiples of 3 are generators, it would be clear that 12, 21, 24, e is a generator.","There is probably a pattern to which elements are generators, but I don't know what it is.  The information provided was not detailed enough for me to fully understand, and I am not sure I have supplied correct answers.  If there is a pattern, then based upon the pattern, one could assume the element is a generator.  For example, if all numbers that are multiples of 3 are generators, it would be clear that 12, 21, 24, et is a generator.","There is probably a pattern to which element s are ge nerators, but I don't know what it is.  The information provided was not detailed enough for me to fully understand, and I am not sure I have supplied correct answers.  If there is a pattern, then based upon the pattern, one could assume the element is a generator.  For example, if all numbers that are multiples of 3 are generators, it would be clear that 12, 21, 24, etc. is a generator.","There is probably a pattern to which elements are generators, but I don't know what it is.  The information provided was not detailed enough for me to fully understand, and I am not sure I have supplied correct answers.  If there is a pattern, then based upon the pattern, one could assume the element is a generator.  For example, if all numbers that are multiples of 3 are generators, it would be clear that 12, 21, 24, etc.,  is a generator.","There is probably a pattern to which elements are generators, but I don't know what it is.  The information provided was not detailed enough for me t o fully  understand, and I am not sure I have supplied correct answers.  If there is a pattern, then based upon the pattern, one could assume the element is a generator.  For example, if all numbers that are multiples of 3 are generators, it would be clear that 12, 21, 24, etc., are is a generator.","There is probably a pattern to which elements are generators, but I don't know what it is.  The information provided was not detailed enough for me to fully understand, and I am not sure I have supplied correct answers.  If there is a pattern, then based upon the pattern, one could assume the element is a generator.  For example, if all numbers that are multiples of 3 are generators, it would be clear that 12, 21, 24, etc., areis a generator.","There is probably a pattern to which elements are generators, but I don't know what it is.  The information provided was not detailed enough for me to fully understand, and I am not sure I have supplied correct answers.  If there is a pattern, the n based  upon the pattern, one could assume the element is a generator.  For example, if all numbers that are multiples of 3 are generators, it would be clear that 12, 21, 24, etc., ares a generator.","There is probably a pattern to which elements are generators, but I don't know what it is.  The information provided was not detailed enough for me to fully understand, and I am not sure I have supplied correct answers.  If there is a pattern, then based upon the pattern, one could assume the element is a generator.  For example, if all numbers that are multiples of 3 are generators, it would be clear that 12, 21, 24, etc., are a generator.","There is probably a pattern to which elements are generators, but I don't know what it is.  The information provided was not detailed enough for me to fully understand, and I am not sure I have supplied correct answers.  If there is a pattern, then based upon the pattern, one could assume the element is a generator.  For example, if all numbers th at are m ultiples of 3 are generators, it would be clear that 12, 21, 24, etc., area generator.","There is probably a pattern to which elements are generators, but I don't know what it is.  The information provided was not detailed enough for me to fully understand, and I am not sure I have supplied correct answers.  If there is a pattern, then based upon the pattern, one could assume the element is a generator.  For example, if all numbers that are multiples of 3 are generators, it would be clear that 12, 21, 24, etc., are generator.","There is probably a pattern to which elements are generators, but I don't know what it is.  The information provided was not detailed enough for me to fully understand, and I am not sure I have supplied correct answers.  If there is a pattern, then based upon the pattern, one could assume the element is a generator.  For example, if all numbers that are multiples of 3 are generators, it would be clear that 12, 21, 24, etc., are generators."],"rt":168886,"trial_type":"polygon-arrow-question","trial_index":0,"trial_index_global":65,"time_elapsed":2624021,"internal_chunk_id":"0-0.13-0"},{"nsides":"n","question":"True or false: If x is an odd number, it must be a generator under <img src=\"./images/ngon_symbol.png\" style=\"width:14px;height:14px\">.","response_type":"multi","response_choices":["True","False"],"correct_response":"False","response":"True","orientation_history":[[0]],"response_history":["True"],"rt":6365,"trial_type":"polygon-arrow-question","trial_index":0,"trial_index_global":66,"time_elapsed":2630436,"internal_chunk_id":"0-0.13-0"},{"nsides":"n","question":"True or false: If x is an even number, it must not be a generator under <img src=\"./images/ngon_symbol.png\" style=\"width:14px;height:14px\">.","response_type":"multi","response_choices":["True","False"],"correct_response":"False","response":"True","orientation_history":[[0]],"response_history":["True"],"rt":5637,"trial_type":"polygon-arrow-question","trial_index":0,"trial_index_global":67,"time_elapsed":2636076,"internal_chunk_id":"0-0.13-0"},{"nsides":"n","question":"True or false: If x is not a generator under <img src=\"./images/ngon_symbol.png\" style=\"width:14px;height:14px\">, x must divide n.","response_type":"multi","response_choices":["True","False"],"correct_response":"False","response":"True","orientation_history":[[0]],"response_history":["True"],"rt":7245,"trial_type":"polygon-arrow-question","trial_index":0,"trial_index_global":68,"time_elapsed":2643324,"internal_chunk_id":"0-0.13-0"},{"nsides":"n","question":"True or false: If x is not a generator under <img src=\"./images/ngon_symbol.png\" style=\"width:14px;height:14px\">, x must be a multiple of a divisor of n. Please explain in words why your answer is correct.","response_type":"free","response_choices":[],"correct_response":"True","response":"IF x is not a generator, then it has to be obtained by multiplying a number that was divided by n.","orientation_history":[[0]],"response_history":["IF x is not a generator, then it has to be muy","IF x is not a generator, then it has to be mu","IF x is not a generator, then it has to be m","IF x is not a generator, then it has to be obtained by multiplying a number that was divided y","IF x is not a generator, then it has to be obtained by multiplying a number that was divided by n."],"rt":176525,"trial_type":"polygon-arrow-question","trial_index":0,"trial_index_global":69,"time_elapsed":2819852,"internal_chunk_id":"0-0.13-0"},{"nsides":"n","question":"If an element x is a generator under <img src=\"./images/ngon_symbol.png\" style=\"width:14px;height:14px\">, is its inverse a generator under <img src=\"./images/ngon_symbol.png\" style=\"width:14px;height:14px\"> always, sometimes, or never?","response_type":"multi","response_choices":["Always","Sometimes","Never"],"correct_response":"Always","response":"Sometimes","orientation_history":[[0]],"response_history":["Sometimes"],"rt":9220,"trial_type":"polyg on-arrow -question","trial_index":0,"trial_index_global":70,"time_elapsed":2829103,"internal_chunk_id":"0-0.13-0"},{"nsides":"n","question":"If an element x is not a generator under <img src=\"./images/ngon_symbol.png\" style=\"width:14px;height:14px\">, is x <img src=\"./images/ngon_symbol.png\" style=\"width:14px;height:14px\"> x a generator under <img src=\"./images/ngon_symbol.png\" style=\"width:14px;height:14px\"> always, sometimes, or never?","response_type":"multi","response_choices":["Always","Sometimes","Never"],"correct_response":"Never","response":"Sometimes","orientation_history":[[0]],"response_history":["Sometimes"],"rt":4793,"trial_type":"polygon-arrow-question","trial_index":0,"trial_index_global":71,"time_elapsed":2833901,"internal_chunk_id":"0-0.13-0"},{"nsides":"n","question":"If an element x is a generator under <img src=\"./images/ngon_symbol.png\" style=\"width:14px;height:14px\">, is x <img src=\"./images/ngon_symbol.png\" style=\"width:14px;height:14px\"> x a  generat or under <img src=\"./images/ngon_symbol.png\" style=\"width:14px;height:14px\"> always, sometimes, or never? Please explain in words why your answer is correct.","response_type":"free","response_choices":[],"correct_response":"Sometimes","response":"it is sometimes  generator, because you are already starting with a generator and then adding to it, so the result will sometimes be a generator and sometimes it will not be a generator.","orientation_history":[[0]],"response_history":["X is sometimes","X is sometime","X is sometim","X is someti","X is somet","X is some","X is som","X is so","X is s","X is ","X is","X i","X ","X","it si","it s","it is sometimes a generator, because it","it is sometimes a generator, because i","it is sometimes a generator, because ","it is sometimes a generator, because","it is sometimes a generator, becaus","it is sometimes a generator, becau","it is sometimes a generator, beca","it is sometimes a generator, bec","it is sometimes a generator, be ","it is  sometimes a generator, b","it is sometimes a generator, because ","it is sometimes a generator, because","it is sometimes a generator, becaus","it is sometimes a generator, becau","it is sometimes a generator, beca","it is sometimes a generator, bec","it is sometimes a generator, be","it is sometimes a generator, b","it is sometimes a generator, whihc i","it is sometimes a generator, whihc ","it is sometimes a generator, whihc","it is sometimes a generator, whih","it is sometimes a generator, whi","it is sometimes a generator, whc","it is sometimes a generator, which is determined bu ","it is sometimes a generator, which is determined bu","it is sometimes a generator, which is determined by the number ","it is sometimes a generator, which is determined by the number","it is sometimes a generator, which is determined by the numbe","it is sometimes a generator, which is determined by the numb","it is sometimes a generator, which is determined by the num","it is sometimes a ge nerator,  which is determined by the nu","it is sometimes a generator, which is determined by the n","it is sometimes a generator, which is determined by the number chart/image is is baed ","it is sometimes a generator, which is determined by the number chart/image is is baed","it is sometimes a generator, which is determined by the number chart/image is is bae","it is sometimes a generator, which is determined by the number chart/image is is based upon.  ","it is a generator, which is determined by the number chart/image is is based upon.  ","it is a generator, because you are already starting with a generator and then adde","it is a generator, because you are already starting with a generator and then adding to it, so","it is som generator, because you are already starting with a generator and then adding to it, so","it is some generator, because you are already starting with a generator and then adding to it, so","it is somet generator, because you are already starting with a gene rator an d then adding to it, so","it is sometime generator, because you are already starting with a generator and then adding to it, so","it is sometimes generator, because you are already starting with a generator and then adding to it, so","it is sometimes  generator, because you are already starting with a generator and then adding to it, so the result will sometimes be an","it is sometimes  generator, because you are already starting with a generator and then adding to it, so the result will sometimes be a generator and sometimes it will not be a generator."],"rt":186305,"trial_type":"polygon-arrow-question","trial_index":0,"trial_index_global":72,"time_elapsed":3020228,"internal_chunk_id":"0-0.13-0"},{"instructions":"We would like to ask you some questions about your background. Please press \"Continue\" to continue.","rt":1620,"trial_type":"instructions","trial_index":0,"trial_index_global":73,"time_elapsed":3021893,"internal_chunk_id":"0-0.14-0"},{"question":"What is your age ?","response_type":"free","response_choices":[],"correct_response":"","response":"35","response_history":["356","35"],"rt":4060,"trial_type":"question","trial_index":0,"trial_index_global":74,"time_elapsed":3025957,"internal_chunk_id":"0-0.14-0"},{"question":"What is your level of education?","response_type":"multi","response_choices":["Did not graduate high school","High school diploma","Some college, no degree","Associates Degree","Bachelors Degree","Some graduate school, no degree","Masters Degree","Doctorate, M.D., etc."],"correct_response":"","response":"High school diploma","response_history":["High school diploma"],"rt":3797,"trial_type":"question","trial_index":0,"trial_index_global":75,"time_elapsed":3029758,"internal_chunk_id":"0-0.14-0"},{"question":"What is the most advanced math class you've completed? If you have multiple classes and you're not sure which one is most advanced, please list them.","response_type":"free","response_choices":[],"correct_response":"","response":"Alg ebra","response_history":["Algebra"],"rt":6148,"trial_type":"question","trial_index":0,"trial_index_global":76,"time_elapsed":3035938,"internal_chunk_id":"0-0.14-0"},{"question":"How familiar are you with the concept of modular arithmetic?","response_type":"multi","response_choices":["1 - never heard of it","2 - heard of it but didn't know what it was","3 - seen it used or explained","4 - used it but not often or recently","5 - used it, remember and understand it"],"correct_response":"1","response":"1 - never heard of it","response_history":["1 - never heard of it"],"rt":3868,"trial_type":"question","trial_index":0,"trial_index_global":77,"time_elapsed":3039810,"internal_chunk_id":"0-0.14-0"},{"question":"How familiar are you with the concept of a mathematical group?","response_type":"multi","response_choices":["1 - never heard of it","2 - heard of it but didn't know what it was","3 - seen it used or explained","4 - used it but not often or recently","5 - used it, remember a nd under stand it"],"correct_response":"1","response":"2 - heard of it but didn't know what it was","response_history":["2 - heard of it but didn't know what it was"],"rt":4176,"trial_type":"question","trial_index":0,"trial_index_global":78,"time_elapsed":3043988,"internal_chunk_id":"0-0.14-0"},{"question":"Do you feel you learned something from this HIT?","response_type":"multi","response_choices":["1 - not at all","2 - somewhat","3 - definitely"],"correct_response":"1","response":"1 - not at all","response_history":["1 - not at all"],"rt":3809,"trial_type":"question","trial_index":0,"trial_index_global":79,"time_elapsed":3047800,"internal_chunk_id":"0-0.14-0"},{"question":"Do you feel you understood the concepts in this HIT?","response_type":"multi","response_choices":["1 - not at all","2 - somewhat","3 - definitely"],"correct_response":"1","response":"2 - somewhat","response_history":["2 - somewhat"],"rt":5778,"trial_type":"question","trial_index":0,"trial_index_global":80,"time_elapsed":3053582,"internal_chunk_id":"0-0.14-0"},{"question":"Did you enjoy this HIT?","response_type":"multi","response_choices":["1 - not at all","2 - somewhat","3 - definitely"],"correct_response":"1","response":"2 - somewhat","response_history":["2 - somewhat"],"rt":3426,"trial_type":"question","trial_index":0,"trial_index_global":81,"time_elapsed":3057010,"internal_chunk_id":"0-0.14-0"},{"question":"What is your gender?","response_type":"multi","response_choices":["Female","Male","Other"],"correct_response":"","response":"Female","response_history":["Female"],"rt":3049,"trial_type":"question","trial_index":0,"trial_index_global":82,"time_elapsed":3060062,"internal_chunk_id":"0-0.14-0"},{"question":"What is/are your native language(s)? (The languages spoken in your household when you were a child.)","response_type":"free","response_choices":[],"correct_response":"","response":"English","response_history":["English"],"rt":4628,"trial_type":"question","trial_index":0,"trial_index_global":83,"time_elapsed":3064693,"internal_chunk_id":"0-0.14-0"},{"question":"Did you use pen and paper at any point on this HIT?","response_type":"free","response_choices":[],"correct_response":"","response":"Yes I did. ","response_history":["Yes I did.  I took ","Yes I did.  I took","Yes I did.  I too","Yes I did.  I to","Yes I did.  I t","Yes I did.  I ","Yes I did.  I","Yes I did.  ","Yes I did. "],"rt":8724,"trial_type":"question","trial_index":0,"trial_index_global":84,"time_elapsed":3073420,"internal_chunk_id":"0-0.14-0"},{"question":"Do you have any comments on this HIT?","response_type":"free","response_choices":[],"correct_response":"","response":"I felt the instructions at the very beginning were great; they were clear and detailed.  As the hit progressed and the concepts got more complicated, the instructions were far too brief and didn't explain anything well enough for me to really feel I understood.  I did my best and gave serious attention to this hit, but I would ha ve prefe rred the same level of instruction throughout the entire hit.","response_history":["I felt the instructions at the vber","I felt the instructions at the vbe","I felt the instructions at the vb","I felt the instructions at the very beginning were great; they were cel","I felt the instructions at the very beginning were great; they were ce","I felt the instructions at the very beginning were great; they were ce","I felt the instructions at the very beginning were great; they were clear and detailed.  As the hit progressed and the concepts got more complicated, the instructions were far too brief and didn't explain or","I felt the instructions at the very beginning were great; they were clear and detailed.  As the hit progressed and the concepts got more complicated, the instructions were far too brief and didn't explain o","I felt the instructions at the very beginning were great; they were clear and detailed.  As the hit progressed and the concepts got more complicated, the i nstructi ons were far too brief and didn't explain anything well enough for me to really fel","I felt the instructions at the very beginning were great; they were clear and detailed.  As the hit progressed and the concepts got more complicated, the instructions were far too brief and didn't explain anything well enough for me to really feel I udners","I felt the instructions at the very beginning were great; they were clear and detailed.  As the hit progressed and the concepts got more complicated, the instructions were far too brief and didn't explain anything well enough for me to really feel I udner","I felt the instructions at the very beginning were great; they were clear and detailed.  As the hit progressed and the concepts got more complicated, the instructions were far too brief and didn't explain anything well enough for me to really feel I udne","I felt the instructions at the very beginning were great; they were clear and detailed.  As the hit progressed and the concepts g ot more  complicated, the instructions were far too brief and didn't explain anything well enough for me to really feel I udn","I felt the instructions at the very beginning were great; they were clear and detailed.  As the hit progressed and the concepts got more complicated, the instructions were far too brief and didn't explain anything well enough for me to really feel I ud","I felt the instructions at the very beginning were great; they were clear and detailed.  As the hit progressed and the concepts got more complicated, the instructions were far too brief and didn't explain anything well enough for me to really feel I understood.  I dd","I felt the instructions at the very beginning were great; they were clear and detailed.  As the hit progressed and the concepts got more complicated, the instructions were far too brief and didn't explain anything well enough for me to really feel I understood.  I did my best ahd","I felt the instructions at the very beginning were great; they  were cl ear and detailed.  As the hit progressed and the concepts got more complicated, the instructions were far too brief and didn't explain anything well enough for me to really feel I understood.  I did my best ah","I felt the instructions at the very beginning were great; they were clear and detailed.  As the hit progressed and the concepts got more complicated, the instructions were far too brief and didn't explain anything well enough for me to really feel I understood.  I did my best and gave serious attention to this hit, but I would have preferred the same level of instruction throughout the entire hit."],"rt":74774,"trial_type":"question","trial_index":0,"trial_index_global":85,"time_elapsed":3148196,"internal_chunk_id":"0-0.14-0"}]