[{"nsides":6,"instructions":"Let's define a new operation <img src=\"./images/hexagon_symbol.png\" style=\"width:14px;height:14px\">. This operation will give us a way of combining two of the numbers 0, 1, 2, 3, 4, 5 to get another one of them back. Consider the hexagon at the right, where I've labeled each point with one of the numbers. To perform <img src=\"./images/hexagon_symbol.png\" style=\"width:14px;height:14px\">, you can use the interactive diagram on the right, or perform the operation in your mind. or perform the operation in your mind. Point the arrow at the first number on the hexagon, then move the arrow the second number of points clockwise around the hexagon. The number the arrow arrives at is your result. (The operation is called <img src=\"./images/hexagon_symbol.png\" style=\"width:14px;height:14px\"> because it uses the hexagon, which has 6 sides.) <br /><br />For example, 3 <img src=\"./images/hexagon_symbol.png\" style=\"width:14px;height:14px\"> 5 = 2,  because  5 steps clockwise from 3 on the hexagon brings us to 2. So 3 <img src=\"./images/hexagon_symbol.png\" style=\"width:14px;height:14px\"> 5 = 2.<br /><br />Similarly, 1 <img src=\"./images/hexagon_symbol.png\" style=\"width:14px;height:14px\"> 4 = 5, because 4 steps clockwise from 1 brings us to 5. <br /><br />Click \"Continue\" when you are ready to move on.","orientation_history":[0],"rt":778346,"trial_type":"polygon-arrow-instructions","trial_index":0,"trial_index_global":1,"time_elapsed":877471,"internal_chunk_id":"0-0"},{"nsides":6,"question":"Now try one on your own! What is 4 <img src=\"./images/hexagon_symbol.png\" style=\"width:14px;height:14px\"> 5? <br /><br /> (Remember, to perform <img src=\"./images/hexagon_symbol.png\" style=\"width:14px;height:14px\">, you can use the interactive diagram on the right, or perform the operation in your mind. Point the arrow at the first number on the hexagon, then move the arrow the second number of points clockwise around the h exagon.  The number the arrow arrives at is your result.)","response_type":"free","response_choices":[],"correct_response":"3","response":"3","orientation_history":[[0]],"response_history":["3"],"rt":19935,"trial_type":"polygon-arrow-question","trial_index":0,"trial_index_global":2,"time_elapsed":897415,"internal_chunk_id":"0-0.2-0"},{"nsides":6,"feedback":"Correct! 4 <img src=\"./images/hexagon_symbol.png\" style=\"width:14px;height:14px\"> 5 = 3 because 5 steps clockwise on the hexagon from 4 brings us to 3","orientation_history":[0],"rt":2178,"trial_type":"polygon-arrow-feedback","trial_index":0,"trial_index_global":3,"time_elapsed":899596,"internal_chunk_id":"0-0.2-0"},{"nsides":6,"question":"What is 3 <img src=\"./images/hexagon_symbol.png\" style=\"width:14px;height:14px\"> 2? <br /><br /> (Remember, to perform <img src=\"./images/hexagon_symbol.png\" style=\"width:14px;height:14px\">, you can use the interactive diagram on the right, or perform the operation in your mind. Poin t the ar row at the first number on the hexagon, then move the arrow the second number of points clockwise around the hexagon. The number the arrow arrives at is your result.)","response_type":"free","response_choices":[],"correct_response":"5","response":"5","orientation_history":[[0]],"response_history":["5"],"rt":11818,"trial_type":"polygon-arrow-question","trial_index":0,"trial_index_global":4,"time_elapsed":911417,"internal_chunk_id":"0-0.2-0"},{"nsides":6,"feedback":"Correct! 3 <img src=\"./images/hexagon_symbol.png\" style=\"width:14px;height:14px\"> 2 = 5 because 2 steps clockwise on the hexagon from 3 brings us to 5","orientation_history":[0],"rt":1708,"trial_type":"polygon-arrow-feedback","trial_index":0,"trial_index_global":5,"time_elapsed":913128,"internal_chunk_id":"0-0.2-0"},{"nsides":6,"question":"What is 1 <img src=\"./images/hexagon_symbol.png\" style=\"width:14px;height:14px\"> 5? <br /><br /> (Remember, to perform <img src=\"./images/hexagon_symbol.png\" style=\"width:14px;height:14px\">, you can use the interactive diagram on the right, or perform the operation in your mind. Point the arrow at the first number on the hexagon, then move the arrow the second number of points clockwise around the hexagon. The number the arrow arrives at is your result.)","response_type":"free","response_choices":[],"correct_response":"0","response":"0","orientation_history":[[0]],"response_history":["0"],"rt":8173,"trial_type":"polygon-arrow-question","trial_index":0,"trial_index_global":6,"time_elapsed":921303,"internal_chunk_id":"0-0.2-0"},{"nsides":6,"feedback":"Correct! 1 <img src=\"./images/hexagon_symbol.png\" style=\"width:14px;height:14px\"> 5 = 0 because 5 steps clockwise on the hexagon from 1 brings us to 0","orientation_history":[0],"rt":1486,"trial_type":"polygon-arrow-feedback","trial_index":0,"trial_index_global":7,"time_elapsed":922792,"internal_chunk_id":"0-0.2-0"},{"nsides":6,"question":"What is 1 <img src=\"./images/hexagon_symbol.png\" style= \"width:14px;height:14px\"> 1? <br /><br /> (Remember, to perform <img src=\"./images/hexagon_symbol.png\" style=\"width:14px;height:14px\">, you can use the interactive diagram on the right, or perform the operation in your mind. Point the arrow at the first number on the hexagon, then move the arrow the second number of points clockwise around the hexagon. The number the arrow arrives at is your result.)","response_type":"free","response_choices":[],"correct_response":"2","response":"2","orientation_history":[[0]],"response_history":["2"],"rt":4723,"trial_type":"polygon-arrow-question","trial_index":0,"trial_index_global":8,"time_elapsed":927519,"internal_chunk_id":"0-0.2-0"},{"nsides":6,"feedback":"Correct! 1 <img src=\"./images/hexagon_symbol.png\" style=\"width:14px;height:14px\"> 1 = 2 because 1 steps clockwise on the hexagon from 1 brings us to 2","orientation_history":[0],"rt":1417,"trial_type":"polygon-arrow-feedback","trial_index":0,"trial_index_global":9,"time_elapsed":928937,"internal_chunk_id":"0-0.2-0"},{"nsides":6,"question":"What is 3 <img src=\"./images/hexagon_symbol.png\" style=\"width:14px;height:14px\"> 0? <br /><br /> (Remember, to perform <img src=\"./images/hexagon_symbol.png\" style=\"width:14px;height:14px\">, you can use the interactive diagram on the right, or perform the operation in your mind. Point the arrow at the first number on the hexagon, then move the arrow the second number of points clockwise around the hexagon. The number the arrow arrives at is your result.)","response_type":"free","response_choices":[],"correct_response":"3","response":"3","orientation_history":[[0]],"response_history":["3"],"rt":9559,"trial_type":"polygon-arrow-question","trial_index":0,"trial_index_global":10,"time_elapsed":938498,"internal_chunk_id":"0-0.2-0"},{"nsides":6,"feedback":"Correct! 3 <img src=\"./images/hexagon_symbol.png\" style=\"width:14px;height:14px\"> 0 = 3 because 0 steps clockwise on the hexagon from 3 brings us to 3","orientation_history":[0],"rt":5010,"trial_type":"polygon-arrow-feedback","trial_index":0,"trial_index_global":11,"time_elapsed":943509,"internal_chunk_id":"0-0.2-0"},{"nsides":6,"question":"What is 4 <img src=\"./images/hexagon_symbol.png\" style=\"width:14px;height:14px\"> 4? <br /><br /> (Remember, to perform <img src=\"./images/hexagon_symbol.png\" style=\"width:14px;height:14px\">, you can use the interactive diagram on the right, or perform the operation in your mind. Point the arrow at the first number on the hexagon, then move the arrow the second number of points clockwise around the hexagon. The number the arrow arrives at is your result.)","response_type":"free","response_choices":[],"correct_response":"2","response":"4","orientation_history":[[0]],"response_history":["4"],"rt":7544,"trial_type":"polygon-arrow-question","trial_index":0,"trial_index_global":12,"time_elapsed":951054,"internal_chunk_id":"0-0.2-0"},{"nsides":6,"feedback":"Sorry, that was incorrect. 4 <img src=\"./images/hexagon_symbol.png\" style=\"width:14px;height:14px\"> 4 = 2 because 4 steps clockwise on the hexagon from 4 brings us to 2","orientation_history":[0],"rt":5698,"trial_type":"polygon-arrow-feedback","trial_index":0,"trial_index_global":13,"time_elapsed":956754,"internal_chunk_id":"0-0.2-0"},{"nsides":6,"question":"What is 1 <img src=\"./images/hexagon_symbol.png\" style=\"width:14px;height:14px\"> 3? <br /><br /> (Remember, to perform <img src=\"./images/hexagon_symbol.png\" style=\"width:14px;height:14px\">, you can use the interactive diagram on the right, or perform the operation in your mind. Point the arrow at the first number on the hexagon, then move the arrow the second number of points clockwise around the hexagon. The number the arrow arrives at is your result.)","response_type":"free","response_choices":[],"correct_response":"4","response":"4","orientation_history":[[0]],"response_history":["4"],"rt":12615,"trial_type":"polygon-arrow-question","trial_index":0,"trial_index_global":14,"time_elapsed":969374,"internal_chunk_id":"0-0.2-0"},{"nsides":6,"feedback":"Correct! 1 <img src=\"./images/hexagon_symbol.png\" style=\"width:14px;height:14px\"> 3 = 4 because 3 steps clockwise on the hexagon from 1 brings us to 4","orientation_history":[0],"rt":1438,"trial_type":"polygon-arrow-feedback","trial_index":0,"trial_index_global":15,"time_elapsed":970815,"internal_chunk_id":"0-0.2-0"},{"nsides":6,"question":"What is 4 <img src=\"./images/hexagon_symbol.png\" style=\"width:14px;height:14px\"> 3? <br /><br /> (Remember, to perform <img src=\"./images/hexagon_symbol.png\" style=\"width:14px;height:14px\">, you can use the interactive diagram on the right, or perform the operation in your mind. Point the arrow at the first number on the hexagon, then move the arrow the second number of points clockwise around the hexagon. The number the arrow arrives at is your result.)","response_type":"free","response_choices":[],"correct_response":"1","response":"1","orientation_history":[[0]],"response_history":["1"],"rt":6621,"trial_type":"polygon-arrow-question","trial_index":0,"trial_index_global":16,"time_elapsed":977438,"internal_chunk_id":"0-0.2-0"},{"nsides":6,"feedback":"Correct! 4 <img src=\"./images/hexagon_symbol.png\" style=\"width:14px;height:14px\"> 3 = 1 because 3 steps clockwise on the hexagon from 4 brings us to 1","orientation_history":[0],"rt":1544,"trial_type":"polygon-arrow-feedback","trial_index":0,"trial_index_global":17,"time_elapsed":978983,"internal_chunk_id":"0-0.2-0"},{"nsides":6,"question":"What is 0 <img src=\"./images/hexagon_symbol.png\" style=\"width:14px;height:14px\"> 5? <br /><br /> (Remember, to perform <img src=\"./images/hexagon_symbol.png\" style=\"width:14px;height:14px\">, you can use the interactive diagram on the right, or perform the operation in your mind. Point the arrow at the first number on the hexagon, then move the arrow the second number of points clockwise around the hexagon. The number the arrow arr ives at  is your result.)","response_type":"free","response_choices":[],"correct_response":"5","response":"5","orientation_history":[[0]],"response_history":["5"],"rt":7637,"trial_type":"polygon-arrow-question","trial_index":0,"trial_index_global":18,"time_elapsed":986621,"internal_chunk_id":"0-0.2-0"},{"nsides":6,"feedback":"Correct! 0 <img src=\"./images/hexagon_symbol.png\" style=\"width:14px;height:14px\"> 5 = 5 because 5 steps clockwise on the hexagon from 0 brings us to 5","orientation_history":[0],"rt":1422,"trial_type":"polygon-arrow-feedback","trial_index":0,"trial_index_global":19,"time_elapsed":988045,"internal_chunk_id":"0-0.2-0"},{"nsides":6,"question":"What is 2 <img src=\"./images/hexagon_symbol.png\" style=\"width:14px;height:14px\"> 5? <br /><br /> (Remember, to perform <img src=\"./images/hexagon_symbol.png\" style=\"width:14px;height:14px\">, you can use the interactive diagram on the right, or perform the operation in your mind. Point the arrow at the first number  on the  hexagon, then move the arrow the second number of points clockwise around the hexagon. The number the arrow arrives at is your result.)","response_type":"free","response_choices":[],"correct_response":"1","response":"1","orientation_history":[[0]],"response_history":["1"],"rt":9216,"trial_type":"polygon-arrow-question","trial_index":0,"trial_index_global":20,"time_elapsed":997262,"internal_chunk_id":"0-0.2-0"},{"nsides":6,"feedback":"Correct! 2 <img src=\"./images/hexagon_symbol.png\" style=\"width:14px;height:14px\"> 5 = 1 because 5 steps clockwise on the hexagon from 2 brings us to 1","orientation_history":[0],"rt":1417,"trial_type":"polygon-arrow-feedback","trial_index":0,"trial_index_global":21,"time_elapsed":998681,"internal_chunk_id":"0-0.2-0"},{"nsides":6,"instructions":"Now we're going to discuss a couple special properties of this new operation, <img src=\"./images/hexagon_symbol.png\" style=\"width:14px;height:14px\"> that we've learned. First, notice that the numb er 0 beh aves in a special way under <img src=\"./images/hexagon_symbol.png\" style=\"width:14px;height:14px\">. Whenever we combine 0 with anything else, we get that same thing back. We'll say that 0 is the <i>identity</i> under <img src=\"./images/hexagon_symbol.png\" style=\"width:14px;height:14px\">, because when you combine it with something it gives you that identical thing back.","orientation_history":[0],"rt":14969,"trial_type":"polygon-arrow-instructions","trial_index":0,"trial_index_global":22,"time_elapsed":1013656,"internal_chunk_id":"0-0"},{"nsides":6,"instructions":"Now that we know 0 is the identity under <img src=\"./images/hexagon_symbol.png\" style=\"width:14px;height:14px\">, we're going to make a new definition. We'll say that the <i>inverse</i> of a number is the thing that you combine with it to produce the identity under our operation. For example, 5 <img src=\"./images/hexagon_symbol.png\" style=\"width:14px;height:14px\"> 1 = 0, so we say 1 is the inverse of  5 under  <img src=\"./images/hexagon_symbol.png\" style=\"width:14px;height:14px\">, (remember 0 is the identity under <img src=\"./images/hexagon_symbol.png\" style=\"width:14px;height:14px\">). Similarly, 3 is its own inverse under <img src=\"./images/hexagon_symbol.png\" style=\"width:14px;height:14px\">, because 3 <img src=\"./images/hexagon_symbol.png\" style=\"width:14px;height:14px\"> 3 = 0.","orientation_history":[0],"rt":25908,"trial_type":"polygon-arrow-instructions","trial_index":0,"trial_index_global":23,"time_elapsed":1039567,"internal_chunk_id":"0-0"},{"nsides":6,"question":"Now you try! What is the inverse of 4 under <img src=\"./images/hexagon_symbol.png\" style=\"width:14px;height:14px\">? <br /><br /> (Remember, the inverse of an element is the thing which you combine with it to produce the identity.)","response_type":"free","response_choices":[],"correct_response":"2","response":"2","orientation_history":[[0]],"response_history":["2"],"rt":5971,"trial_type":"polygo n-arrow- question","trial_index":0,"trial_index_global":24,"time_elapsed":1045540,"internal_chunk_id":"0-0.6-0"},{"nsides":6,"feedback":"Correct! The inverse of 4 under <img src=\"./images/hexagon_symbol.png\" style=\"width:14px;height:14px\"> is 2 because 2 steps clockwise on the hexagon from 4 brings us to 0, and 0 is the identity under <img src=\"./images/hexagon_symbol.png\" style=\"width:14px;height:14px\">.","orientation_history":[0],"rt":1580,"trial_type":"polygon-arrow-feedback","trial_index":0,"trial_index_global":25,"time_elapsed":1047123,"internal_chunk_id":"0-0.6-0"},{"nsides":6,"question":"What is the inverse of 1 under <img src=\"./images/hexagon_symbol.png\" style=\"width:14px;height:14px\">? <br /><br /> (Remember, the inverse of an element is the thing which you combine with it to produce the identity.)","response_type":"free","response_choices":[],"correct_response":"5","response":"5","orientation_history":[[0]],"response_history":["5"],"rt":8135,"trial_type":"polyg on-arrow -question","trial_index":0,"trial_index_global":26,"time_elapsed":1055260,"internal_chunk_id":"0-0.6-0"},{"nsides":6,"feedback":"Correct! The inverse of 1 under <img src=\"./images/hexagon_symbol.png\" style=\"width:14px;height:14px\"> is 5 because 5 steps clockwise on the hexagon from 1 brings us to 0, and 0 is the identity under <img src=\"./images/hexagon_symbol.png\" style=\"width:14px;height:14px\">.","orientation_history":[0],"rt":2022,"trial_type":"polygon-arrow-feedback","trial_index":0,"trial_index_global":27,"time_elapsed":1057284,"internal_chunk_id":"0-0.6-0"},{"nsides":6,"question":"What is the inverse of 3 under <img src=\"./images/hexagon_symbol.png\" style=\"width:14px;height:14px\">? <br /><br /> (Remember, the inverse of an element is the thing which you combine with it to produce the identity.)","response_type":"free","response_choices":[],"correct_response":"3","response":"3","orientation_history":[[0]],"response_history":["3"],"rt":3788,"trial_type":"poly gon-arro w-question","trial_index":0,"trial_index_global":28,"time_elapsed":1061074,"internal_chunk_id":"0-0.6-0"},{"nsides":6,"feedback":"Correct! The inverse of 3 under <img src=\"./images/hexagon_symbol.png\" style=\"width:14px;height:14px\"> is 3 because 3 steps clockwise on the hexagon from 3 brings us to 0, and 0 is the identity under <img src=\"./images/hexagon_symbol.png\" style=\"width:14px;height:14px\">.","orientation_history":[0],"rt":1215,"trial_type":"polygon-arrow-feedback","trial_index":0,"trial_index_global":29,"time_elapsed":1062290,"internal_chunk_id":"0-0.6-0"},{"nsides":6,"question":"What is the inverse of 2 under <img src=\"./images/hexagon_symbol.png\" style=\"width:14px;height:14px\">? <br /><br /> (Remember, the inverse of an element is the thing which you combine with it to produce the identity.)","response_type":"free","response_choices":[],"correct_response":"4","response":"4","orientation_history":[[0]],"response_history":["4"],"rt":4047,"trial_type":"pol ygon-arr ow-question","trial_index":0,"trial_index_global":30,"time_elapsed":1066339,"internal_chunk_id":"0-0.6-0"},{"nsides":6,"feedback":"Correct! The inverse of 2 under <img src=\"./images/hexagon_symbol.png\" style=\"width:14px;height:14px\"> is 4 because 4 steps clockwise on the hexagon from 2 brings us to 0, and 0 is the identity under <img src=\"./images/hexagon_symbol.png\" style=\"width:14px;height:14px\">.","orientation_history":[0],"rt":1475,"trial_type":"polygon-arrow-feedback","trial_index":0,"trial_index_global":31,"time_elapsed":1067817,"internal_chunk_id":"0-0.6-0"},{"nsides":6,"question":"What is the inverse of 0 under <img src=\"./images/hexagon_symbol.png\" style=\"width:14px;height:14px\">? <br /><br /> (Remember, the inverse of an element is the thing which you combine with it to produce the identity.)","response_type":"free","response_choices":[],"correct_response":"0","response":"0","orientation_history":[[0]],"response_history":["0"],"rt":5274,"trial_type":"po lygon-ar row-question","trial_index":0,"trial_index_global":32,"time_elapsed":1073093,"internal_chunk_id":"0-0.6-0"},{"nsides":6,"feedback":"Correct! The inverse of 0 under <img src=\"./images/hexagon_symbol.png\" style=\"width:14px;height:14px\"> is 0 because 0 steps clockwise on the hexagon from 0 brings us to 0, and 0 is the identity under <img src=\"./images/hexagon_symbol.png\" style=\"width:14px;height:14px\">.","orientation_history":[0],"rt":2480,"trial_type":"polygon-arrow-feedback","trial_index":0,"trial_index_global":33,"time_elapsed":1075575,"internal_chunk_id":"0-0.6-0"},{"nsides":6,"question":"Let's review: under <img src=\"./images/hexagon_symbol.png\" style=\"width:14px;height:14px\">, the inverse of 0 is 0, the inverse of 1 is 5 and the inverse of 5 is 1, the inverse of 2 is 4 and the inverse of 4 is 2, and finally the inverse of 3 is 3. Try playing with some of these pairs on the hexagon. Do you see a spatial relationship between an element and its inverse under <img  src=\"./images/hexagon_symbol.png\" style=\"width:14px;height:14px\">?","response_type":"free","response_choices":[],"correct_response":"","response":"They are across from each other.","orientation_history":[[0]],"response_history":["They are across from each other."],"rt":31849,"trial_type":"polygon-arrow-question","trial_index":0,"trial_index_global":34,"time_elapsed":1107427,"internal_chunk_id":"0-0"},{"instructions":"It is also possible to successively apply <img src=\"./images/hexagon_symbol.png\" style=\"width:14px;height:14px\">, and the operation can simply be performed starting with the left-most pair. For example, 2 <img src=\"./images/hexagon_symbol.png\" style=\"width:14px;height:14px\"> 3 <img src=\"./images/hexagon_symbol.png\" style=\"width:14px;height:14px\"> 4 = 5 <img src=\"./images/hexagon_symbol.png\" style=\"width:14px;height:14px\"> 4 = 3.","rt":13583,"trial_type":"instructions","trial_index":0,"trial_index_global":35,"time_elapsed":1121012,"internal_chunk_id":"0-0"},{"nsides":6,"instructions":"We have one last definition to learn today. Let's start with an example. Under our operation <img src=\"./images/hexagon_symbol.png\" style=\"width:14px;height:14px\"> we can make every other number using just 1: 2 = 1 <img src=\"./images/hexagon_symbol.png\" style=\"width:14px;height:14px\"> 1, 3 = 1 <img src=\"./images/hexagon_symbol.png\" style=\"width:14px;height:14px\"> 1 <img src=\"./images/hexagon_symbol.png\" style=\"width:14px;height:14px\"> 1, 4 = 1 <img src=\"./images/hexagon_symbol.png\" style=\"width:14px;height:14px\"> 1 <img src=\"./images/hexagon_symbol.png\" style=\"width:14px;height:14px\"> 1 <img src=\"./images/hexagon_symbol.png\" style=\"width:14px;height:14px\"> 1, 5 = 1 <img src=\"./images/hexagon_symbol.png\" style=\"width:14px;height:14px\"> 1 <img src=\"./images/hexagon_symbol.png\" style=\"width:14px;height:14px\"> 1 <img src=\"./images/hexagon_symbol.png\" style=\"width:14px;height:14px\"> 1 <img src=\"./images/hexagon_symbol.png\" style=\"width:14px;height:14px\"> 1, and 0 = 1 <img src=\"./images/hexagon_symbol.png\" style=\"width:14px;height:14px\"> 1 <img src=\"./images/hexagon_symbol.png\" style=\"width:14px;height:14px\"> 1 <img src=\"./images/hexagon_symbol.png\" style=\"width:14px;height:14px\"> 1 <img src=\"./images/hexagon_symbol.png\" style=\"width:14px;height:14px\"> 1 <img src=\"./images/hexagon_symbol.png\" style=\"width:14px;height:14px\"> 1. Because 1 can make every other element under <img src=\"./images/hexagon_symbol.png\" style=\"width:14px;height:14px\">, we say that 1 is a <i>generator</i> under <img src=\"./images/hexagon_symbol.png\" style=\"width:14px;height:14px\">. <br /><br /> However, 2 is not a generator under <img src=\"./images/hexagon_symbol.png\" style=\"width:14px;height:14px\">, because 4 = 2 <img src=\"./images/hexagon_symbol.png\" style=\"width:14px;height:14px\"> 2, and 0 = 2 <img src=\"./images/hexagon_symbol.png\" style=\"width:14px;height:14px\"> 2 <img src =\"./images/hexagon_symbol.png\" style=\"width:14px;height:14px\"> 2, but there is no way to make 1, 3, or 5 using just 2.","orientation_history":[0],"rt":93216,"trial_type":"polygon-arrow-instructions","trial_index":0,"trial_index_global":36,"time_elapsed":1214230,"internal_chunk_id":"0-0"},{"nsides":6,"question":"Now you try! Is 3 a generator under <img src=\"./images/hexagon_symbol.png\" style=\"width:14px;height:14px\">? <br /><br /> (Remember, a generator is an element which can make every other element.)","response_type":"multi","response_choices":["Yes","No"],"correct_response":"No","response":"No","orientation_history":[[0]],"response_history":["No"],"rt":11347,"trial_type":"polygon-arrow-question","trial_index":0,"trial_index_global":37,"time_elapsed":1225580,"internal_chunk_id":"0-0.10-0"},{"nsides":6,"feedback":"Correct! 3 is not a generator under <img src=\"./images/hexagon_symbol.png\" style=\"width:14px;height:14px\">, because 3 = 3, 0 = 3 <img src=\"./images/hexagon_symbol.png\" style=\"width:14px;height:14px\"> 3, but there is no way to make 1, 2, 4, or 5 using just 3.","orientation_history":[0],"rt":3373,"trial_type":"polygon-arrow-feedback","trial_index":0,"trial_index_global":38,"time_elapsed":1228957,"internal_chunk_id":"0-0.10-0"},{"nsides":6,"question":"Is 5 a generator under <img src=\"./images/hexagon_symbol.png\" style=\"width:14px;height:14px\">? <br /><br /> (Remember, a generator is an element which can make every other element.)","response_type":"multi","response_choices":["Yes","No"],"correct_response":"Yes","response":"Yes","orientation_history":[[0]],"response_history":["Yes"],"rt":12557,"trial_type":"polygon-arrow-question","trial_index":0,"trial_index_global":39,"time_elapsed":1241516,"internal_chunk_id":"0-0.10-0"},{"nsides":6,"feedback":"Correct! 5 is a generator under <img src=\"./images/hexagon_symbol.png\" style=\"width:14px;height:14px\">, because 5 = 5, 4 = 5 <img src=\"./images/hexagon_symbol.png\" style=\"width:14px;height:14px\"> 5, 3 = 5 <img src=\"./images/hexagon_symbol.png\" style=\"width:14px;height:14px\"> 5 <img src=\"./images/hexagon_symbol.png\" style=\"width:14px;height:14px\"> 5, 2 = 5 <img src=\"./images/hexagon_symbol.png\" style=\"width:14px;height:14px\"> 5 <img src=\"./images/hexagon_symbol.png\" style=\"width:14px;height:14px\"> 5 <img src=\"./images/hexagon_symbol.png\" style=\"width:14px;height:14px\"> 5, 1 = 5 <img src=\"./images/hexagon_symbol.png\" style=\"width:14px;height:14px\"> 5 <img src=\"./images/hexagon_symbol.png\" style=\"width:14px;height:14px\"> 5 <img src=\"./images/hexagon_symbol.png\" style=\"width:14px;height:14px\"> 5 <img src=\"./images/hexagon_symbol.png\" style=\"width:14px;height:14px\"> 5, and 0 = 5 <img src=\"./images/hexagon_symbol.png\" style=\"width:14px;height:14px\"> 5 <img src=\"./images/hexagon_symbol.png\" style=\"width:14px;height:14px\"> 5 <img src=\"./images/hexagon_symbol.png\" style=\"width:14px;height:14px\"> 5 <img src=\"./images/hexagon_symbol.png\" style=\"width:14px;height:14px\"> 5 <img src=\"./images/hexagon_symbol.png\" style=\"width:14px;height:14px\"> 5, so you can make all of the numbers under <img src=\"./images/hexagon_symbol.png\" style=\"width:14px;height:14px\"> using 5","orientation_history":[0],"rt":3577,"trial_type":"polygon-arrow-feedback","trial_index":0,"trial_index_global":40,"time_elapsed":1245094,"internal_chunk_id":"0-0.10-0"},{"nsides":6,"question":"Is 4 a generator under <img src=\"./images/hexagon_symbol.png\" style=\"width:14px;height:14px\">? <br /><br /> (Remember, a generator is an element which can make every other element.)","response_type":"multi","response_choices":["Yes","No"],"correct_response":"No","response":"No","orientation_history":[[0]],"response_history":["No"],"rt":17970,"trial_type":"polygon-arrow-question","trial_index":0,"trial_index_global":41,"time_elapsed":1263066,"internal_chunk_id":"0-0.10-0"},{"nsides":6,"feedback":"Correct! 4 is not a generator under <img src =\"./images/hexagon_symbol.png\" style=\"width:14px;height:14px\">, because 4 = 4, 2 = 4 <img src=\"./images/hexagon_symbol.png\" style=\"width:14px;height:14px\"> 4, and 0 = 4 <img src=\"./images/hexagon_symbol.png\" style=\"width:14px;height:14px\"> 4 <img src=\"./images/hexagon_symbol.png\" style=\"width:14px;height:14px\"> 4, but there is no way to make 1, 3, or 5 using just 4.","orientation_history":[0],"rt":3164,"trial_type":"polygon-arrow-feedback","trial_index":0,"trial_index_global":42,"time_elapsed":1266231,"internal_chunk_id":"0-0.10-0"},{"nsides":6,"question":"Is 0 a generator under <img src=\"./images/hexagon_symbol.png\" style=\"width:14px;height:14px\">? <br /><br /> (Remember, a generator is an element which can make every other element.)","response_type":"multi","response_choices":["Yes","No"],"correct_response":"No","response":"No","orientation_history":[[0]],"response_history":["No"],"rt":6374,"trial_type":"polygon-arrow-question","trial_index":0,"trial_index_global":43,"time_elapsed":1272607,"internal_chunk_id":"0-0.10-0"},{"nsides":6,"feedback":"Correct! 0 is not a generator under <img src=\"./images/hexagon_symbol.png\" style=\"width:14px;height:14px\">, because 0 = 0, but there is no way to make 1, 2, 3, 4, or 5 using just 0.","orientation_history":[0],"rt":2723,"trial_type":"polygon-arrow-feedback","trial_index":0,"trial_index_global":44,"time_elapsed":1275331,"internal_chunk_id":"0-0.10-0"},{"nsides":6,"question":"Let's review: under <img src=\"./images/hexagon_symbol.png\" style=\"width:14px;height:14px\">, 1 and 5 are generators. However, 0, 2, 3 and 4 are not generators. Try playing with these non-generators on the hexagon and seeing which elements each of them does generate (i.e. which elements you can get by combining each non-generator with itself repeatedly). Do you see spatial relationships among particular subsets of the elements that are not generators under <img src=\"./images/hexagon_symbol.png\" style=\"width:14px;height:14px\">?","response_type":"free","response_choices":[],"correct_response":"","response":"They are not next to 0.","orientation_history":[[0]],"response_history":["They re a","They re ","They re","They r","They are at the b","They are at the ","They are at","They ar","They a","They are not next to 9","They are not next to 0."],"rt":43566,"trial_type":"polygon-arrow-question","trial_index":0,"trial_index_global":45,"time_elapsed":1318900,"internal_chunk_id":"0-0"},{"nsides":9,"instructions":"Now we are going to ask you some questions about a new operation, <img src=\"./images/nonagon_symbol.png\" style=\"width:14px;height:14px\">, on the numbers 0, 1, 2, 3, 4, 5, 6, 7, 8. It works exactly like <img src=\"./images/hexagon_symbol.png\" style=\"width:14px;height:14px\">, except now you use the nonagon shown at the right. <br /><br />We'll give you one practice question with feedback to make sure you understand the new operation. After that, try to complete the remaining questions as accur ately as  possible.","orientation_history":[0],"rt":13999,"trial_type":"polygon-arrow-instructions","trial_index":0,"trial_index_global":46,"time_elapsed":1332903,"internal_chunk_id":"0-0"},{"nsides":9,"question":"Practice: What is 5 <img src=\"./images/nonagon_symbol.png\" style=\"width:14px;height:14px\"> 5?","response_type":"free","response_choices":[],"correct_response":"1","response":"1","orientation_history":[[0]],"response_history":["1"],"rt":9536,"trial_type":"polygon-arrow-question","trial_index":0,"trial_index_global":47,"time_elapsed":1342440,"internal_chunk_id":"0-0.13-0"},{"nsides":9,"feedback":"Correct! 5 <img src=\"./images/nonagon_symbol.png\" style=\"width:14px;height:14px\"> 5 = 1 because 5 steps clockwise on the nonagon from 5 brings us to 1","orientation_history":[0],"rt":3165,"trial_type":"polygon-arrow-feedback","trial_index":0,"trial_index_global":48,"time_elapsed":1345609,"internal_chunk_id":"0-0.13-0"},{"nsides":9,"question":"What is 3 <img src=\"./images/nonagon_symbol.png\" style=\"width:14px;height:14px\"> 3?","response_type":"free","response_choices":[],"correct_response":"6","response":"6","orientation_history":[[0]],"response_history":["6"],"rt":6030,"trial_type":"polygon-arrow-question","trial_index":0,"trial_index_global":49,"time_elapsed":1351641,"internal_chunk_id":"0-0.13-0"},{"nsides":9,"question":"What is 7 <img src=\"./images/nonagon_symbol.png\" style=\"width:14px;height:14px\"> 4?","response_type":"free","response_choices":[],"correct_response":"2","response":"2","orientation_history":[[0]],"response_history":["2"],"rt":6619,"trial_type":"polygon-arrow-question","trial_index":0,"trial_index_global":50,"time_elapsed":1358263,"internal_chunk_id":"0-0.13-0"},{"nsides":9,"question":"What is 1 <img src=\"./images/nonagon_symbol.png\" style=\"width:14px;height:14px\"> 8?","response_type":"free","response_choices":[],"correct_response":"0","response":"0","orientation_history":[[0]],"response_history":["0"],"rt":9616,"trial_type":"polyg on-arrow-question","trial_index":0,"trial_index_global":51,"time_elapsed":1367881,"internal_chunk_id":"0-0.13-0"},{"nsides":9,"question":"What is 5 <img src=\"./images/nonagon_symbol.png\" style=\"width:14px;height:14px\"> 4?","response_type":"free","response_choices":[],"correct_response":"0","response":"0","orientation_history":[[0]],"response_history":["0"],"rt":10795,"trial_type":"polygon-arrow-question","trial_index":0,"trial_index_global":52,"time_elapsed":1378679,"internal_chunk_id":"0-0.13-0"},{"nsides":9,"question":"What is 6 <img src=\"./images/nonagon_symbol.png\" style=\"width:14px;height:14px\"> 6?","response_type":"free","response_choices":[],"correct_response":"3","response":"3","orientation_history":[[0]],"response_history":["3"],"rt":8262,"trial_type":"polygon-arrow-question","trial_index":0,"trial_index_global":53,"time_elapsed":1386943,"internal_chunk_id":"0-0.13-0"},{"nsides":9,"question":"What is 4 <img src=\"./images/nonagon_symbol.png\" style=\"width:14px;height:14px\"> 1? Please explain in words how you got your answer.","response_type":"free","response_choices":[],"correct_response":"","response":"5","orientation_history":[[0]],"response_history":["5"],"rt":7067,"trial_type":"polygon-arrow-question","trial_index":0,"trial_index_global":54,"time_elapsed":1394013,"internal_chunk_id":"0-0.13-0"},{"nsides":9,"question":"What is 8 <img src=\"./images/nonagon_symbol.png\" style=\"width:14px;height:14px\"> 4? Please explain in words how you got your answer.","response_type":"free","response_choices":[],"correct_response":"","response":"3","orientation_history":[[0]],"response_history":["3"],"rt":8914,"trial_type":"polygon-arrow-question","trial_index":0,"trial_index_global":55,"time_elapsed":1402928,"internal_chunk_id":"0-0.13-0"},{"nsides":9,"question":"What is the identity under <img src=\"./images/nonagon_symbol.png\" style=\"width:14px;height:14px\">? Please explain in words how you got your answer.","response_type":"free","response_choices":[],"correct_response":"0","response":"A movement along the wheel.  If the number says the number of movements, then the identity is the movement.","orientation_history":[[0]],"response_history":["A movement along the wheel.  If the number says the number of movements, then the identity is the movement."],"rt":63292,"trial_type":"polygon-arrow-question","trial_index":0,"trial_index_global":56,"time_elapsed":1466222,"internal_chunk_id":"0-0.13-0"},{"nsides":9,"question":"What is the inverse of 5 under <img src=\"./images/nonagon_symbol.png\" style=\"width:14px;height:14px\">?","response_type":"free","response_choices":[],"correct_response":"4","response":"4","orientation_history":[[0]],"response_history":["4"],"rt":44412,"trial_type":"polygon-arrow-question","trial_index":0,"trial_index_global":57,"time_elapsed":1510640,"internal_chunk_id":"0-0.13-0"},{"nsides":9,"question":"What is the inverse of 2 under <img src=\"./images/nonagon_symbol.png\" style=\"width:14px;height:14px\">?","response_type":"free","response_choices":[],"correct_response":"7","response":"7","orientation_history":[[0]],"response_history":["7"],"rt":12346,"trial_type":"polygon-arrow-question","trial_index":0,"trial_index_global":58,"time_elapsed":1522989,"internal_chunk_id":"0-0.13-0"},{"nsides":9,"question":"What is the inverse of 3 under <img src=\"./images/nonagon_symbol.png\" style=\"width:14px;height:14px\">? Please explain in words how you got your answer.","response_type":"free","response_choices":[],"correct_response":"","response":"6 because it takes 6 moves to go from 3 to 0.","orientation_history":[[0]],"response_history":["6 because it tas","6 because it takes 6 moves to go from 3 to 0."],"rt":31151,"trial_type":"polygon-arrow-question","trial_index":0,"trial_index_global":59,"time_elapsed":1554142,"internal_chunk_id":"0-0.13-0"},{"nsides":9,"question":"Is 2 a generator under <img src=\"./images/nonagon_symbol.png\" style=\"width:14px;height:14px\">? Please explain in  words ho w you got your answer.","response_type":"free","response_choices":[],"correct_response":"","response":"Yes because there's an odd number of points, so you can get to every number by going around in 2s.","orientation_history":[[0]],"response_history":["Yes because they","Yes because there's an odd number of points, so you can get to every number by going around in t","Yes because there's an odd number of points, so you can get to every number by going around in 2s."],"rt":66040,"trial_type":"polygon-arrow-question","trial_index":0,"trial_index_global":60,"time_elapsed":1620183,"internal_chunk_id":"0-0.13-0"},{"nsides":9,"question":"Is 3 a generator under <img src=\"./images/nonagon_symbol.png\" style=\"width:14px;height:14px\">? Please explain in words how you got your answer.","response_type":"free","response_choices":[],"correct_response":"","response":"No 3, only goes to 3,6, and 0.","orientation_history":[[0]],"response_history":["No 3, only goes to 0.3.","No 3, only goes  to 0.3","No 3, only goes to 0.","No 3, only goes to 0","No 3, only goes to 3,6, and 0."],"rt":46298,"trial_type":"polygon-arrow-question","trial_index":0,"trial_index_global":61,"time_elapsed":1666485,"internal_chunk_id":"0-0.13-0"},{"nsides":9,"question":"Is 5 a generator under <img src=\"./images/nonagon_symbol.png\" style=\"width:14px;height:14px\">? Please explain in words how you got your answer.","response_type":"free","response_choices":[],"correct_response":"","response":"No, you can't get to every number by going around the circle in 5s.","orientation_history":[[0]],"response_history":["NO","No, you can't get to every number by going around the circle in 5s."],"rt":29517,"trial_type":"polygon-arrow-question","trial_index":0,"trial_index_global":62,"time_elapsed":1696003,"internal_chunk_id":"0-0.13-0"},{"nsides":9,"question":"Is 6 a generator under <img src=\"./images/nonagon_symbol.png\" style=\"width:14px;height:14px\">? Please explain in words how you got your answer.","response_type":"free","response_choices":[],"correct_response":"","response":"No, going around in 6s will only go to 6, 3, and 0.","orientation_history":[[0]],"response_history":["No, going around in 6s will onlu","No, going around in 6s will only go to 6, 3, and 0."],"rt":240376,"trial_type":"polygon-arrow-question","trial_index":0,"trial_index_global":63,"time_elapsed":1936381,"internal_chunk_id":"0-0.13-0"},{"nsides":"n","instructions":"Now we'd like to ask you some questions about <img src=\"./images/ngon_symbol.png\" style=\"width:14px;height:14px\">, where n could be any positive counting number. For example, n could be 3, and the polygon a triangle, or n could be any other counting number you can think of. If you need to write the operation, you can use \"(n)\", and your answers can include n to stand in for the arbitrary value if necessary. (You can use the polygon at the right to think, but it doesn't necessarily correspond to the real polygon, which is why we've left most  of it da shed.)","orientation_history":[0],"rt":562849,"trial_type":"polygon-arrow-instructions","trial_index":0,"trial_index_global":64,"time_elapsed":2499237,"internal_chunk_id":"0-0"},{"nsides":"n","question":"What is the formula for the inverse of 1 under <img src=\"./images/ngon_symbol.png\" style=\"width:14px;height:14px\">?","response_type":"free","response_choices":[],"correct_response":"n-1","response":"(n)-1","orientation_history":[[0]],"response_history":["(n)-1"],"rt":55446,"trial_type":"polygon-arrow-question","trial_index":0,"trial_index_global":65,"time_elapsed":2554694,"internal_chunk_id":"0-0.15-0"},{"nsides":"n","question":"What is the formula for the inverse of an element x under <img src=\"./images/ngon_symbol.png\" style=\"width:14px;height:14px\">? Please explain in words why your answer is correct.","response_type":"free","response_choices":[],"correct_response":"n-x","response":"(n)-x because that would lead to 0 on the chart.","orientation_history":[[0]],"response_history":["(n)-x because that would lead to 0 on the chart."],"rt":43687,"trial_type":"polygon-arrow-question","trial_index":0,"trial_index_global":66,"time_elapsed":2598385,"internal_chunk_id":"0-0.15-0"},{"nsides":"n","question":"Is there a pattern to which elements are generators? How can you know if an element x is a generator under <img src=\"./images/ngon_symbol.png\" style=\"width:14px;height:14px\"> without seeing whether it can make all the elements?.","response_type":"free","response_choices":[],"correct_response":"","response":"Generators are next to 0.  Non generators are 0 and numbers that are not next to 0.","orientation_history":[[0]],"response_history":["Generatio","Generati","Generators are next to 0.  Non generatio","Generators are next to 0.  Non generati","Generators are next to 0.  Non generators are 0 and numbers that are not tn","Generators are next to 0.  Non generators are 0 and numbers that are not t","Generators are next to 0.  Non generators are 0 a nd numbe rs that are not next to 0."],"rt":33040,"trial_type":"polygon-arrow-question","trial_index":0,"trial_index_global":67,"time_elapsed":2631428,"internal_chunk_id":"0-0.15-0"},{"nsides":"n","question":"True or false: If x is an odd number, it must be a generator under <img src=\"./images/ngon_symbol.png\" style=\"width:14px;height:14px\">.","response_type":"multi","response_choices":["True","False"],"correct_response":"False","response":"False","orientation_history":[[0]],"response_history":["False"],"rt":7789,"trial_type":"polygon-arrow-question","trial_index":0,"trial_index_global":68,"time_elapsed":2639220,"internal_chunk_id":"0-0.15-0"},{"nsides":"n","question":"True or false: If x is an even number, it must not be a generator under <img src=\"./images/ngon_symbol.png\" style=\"width:14px;height:14px\">.","response_type":"multi","response_choices":["True","False"],"correct_response":"False","response":"False","orientation_history":[[0]],"response_history":["False"],"rt":7921,"trial_type":"polygon-arrow-question","trial_index":0,"trial_index_global":69,"time_elapsed":2647144,"internal_chunk_id":"0-0.15-0"},{"nsides":"n","question":"True or false: If x is not a generator under <img src=\"./images/ngon_symbol.png\" style=\"width:14px;height:14px\">, x must divide n.","response_type":"multi","response_choices":["True","False"],"correct_response":"False","response":"True","orientation_history":[[0]],"response_history":["True"],"rt":7411,"trial_type":"polygon-arrow-question","trial_index":0,"trial_index_global":70,"time_elapsed":2654558,"internal_chunk_id":"0-0.15-0"},{"nsides":"n","question":"True or false: If x is not a generator under <img src=\"./images/ngon_symbol.png\" style=\"width:14px;height:14px\">, x must be a multiple of a divisor of n. Please explain in words why your answer is correct.","response_type":"free","response_choices":[],"correct_response":"True","response":"They always go around to the same numbers when they are multiples of those n umbers.   Non-multiples go to different numbers, but multiples go to the same numbers in a repeated cycle.","orientation_history":[[0]],"response_history":["They always go around to the same numbers when they are multiples of those numbers.  Non ","They always go around to the same numbers when they are multiples of those numbers.  Non-multiples o","They always go around to the same numbers when they are multiples of those numbers.  Non-multiples go to different numbers, but n","They always go around to the same numbers when they are multiples of those numbers.  Non-multiples go to different numbers, but multiples go to the same numbers in a repeated cycle."],"rt":55789,"trial_type":"polygon-arrow-question","trial_index":0,"trial_index_global":71,"time_elapsed":2710349,"internal_chunk_id":"0-0.15-0"},{"nsides":"n","question":"If an element x is a generator under <img src=\"./images/ngon_symbol.png\" style=\"width:14px;height:14px\">, is its inverse a generator under <img src=\"./images/ngon_symbol.png\" style=\"width:14px;height:14px\"> always, sometimes, or never?","response_type":"multi","response_choices":["Always","Sometimes","Never"],"correct_response":"Always","response":"Always","orientation_history":[[0]],"response_history":["Always"],"rt":14046,"trial_type":"polygon-arrow-question","trial_index":0,"trial_index_global":72,"time_elapsed":2724398,"internal_chunk_id":"0-0.15-0"},{"nsides":"n","question":"If an element x is not a generator under <img src=\"./images/ngon_symbol.png\" style=\"width:14px;height:14px\">, is x <img src=\"./images/ngon_symbol.png\" style=\"width:14px;height:14px\"> x a generator under <img src=\"./images/ngon_symbol.png\" style=\"width:14px;height:14px\"> always, sometimes, or never?","response_type":"multi","response_choices":["Always","Sometimes","Never"],"correct_response":"Never","response":"Always","orientation_history":[[0]],"response_history":["Always"],"rt":6530,"trial_type":"polygon-arrow-question","trial_index":0,"trial_index_global":73,"time_elapsed":2730931,"internal_chunk_id":"0-0.15-0"},{"nsides":"n","question":"If an element x is a generator under <img src=\"./images/ngon_symbol.png\" style=\"width:14px;height:14px\">, is x <img src=\"./images/ngon_symbol.png\" style=\"width:14px;height:14px\"> x a generator under <img src=\"./images/ngon_symbol.png\" style=\"width:14px;height:14px\"> always, sometimes, or never? Please explain in words why your answer is correct.","response_type":"free","response_choices":[],"correct_response":"Sometimes","response":"Yes because (n)x would just be x multiple times, so it's everything that x is.","orientation_history":[[0]],"response_history":["Yes because it ","Yes because it","Yes because i","Yes because (nx","Yes because (n)x would just be x multiple times, so it's everything that x is."],"rt":56517,"trial_type":"polygon-arrow-question","trial_index":0,"trial_index_global":74,"time_elapsed":2787451,"internal_chunk_id":"0-0.15-0"},{"instructions":"We would  like to  ask you some questions about your background. Please press \"Continue\" to continue.","rt":2244,"trial_type":"instructions","trial_index":0,"trial_index_global":75,"time_elapsed":2789699,"internal_chunk_id":"0-0.16-0"},{"question":"What is your age?","response_type":"free","response_choices":[],"correct_response":"","response":"32","response_history":["32"],"rt":2851,"trial_type":"question","trial_index":0,"trial_index_global":76,"time_elapsed":2792552,"internal_chunk_id":"0-0.16-0"},{"question":"What is your level of education?","response_type":"multi","response_choices":["Did not graduate high school","High school diploma","Some college, no degree","Associates Degree","Bachelors Degree","Some graduate school, no degree","Masters Degree","Doctorate, M.D., etc."],"correct_response":"","response":"Some college, no degree","response_history":["Some college, no degree"],"rt":3671,"trial_type":"question","trial_index":0,"trial_index_global":77,"time_elapsed":2796225,"internal_chunk_id":"0-0.16-0"},{"question":"What is the most advanced math class you've completed? If you have multiple classes and you're not sure which one is most advanced, please list them.","response_type":"free","response_choices":[],"correct_response":"","response":"College algebra, statistics (which I never understood well but still passed)","response_history":["College alebra, stta","College alebra, stt","College alebra, stat","College alebra, st","College aleb","College ale","College algebra, statisticsn","College algebra, statistics (which I never understood well but still passed)"],"rt":47185,"trial_type":"question","trial_index":0,"trial_index_global":78,"time_elapsed":2843413,"internal_chunk_id":"0-0.16-0"},{"question":"How familiar are you with the concept of modular arithmetic?","response_type":"multi","response_choices":["1 - never heard of it","2 - heard of it but didn't know what it was","3 - seen it used or explained","4 - used it but not often or recently","5 - used it, re member a nd understand it"],"correct_response":"1","response":"1 - never heard of it","response_history":["1 - never heard of it"],"rt":11272,"trial_type":"question","trial_index":0,"trial_index_global":79,"time_elapsed":2854686,"internal_chunk_id":"0-0.16-0"},{"question":"How familiar are you with the concept of a mathematical group?","response_type":"multi","response_choices":["1 - never heard of it","2 - heard of it but didn't know what it was","3 - seen it used or explained","4 - used it but not often or recently","5 - used it, remember and understand it"],"correct_response":"1","response":"2 - heard of it but didn't know what it was","response_history":["2 - heard of it but didn't know what it was"],"rt":4484,"trial_type":"question","trial_index":0,"trial_index_global":80,"time_elapsed":2859173,"internal_chunk_id":"0-0.16-0"},{"question":"Do you feel you learned something from this HIT?","response_type":"multi","response_choices":["1 - not at all","2 - somewhat","3 - definitely"],"correct_response":"1","response":"2 - somewhat","response_history":["2 - somewhat"],"rt":3979,"trial_type":"question","trial_index":0,"trial_index_global":81,"time_elapsed":2863155,"internal_chunk_id":"0-0.16-0"},{"question":"Do you feel you understood the concepts in this HIT?","response_type":"multi","response_choices":["1 - not at all","2 - somewhat","3 - definitely"],"correct_response":"1","response":"2 - somewhat","response_history":["2 - somewhat"],"rt":3137,"trial_type":"question","trial_index":0,"trial_index_global":82,"time_elapsed":2866293,"internal_chunk_id":"0-0.16-0"},{"question":"Did you enjoy this HIT?","response_type":"multi","response_choices":["1 - not at all","2 - somewhat","3 - definitely"],"correct_response":"1","response":"2 - somewhat","response_history":["2 - somewhat"],"rt":2938,"trial_type":"question","trial_index":0,"trial_index_global":83,"time_elapsed":2869234,"internal_chunk_id":"0-0.16-0"},{"question":"What is your gender?","response_type":"multi","response_choices":["Female","Male","Other"],"correct_response":"","response":"Female","response_history":["Female"],"rt":2601,"trial_type":"question","trial_index":0,"trial_index_global":84,"time_elapsed":2871837,"internal_chunk_id":"0-0.16-0"},{"question":"What is/are your native language(s)? (The languages spoken in your household when you were a child.)","response_type":"free","response_choices":[],"correct_response":"","response":"English","response_history":["Enlgish","Enlgis","Enlgi","Enlg","Enl","English"],"rt":10464,"trial_type":"question","trial_index":0,"trial_index_global":85,"time_elapsed":2882302,"internal_chunk_id":"0-0.16-0"},{"question":"Did you use pen and paper at any point on this HIT?","response_type":"free","response_choices":[],"correct_response":"","response":"No","response_history":["No"],"rt":5031,"trial_type":"question","trial_index":0,"trial_index_global":86,"time_elapsed":2887335,"internal_chunk_id":"0-0.16-0"},{"question":"Do you have any comments on thi s HIT?","response_type":"free","response_choices":[],"correct_response":"","response":"It would be nice if we were told how far we are from the end during the HIT.","response_history":["No","It would be ne","It would be nice if we were told how far we are from the end.","It would be nice if we were told how far we are from the end dui","It would be nice if we were told how far we are from the end during the hi","It would be nice if we were told how far we are from the end during the h","It would be nice if we were told how far we are from the end during the HIT."],"rt":30223,"trial_type":"question","trial_index":0,"trial_index_global":87,"time_elapsed":2917562,"internal_chunk_id":"0-0.16-0"}]