[{"instructions":"Let's define a new operation +<sub>6</sub>. This operation will give us a way of combining two of the numbers 0, 1, 2, 3, 4, 5 to get another one of them back. To perform +<sub>6</sub>, you start with the first number, and then add the second one to it. If the sum is smaller than 6, that's your result. If the sum is 6 or bigger, you subtract 6 to get your result. (That's why the operation is called +<sub>6</sub>.) <br /><br />For example, 3 +<sub>6</sub> 5 = 2, because 3 + 5 = 8, and 8 is bigger than 6, so we subtract 6, and 8 - 6 = 2. So 3 +<sub>6</sub> 5 = 2.<br /><br />Similarly, 1 +<sub>6</sub> 4 = 5, because 1 + 4 = 5, and 5 is less than 6 so we leave it alone. <br /><br />Click \"Continue\" when you're ready to move on.","rt":7403,"trial_type":"instructions","trial_index":0,"trial_index_global":1,"time_elapsed":11577,"internal_chunk_id":"0-0"},{"question":"Now try one on your own! What is 4 +<sub>6</sub> 5? <br /><br /> (Remember, to perform +<sub>6</s ub>, you  start with the first number, and then add the second one to it. If the sum is smaller than 6, that's your result. If the sum is 6 or bigger, you subtract 6 to get your result.)","response_type":"free","response_choices":[],"correct_response":"3","response":"3","response_history":["3"],"rt":6966,"trial_type":"question","trial_index":0,"trial_index_global":2,"time_elapsed":18551,"internal_chunk_id":"0-0.2-0"},{"feedback":"Correct! 4 +<sub>6</sub> 5 = 3 because 4 + 5 = 9 and 9 - 6 = 3.","rt":1479,"trial_type":"feedback","trial_index":0,"trial_index_global":3,"time_elapsed":20038,"internal_chunk_id":"0-0.2-0"},{"question":"What is 3 +<sub>6</sub> 2? <br /><br /> (Remember, to perform +<sub>6</sub>, you start with the first number, and then add the second one to it. If the sum is smaller than 6, that's your result. If the sum is 6 or bigger, you subtract 6 to get your result.)","response_type":"free","response_choices":[],"correct_response":"5","response":"5","response_history":["5"],"rt":3029,"trial_type":"question","trial_index":0,"trial_index_global":4,"time_elapsed":23069,"internal_chunk_id":"0-0.2-0"},{"feedback":"Correct! 3 +<sub>6</sub> 2 = 5 because 3 + 2 = 5 and 5 is less than 6.","rt":1925,"trial_type":"feedback","trial_index":0,"trial_index_global":5,"time_elapsed":24998,"internal_chunk_id":"0-0.2-0"},{"question":"What is 1 +<sub>6</sub> 5? <br /><br /> (Remember, to perform +<sub>6</sub>, you start with the first number, and then add the second one to it. If the sum is smaller than 6, that's your result. If the sum is 6 or bigger, you subtract 6 to get your result.)","response_type":"free","response_choices":[],"correct_response":"0","response":"0","response_history":["0"],"rt":3596,"trial_type":"question","trial_index":0,"trial_index_global":6,"time_elapsed":28598,"internal_chunk_id":"0-0.2-0"},{"feedback":"Correct! 1 +<sub>6</sub> 5 = 0 because 1 + 5 = 6 and 6 - 6 = 0.","rt":1300,"trial_type":"feedback","trial_index":0,"trial_index_global":7,"time_elapsed":29902,"internal_chunk_id":"0-0.2-0"},{"question":"What is 1 +<sub>6</sub> 1? <br /><br /> (Remember, to perform +<sub>6</sub>, you start with the first number, and then add the second one to it. If the sum is smaller than 6, that's your result. If the sum is 6 or bigger, you subtract 6 to get your result.)","response_type":"free","response_choices":[],"correct_response":"2","response":"2","response_history":["2"],"rt":3881,"trial_type":"question","trial_index":0,"trial_index_global":8,"time_elapsed":33786,"internal_chunk_id":"0-0.2-0"},{"feedback":"Correct! 1 +<sub>6</sub> 1 = 2 because 1 + 1 = 2 and 2 is less than 6.","rt":927,"trial_type":"feedback","trial_index":0,"trial_index_global":9,"time_elapsed":34717,"internal_chunk_id":"0-0.2-0"},{"question":"What is 3 +<sub>6</sub> 0? <br /><br /> (Remember, to perform +<sub>6</sub>, you start with the first number, and then add the second one to it. If the sum is smaller than 6, that's your result. If the sum is 6 or bigg er, you  subtract 6 to get your result.)","response_type":"free","response_choices":[],"correct_response":"3","response":"3","response_history":["3"],"rt":4716,"trial_type":"question","trial_index":0,"trial_index_global":10,"time_elapsed":39438,"internal_chunk_id":"0-0.2-0"},{"feedback":"Correct! 3 +<sub>6</sub> 0 = 3 because 3 + 0 = 3 and 3 is less than 6.","rt":1353,"trial_type":"feedback","trial_index":0,"trial_index_global":11,"time_elapsed":40797,"internal_chunk_id":"0-0.2-0"},{"question":"What is 4 +<sub>6</sub> 4? <br /><br /> (Remember, to perform +<sub>6</sub>, you start with the first number, and then add the second one to it. If the sum is smaller than 6, that's your result. If the sum is 6 or bigger, you subtract 6 to get your result.)","response_type":"free","response_choices":[],"correct_response":"2","response":"2","response_history":["2"],"rt":3686,"trial_type":"question","trial_index":0,"trial_index_global":12,"time_elapsed":44486,"internal_chunk_id":"0-0.2-0"},{"feedback":" Correct! 4 +<sub>6</sub> 4 = 2 because 4 + 4 = 8 and 8 - 6 = 2.","rt":1244,"trial_type":"feedback","trial_index":0,"trial_index_global":13,"time_elapsed":45733,"internal_chunk_id":"0-0.2-0"},{"question":"What is 1 +<sub>6</sub> 3? <br /><br /> (Remember, to perform +<sub>6</sub>, you start with the first number, and then add the second one to it. If the sum is smaller than 6, that's your result. If the sum is 6 or bigger, you subtract 6 to get your result.)","response_type":"free","response_choices":[],"correct_response":"4","response":"4","response_history":["4"],"rt":3877,"trial_type":"question","trial_index":0,"trial_index_global":14,"time_elapsed":49613,"internal_chunk_id":"0-0.2-0"},{"feedback":"Correct! 1 +<sub>6</sub> 3 = 4 because 1 + 3 = 4 and 4 is less than 6.","rt":1610,"trial_type":"feedback","trial_index":0,"trial_index_global":15,"time_elapsed":51231,"internal_chunk_id":"0-0.2-0"},{"question":"What is 4 +<sub>6</sub> 3? <br /><br /> (Remember, to perform +<sub> 6</sub>,  you start with the first number, and then add the second one to it. If the sum is smaller than 6, that's your result. If the sum is 6 or bigger, you subtract 6 to get your result.)","response_type":"free","response_choices":[],"correct_response":"1","response":"1","response_history":["1"],"rt":3107,"trial_type":"question","trial_index":0,"trial_index_global":16,"time_elapsed":54342,"internal_chunk_id":"0-0.2-0"},{"feedback":"Correct! 4 +<sub>6</sub> 3 = 1 because 4 + 3 = 7 and 7 - 6 = 1.","rt":1029,"trial_type":"feedback","trial_index":0,"trial_index_global":17,"time_elapsed":55374,"internal_chunk_id":"0-0.2-0"},{"question":"What is 0 +<sub>6</sub> 5? <br /><br /> (Remember, to perform +<sub>6</sub>, you start with the first number, and then add the second one to it. If the sum is smaller than 6, that's your result. If the sum is 6 or bigger, you subtract 6 to get your result.)","response_type":"free","response_choices":[],"correct_response":"5","response":"5","response_history":[" 5"],"rt":3406,"trial_type":"question","trial_index":0,"trial_index_global":18,"time_elapsed":58783,"internal_chunk_id":"0-0.2-0"},{"feedback":"Correct! 0 +<sub>6</sub> 5 = 5 because 0 + 5 = 5 and 5 is less than 6.","rt":1101,"trial_type":"feedback","trial_index":0,"trial_index_global":19,"time_elapsed":59894,"internal_chunk_id":"0-0.2-0"},{"question":"What is 2 +<sub>6</sub> 5? <br /><br /> (Remember, to perform +<sub>6</sub>, you start with the first number, and then add the second one to it. If the sum is smaller than 6, that's your result. If the sum is 6 or bigger, you subtract 6 to get your result.)","response_type":"free","response_choices":[],"correct_response":"1","response":"1","response_history":["1"],"rt":3319,"trial_type":"question","trial_index":0,"trial_index_global":20,"time_elapsed":63216,"internal_chunk_id":"0-0.2-0"},{"feedback":"Correct! 2 +<sub>6</sub> 5 = 1 because 2 + 5 = 7 and 7 - 6 = 1.","rt":1362,"trial_type":"feedback","trial_index":0,"trial_index_global":21,"time_elapsed":64582,"internal_chunk_id":"0-0.2-0"},{"instructions":"Now we're going to discuss a couple special properties of this new operation, +<sub>6</sub> that we've learned. First, notice that the number 0 behaves in a special way under +<sub>6</sub>. Whenever we combine 0 with anything else, we get that same thing back. We'll say that 0 is the <i>identity</i> under +<sub>6</sub>, because when you combine it with something it gives you that identical thing back.","rt":24552,"trial_type":"instructions","trial_index":0,"trial_index_global":22,"time_elapsed":89143,"internal_chunk_id":"0-0"},{"instructions":"Now that we know 0 is the identity under +<sub>6</sub>, we're going to make a new definition. We'll say that the <i>inverse</i> of a number is the thing that you combine with it to produce the identity. For example, 5 +<sub>6</sub> 1 = 0, so we say 1 is the inverse of 5 under +<sub>6</sub>, (remember 0 is the identity under +<sub>6</sub>). Similarly, 3 is its own in verse un der +<sub>6</sub>, because 3 +<sub>6</sub> 3 = 0.","rt":8290,"trial_type":"instructions","trial_index":0,"trial_index_global":23,"time_elapsed":97439,"internal_chunk_id":"0-0"},{"question":"Now you try! What is the inverse of 4 under +<sub>6</sub>? <br /><br /> (Remember, the inverse of an element is the thing which you combine with it to produce the identity.)","response_type":"free","response_choices":[],"correct_response":"2","response":"2","response_history":["2"],"rt":6943,"trial_type":"question","trial_index":0,"trial_index_global":24,"time_elapsed":104388,"internal_chunk_id":"0-0.6-0"},{"feedback":"Correct! The inverse of 4 under +<sub>6</sub> is 2 because 4 +<sub>6</sub> 2 = 0, and 0 is the identity under +<sub>6</sub>.","rt":1115,"trial_type":"feedback","trial_index":0,"trial_index_global":25,"time_elapsed":105509,"internal_chunk_id":"0-0.6-0"},{"question":"What is the inverse of 1 under +<sub>6</sub>? <br /><br /> (Remember, the inverse of an element is the thing w hich you  combine with it to produce the identity.)","response_type":"free","response_choices":[],"correct_response":"5","response":"5","response_history":["5"],"rt":2967,"trial_type":"question","trial_index":0,"trial_index_global":26,"time_elapsed":108479,"internal_chunk_id":"0-0.6-0"},{"feedback":"Correct! The inverse of 1 under +<sub>6</sub> is 5 because 1 +<sub>6</sub> 5 = 0, and 0 is the identity under +<sub>6</sub>.","rt":990,"trial_type":"feedback","trial_index":0,"trial_index_global":27,"time_elapsed":109473,"internal_chunk_id":"0-0.6-0"},{"question":"What is the inverse of 3 under +<sub>6</sub>? <br /><br /> (Remember, the inverse of an element is the thing which you combine with it to produce the identity.)","response_type":"free","response_choices":[],"correct_response":"3","response":"3","response_history":["3"],"rt":4570,"trial_type":"question","trial_index":0,"trial_index_global":28,"time_elapsed":114047,"internal_chunk_id":"0-0.6-0"},{"feedback":"Correct! The inverse o f 3 unde r +<sub>6</sub> is 3 because 3 +<sub>6</sub> 3 = 0, and 0 is the identity under +<sub>6</sub>.","rt":1339,"trial_type":"feedback","trial_index":0,"trial_index_global":29,"time_elapsed":115390,"internal_chunk_id":"0-0.6-0"},{"question":"What is the inverse of 2 under +<sub>6</sub>? <br /><br /> (Remember, the inverse of an element is the thing which you combine with it to produce the identity.)","response_type":"free","response_choices":[],"correct_response":"4","response":"4","response_history":["4"],"rt":4437,"trial_type":"question","trial_index":0,"trial_index_global":30,"time_elapsed":119831,"internal_chunk_id":"0-0.6-0"},{"feedback":"Correct! The inverse of 2 under +<sub>6</sub> is 4 because 2 +<sub>6</sub> 4 = 0, and 0 is the identity under +<sub>6</sub>.","rt":1621,"trial_type":"feedback","trial_index":0,"trial_index_global":31,"time_elapsed":121456,"internal_chunk_id":"0-0.6-0"},{"question":"What is the inverse of 0 under +<sub>6</sub>? <br /><br /> (Remember, the inv erse of  an element is the thing which you combine with it to produce the identity.)","response_type":"free","response_choices":[],"correct_response":"0","response":"6","response_history":["6","0","6"],"rt":21930,"trial_type":"question","trial_index":0,"trial_index_global":32,"time_elapsed":143390,"internal_chunk_id":"0-0.6-0"},{"feedback":"Sorry, that was incorrect. The inverse of 0 under +<sub>6</sub> is 0 because 0 +<sub>6</sub> 0 = 0, and 0 is the identity under +<sub>6</sub>.","rt":3019,"trial_type":"feedback","trial_index":0,"trial_index_global":33,"time_elapsed":146416,"internal_chunk_id":"0-0.6-0"},{"question":"Let's review: under +<sub>6</sub>, the inverse of 0 is 0, the inverse of 1 is 5 and the inverse of 5 is 1, the inverse of 2 is 4 and the inverse of 4 is 2, and finally the inverse of 3 is 3. Do you see a relationship between an element and its inverse under +<sub>6</sub>?","response_type":"free","response_choices":[],"correct_response":"","response":"element +6 inverse  = ident ity","response_history":["element +6 inverse = identity"],"rt":28635,"trial_type":"question","trial_index":0,"trial_index_global":34,"time_elapsed":175056,"internal_chunk_id":"0-0"},{"instructions":"It is also possible to successively apply +<sub>6</sub>, and the operation can simply be performed starting with the left-most pair. For example, 2 +<sub>6</sub> 3 +<sub>6</sub> 4 = 5 +<sub>6</sub> 4 = 3.","rt":1713,"trial_type":"instructions","trial_index":0,"trial_index_global":35,"time_elapsed":176774,"internal_chunk_id":"0-0"},{"instructions":"We have one last definition to learn today, using the successive operations we just learned. Let's start with an example. Under our operation +<sub>6</sub> we can make every other number using just 1: 2 = 1 +<sub>6</sub> 1, 3 = 1 +<sub>6</sub> 1 +<sub>6</sub> 1, 4 = 1 +<sub>6</sub> 1 +<sub>6</sub> 1 +<sub>6</sub> 1, 5 = 1 +<sub>6</sub> 1 +<sub>6</sub> 1 +<sub>6</sub> 1 +<sub>6</sub> 1, and 0 = 1 +<sub>6</sub> 1 +<sub>6</sub> 1 +<sub>6</ sub> 1 + <sub>6</sub> 1 +<sub>6</sub> 1. Because of this, we say that 1 is a <i>generator</i> under +<sub>6</sub>. <br /><br /> However, 2 is not a generator under +<sub>6</sub>, because 4 = 2 +<sub>6</sub> 2, and 0 = 2 +<sub>6</sub> 2 +<sub>6</sub> 2, but there is no way to make 1, 3, or 5 using just 2.","rt":9081,"trial_type":"instructions","trial_index":0,"trial_index_global":36,"time_elapsed":185859,"internal_chunk_id":"0-0"},{"question":"Now you try! Is 3 a generator under +<sub>6</sub>? <br /><br /> (Remember, a generator is an element which can make every other element.)","response_type":"multi","response_choices":["Yes","No"],"correct_response":"No","response":"No","response_history":["No"],"rt":6689,"trial_type":"question","trial_index":0,"trial_index_global":37,"time_elapsed":192556,"internal_chunk_id":"0-0.10-0"},{"feedback":"Correct! 3 is not a generator under +<sub>6</sub>, because 3 = 3, 0 = 3 +<sub>6</sub> 3, but there is no way to make 1, 2, 4, or 5 using just 3.","rt":1366,"trial_type":"feedback","trial_index":0,"trial_index_global":38,"time_elapsed":193927,"internal_chunk_id":"0-0.10-0"},{"question":"Is 5 a generator under +<sub>6</sub>? <br /><br /> (Remember, a generator is an element which can make every other element.)","response_type":"multi","response_choices":["Yes","No"],"correct_response":"Yes","response":"No","response_history":["No"],"rt":14013,"trial_type":"question","trial_index":0,"trial_index_global":39,"time_elapsed":207945,"internal_chunk_id":"0-0.10-0"},{"feedback":"Sorry, that's incorrect. 5 is a generator under +<sub>6</sub>, because 5 = 5, 4 = 5 +<sub>6</sub> 5, 3 = 5 +<sub>6</sub> 5 +<sub>6</sub> 5, 2 = 5 +<sub>6</sub> 5 +<sub>6</sub> 5 +<sub>6</sub> 5, 1 = 5 +<sub>6</sub> 5 +<sub>6</sub> 5 +<sub>6</sub> 5 +<sub>6</sub> 5, and 0 = 5 +<sub>6</sub> 5 +<sub>6</sub> 5 +<sub>6</sub> 5 +<sub>6</sub> 5 +<sub>6</sub> 5, so you can make all of the numbers under +<sub>6</sub> using 5","rt":15285,"trial_type":"feedback","trial_index":0,"trial_index_global":40,"time_elapsed":223239,"internal_chunk_id":"0-0.10-0"},{"question":"Is 4 a generator under +<sub>6</sub>? <br /><br /> (Remember, a generator is an element which can make every other element.)","response_type":"multi","response_choices":["Yes","No"],"correct_response":"No","response":"No","response_history":["No"],"rt":17819,"trial_type":"question","trial_index":0,"trial_index_global":41,"time_elapsed":241066,"internal_chunk_id":"0-0.10-0"},{"feedback":"Correct! 4 is not a generator under +<sub>6</sub>, because 4 = 4, 2 = 4 +<sub>6</sub> 4, and 0 = 4 +<sub>6</sub> 4 +<sub>6</sub> 4, but there is no way to make 1, 3, or 5 using just 4.","rt":2877,"trial_type":"feedback","trial_index":0,"trial_index_global":42,"time_elapsed":243953,"internal_chunk_id":"0-0.10-0"},{"question":"Is 0 a generator under +<sub>6</sub>? <br /><br /> (Remember, a generator is an element which can make every other element.)","response_type":"multi","response_choices":["Yes","No"],"correct_response":"No","response":"No","response_history":["No"],"rt":6419,"trial_type":"question","trial_index":0,"trial_index_global":43,"time_elapsed":250376,"internal_chunk_id":"0-0.10-0"},{"feedback":"Correct! 0 is not a generator under +<sub>6</sub>, because 0 = 0, but there is no way to make 1, 2, 3, 4, or 5 using just 0.","rt":1410,"trial_type":"feedback","trial_index":0,"trial_index_global":44,"time_elapsed":251790,"internal_chunk_id":"0-0.10-0"},{"question":"Let's review: under +<sub>6</sub>, 1 and 5 are generators. However, 0, 2, 3, and 4 are not generators. Try playing with these non-generators and seeing which elements each of them does generate (i.e. which elements you can get by combining each non-generator with itself repeatedly). Do you see relationships among particular subsets of the elements that are not generators under +<sub>6</sub>?","response_type":"free","response_choices":[],"correct_response":"","response":"0 can only generate itself. 2 and 4 can only genera te even- numbered results, while 3 can only generate multiples of itself (0,3,6,9, etc)","response_history":["0 can only generate itself. 2 and 4 can only generate even-numbered results, while 3 can only generate 0,3, ","0 can only generate itself. 2 and 4 can only generate even-numbered results, while 3 can only generate 0,3,6, ","0 can only generate itself. 2 and 4 can only generate even-numbered results, while 3 can only generate 0,3,6,","0 can only generate itself. 2 and 4 can only generate even-numbered results, while 3 can only generate mul","0 can only generate itself. 2 and 4 can only generate even-numbered results, while 3 can only generate mu","0 can only generate itself. 2 and 4 can only generate even-numbered results, while 3 can only generate m","0 can only generate itself. 2 and 4 can only generate even-numbered results, while 3 can only generate ml","0 can only generate itself. 2 and 4 can only generate even-numbered results, while 3 can only generate multiples of itse lf (3, 5 ","0 can only generate itself. 2 and 4 can only generate even-numbered results, while 3 can only generate multiples of itself (3, ","0 can only generate itself. 2 and 4 can only generate even-numbered results, while 3 can only generate multiples of itself (3,6, 9","0 can only generate itself. 2 and 4 can only generate even-numbered results, while 3 can only generate multiples of itself (3,6, ","0 can only generate itself. 2 and 4 can only generate even-numbered results, while 3 can only generate multiples of itself (3,6,9, etc)","0 can only generate itself. 2 and 4 can only generate even-numbered results, while 3 can only generate multiples of itself (03,6,9, etc)","0 can only generate itself. 2 and 4 can only generate even-numbered results, while 3 can only generate multiples of itself (0,3,6,9, etc)"],"rt":131698,"trial_type":"question","trial_index":0,"trial_index_global":45,"time_elapsed":383492,"internal_chunk_id":"0-0"},{"instructions":"Now we are going to ask you some  questio ns about a new operation, +<sub>9</sub>, on the numbers 0, 1, 2, 3, 4, 5, 6, 7, 8. It works exactly like +<sub>6</sub>, except now after adding the two numbers you subtract 9 if your result is 9 or greater. <br /><br />We'll give you one practice question with feedback to make sure you understand the new operation. After that, try to complete the remaining questions as accurately as possible.","rt":5230,"trial_type":"instructions","trial_index":0,"trial_index_global":46,"time_elapsed":388730,"internal_chunk_id":"0-0"},{"question":"Practice: What is 5 +<sub>9</sub> 5?","response_type":"free","response_choices":[],"correct_response":"1","response":"1","response_history":["1"],"rt":4397,"trial_type":"question","trial_index":0,"trial_index_global":47,"time_elapsed":393130,"internal_chunk_id":"0-0.13-0"},{"feedback":"Correct! 5 +<sub>9</sub> 5 = 1 because 5 + 5 = 10 and 10 - 9 = 1.","rt":1580,"trial_type":"feedback","trial_index":0,"trial_index_global":48,"time_elapsed":394714,"internal_chunk_id":"0-0.13-0"},{"question":"What is 3 +<sub>9</sub> 3?","response_type":"free","response_choices":[],"correct_response":"6","response":"6","response_history":["6"],"rt":3510,"trial_type":"question","trial_index":0,"trial_index_global":49,"time_elapsed":398228,"internal_chunk_id":"0-0.13-0"},{"question":"What is 7 +<sub>9</sub> 4?","response_type":"free","response_choices":[],"correct_response":"2","response":"2","response_history":["2"],"rt":3782,"trial_type":"question","trial_index":0,"trial_index_global":50,"time_elapsed":402014,"internal_chunk_id":"0-0.13-0"},{"question":"What is 1 +<sub>9</sub> 8?","response_type":"free","response_choices":[],"correct_response":"0","response":"0","response_history":["0"],"rt":3722,"trial_type":"question","trial_index":0,"trial_index_global":51,"time_elapsed":405746,"internal_chunk_id":"0-0.13-0"},{"question":"What is 5 +<sub>9</sub> 4?","response_type":"free","response_choices":[],"correct_response":"0","response":"0","response_history":["0"],"rt":2933,"trial_type":"question","trial_index":0,"trial_index_global":52,"time_elapsed":408683,"internal_chunk_id":"0-0.13-0"},{"question":"What is 6 +<sub>9</sub> 6?","response_type":"free","response_choices":[],"correct_response":"3","response":"3","response_history":["3"],"rt":2491,"trial_type":"question","trial_index":0,"trial_index_global":53,"time_elapsed":411178,"internal_chunk_id":"0-0.13-0"},{"question":"What is 4 +<sub>9</sub> 1? Please explain in words how you got your answer.","response_type":"free","response_choices":[],"correct_response":"","response":"5, because 4+1=5, and 5<9","response_history":["5 ","5, because 4+5","5, because 4+1=5, 5<9","5, because 4+1=5, a5<9","5, because 4+1=5, an5<9","5, because 4+1=5, and5<9","5, because 4+1=5, and 5<9"],"rt":22957,"trial_type":"question","trial_index":0,"trial_index_global":54,"time_elapsed":434140,"internal_chunk_id":"0-0.13-0"},{"question":"What is 8 +<sub>9</sub> 4? Please explain in words how you got your  answer.","response_type":"free","response_choices":[],"correct_response":"","response":"3, because 8+4=12, and 12>9, so 12-9=3","response_history":["3, because 8+4=12, and 12-","3, because 8+4=12, and 12>9, so 12-0","3, because 8+4=12, and 12>9, so 12-9=3"],"rt":25842,"trial_type":"question","trial_index":0,"trial_index_global":55,"time_elapsed":459990,"internal_chunk_id":"0-0.13-0"},{"question":"What is the identity under +<sub>9</sub>? Please explain in words how you got your answer.","response_type":"free","response_choices":[],"correct_response":"0","response":"I saw nothing to indicate why it would be anything other than 0, because any other integer would change the result rather than returning the same thing.","response_history":["I saw nothing to indiciat","I saw nothing to indicia","I saw nothing to indici","I saw nothing to indicate why it woudl be","I saw nothing to indicate why it woudl b","I saw nothing to indicate why it woudl ","I saw nothing to indicate why it woudl","I saw n othing to indicate why it woud","I saw nothing to indicate why it would be anything other than zero","I saw nothing to indicate why it would be anything other than zer","I saw nothing to indicate why it would be anything other than ze","I saw nothing to indicate why it would be anything other than z","I saw nothing to indicate why it would be anything other than 0, because anthing","I saw nothing to indicate why it would be anything other than 0, because anthin","I saw nothing to indicate why it would be anything other than 0, because anthi","I saw nothing to indicate why it would be anything other than 0, because anth","I saw nothing to indicate why it would be anything other than 0, because ant","I saw nothing to indicate why it would be anything other than 0, because any other integer would d","I saw nothing to indicate why it would be anything other than 0, because any other integer would chagne","I saw nothing to indicate why it would be anything other than 0, because a ny other  integer would chagn","I saw nothing to indicate why it would be anything other than 0, because any other integer would chag","I saw nothing to indicate why it would be anything other than 0, because any other integer would change the result rather than returning the same thing."],"rt":42180,"trial_type":"question","trial_index":0,"trial_index_global":56,"time_elapsed":502178,"internal_chunk_id":"0-0.13-0"},{"question":"What is the inverse of 5 under +<sub>9</sub>?","response_type":"free","response_choices":[],"correct_response":"4","response":"4","response_history":["4"],"rt":4407,"trial_type":"question","trial_index":0,"trial_index_global":57,"time_elapsed":506592,"internal_chunk_id":"0-0.13-0"},{"question":"What is the inverse of 2 under +<sub>9</sub>?","response_type":"free","response_choices":[],"correct_response":"7","response":"7","response_history":["7"],"rt":3466,"trial_type":"question","trial_index":0,"trial_index_global":58,"time_elapsed":510062,"internal_chunk_id":"0-0.1 3-0"},{"question":"What is the inverse of 3 under +<sub>9</sub>? Please explain in words how you got your answer.","response_type":"free","response_choices":[],"correct_response":"","response":"6 because 3+6=9, and 9-9=0","response_history":["6 because 6","6 because 3+6=9, and 9-9=0"],"rt":26773,"trial_type":"question","trial_index":0,"trial_index_global":59,"time_elapsed":536844,"internal_chunk_id":"0-0.13-0"},{"question":"Is 2 a generator under +<sub>9</sub>? Please explain in words how you got your answer.","response_type":"free","response_choices":[],"correct_response":"","response":"Using only 2, you can make 2,4,6, and 8, and then 10-9=1, 12-9=3, 14-9=5, 16-9=7, and 18-9=9, so yes, 2 is a generator under +9","response_history":["2+2","2+","2","Using only 2, you can mae ","Using only 2, you can mae","Using only 2, you can make 2, ","Using only 2, you can make 2,6, ","Using only 2, you can make 2,6,","Using only 2, you can make 2,6","Using only 2, you can make 2,4, ","Us ing only  2, you can make 2,4,6, 8","Using only 2, you can make 2,4,6, ","Using only 2, you can make 2,4,6,8","Using only 2, you can make 2,4,6, and 8, and then 10-9=1, 11","Using only 2, you can make 2,4,6, and 8, and then 10-9=1, 12","Using only 2, you can make 2,4,6, and 8, and then 10-9=1, 13","Using only 2, you can make 2,4,6, and 8, and then 10-9=1, 1","Using only 2, you can make 2,4,6, and 8, and then 10-9=1, 12=","Using only 2, you can make 2,4,6, and 8, and then 10-9=1, 12-9=3, 14-9=5, 16-9=7, and 18-9=9, so yes, 2 is a generator under +9"],"rt":134256,"trial_type":"question","trial_index":0,"trial_index_global":60,"time_elapsed":671107,"internal_chunk_id":"0-0.13-0"},{"question":"Is 3 a generator under +<sub>9</sub>? Please explain in words how you got your answer.","response_type":"free","response_choices":[],"correct_response":"","response":"using only 3, you can make 3, 6, and 9 (which then returns 0), but 12-9=3, so you can only get multiples of 3 under +9. No, 3 is not  a gener ator. (Also, I just realized I was wrong on the last one... 2 is NOT a generator, because there's no way to get 0 using just 2)","response_history":["using only 3, you can make 0","using only 3, you can make 3, 6, and 9 (which makes ","using only 3, you can make 3, 6, and 9 (which makes","using only 3, you can make 3, 6, and 9 (which make","using only 3, you can make 3, 6, and 9 (which mak","using only 3, you can make 3, 6, and 9 (which ma","using only 3, you can make 3, 6, and 9 (which m","using only 3, you can make 3, 6, and 9 (which then returns 0), but 12-9=3, so you can only get multiples of 3 under +9, ","using only 3, you can make 3, 6, and 9 (which then returns 0), but 12-9=3, so you can only get multiples of 3 under +9,","using only 3, you can make 3, 6, and 9 (which then returns 0), but 12-9=3, so you can only get multiples of 3 under +9. no,","using only 3, you can make 3, 6, and 9 (which then returns 0), but 12-9=3, so you can only get multiples of 3 under +9. no ","using  only 3, you can make 3, 6, and 9 (which then returns 0), but 12-9=3, so you can only get multiples of 3 under +9. n","using only 3, you can make 3, 6, and 9 (which then returns 0), but 12-9=3, so you can only get multiples of 3 under +9. No, 3 is not a generator. (Also, I just realized I was wrong on the last one... two is not","using only 3, you can make 3, 6, and 9 (which then returns 0), but 12-9=3, so you can only get multiples of 3 under +9. No, 3 is not a generator. (Also, I just realized I was wrong on the last one... two is no","using only 3, you can make 3, 6, and 9 (which then returns 0), but 12-9=3, so you can only get multiples of 3 under +9. No, 3 is not a generator. (Also, I just realized I was wrong on the last one... two is n","using only 3, you can make 3, 6, and 9 (which then returns 0), but 12-9=3, so you can only get multiples of 3 under +9. No, 3 is not a generator. (Also, I just realized I was wrong on the last one... two is ","using only 3, you can ma ke 3, 6,  and 9 (which then returns 0), but 12-9=3, so you can only get multiples of 3 under +9. No, 3 is not a generator. (Also, I just realized I was wrong on the last one... two is","using only 3, you can make 3, 6, and 9 (which then returns 0), but 12-9=3, so you can only get multiples of 3 under +9. No, 3 is not a generator. (Also, I just realized I was wrong on the last one... two i","using only 3, you can make 3, 6, and 9 (which then returns 0), but 12-9=3, so you can only get multiples of 3 under +9. No, 3 is not a generator. (Also, I just realized I was wrong on the last one... two ","using only 3, you can make 3, 6, and 9 (which then returns 0), but 12-9=3, so you can only get multiples of 3 under +9. No, 3 is not a generator. (Also, I just realized I was wrong on the last one... two","using only 3, you can make 3, 6, and 9 (which then returns 0), but 12-9=3, so you can only get multiples of 3 under +9. No, 3 is not a generator. (Also, I just realized I was wrong on the las t one...  tw","using only 3, you can make 3, 6, and 9 (which then returns 0), but 12-9=3, so you can only get multiples of 3 under +9. No, 3 is not a generator. (Also, I just realized I was wrong on the last one... t","using only 3, you can make 3, 6, and 9 (which then returns 0), but 12-9=3, so you can only get multiples of 3 under +9. No, 3 is not a generator. (Also, I just realized I was wrong on the last one... 2 is NOT a generator, because there's no way to get 0 using just 2)"],"rt":140670,"trial_type":"question","trial_index":0,"trial_index_global":61,"time_elapsed":811788,"internal_chunk_id":"0-0.13-0"},{"question":"Is 5 a generator under +<sub>9</sub>? Please explain in words how you got your answer.","response_type":"free","response_choices":[],"correct_response":"","response":"using only 5, you can get 1 (5+5-9=1)and 6(5+5+5-9=6), but no other single-digit results. No, 5 is not a generator","response_history":["5 +9 5","using only 5, you can get 1","using only 5, you can g et 1, 6,  ","using only 5, you can get 1, 6,","using only 5, you can get 1, 6","using only 5, you can get 1, a","using only 5, you can get 1, ","using only 5, you can get 1,","using only 5, you can get 1 and 6, but no other results","using only 5, you can get 1 and 6, but no other result","using only 5, you can get 1 and 6, but no other resul","using only 5, you can get 1 and 6, but no other resu","using only 5, you can get 1 and 6, but no other res","using only 5, you can get 1 and 6, but no other re","using only 5, you can get 1 and 6, but no other r","using only 5, you can get 1 and 6, but no other single-digit results. No ","using only 5, you can get 1 and 6, but no other single-digit results. No, 5 is not a genr","using only 5, you can get 1 and 6, but no other single-digit results. No, 5 is not a generator","using only 5, you can get 1 (and 6, but no other single-digit results. No, 5 is not a generator","using only 5, you can get 1 (5and 6, but no other single-digit results. No , 5 is n ot a generator","using only 5, you can get 1 (5+and 6, but no other single-digit results. No, 5 is not a generator","using only 5, you can get 1 (5+5and 6, but no other single-digit results. No, 5 is not a generator","using only 5, you can get 1 (5+5-and 6, but no other single-digit results. No, 5 is not a generator","using only 5, you can get 1 (5+5-9and 6, but no other single-digit results. No, 5 is not a generator","using only 5, you can get 1 (5+5-9=and 6, but no other single-digit results. No, 5 is not a generator","using only 5, you can get 1 (5+5-9=1and 6, but no other single-digit results. No, 5 is not a generator","using only 5, you can get 1 (5+5-9=1)and 6, but no other single-digit results. No, 5 is not a generator","using only 5, you can get 1 (5+5-9=1)and 6(, but no other single-digit results. No, 5 is not a generator","using only 5, you can get 1 (5+5-9=1)and 6(5, but no other single-digit results. No, 5 is not a generator","using only 5, you can get 1 (5+5-9=1 )and 6(5 +, but no other single-digit results. No, 5 is not a generator","using only 5, you can get 1 (5+5-9=1)and 6(5+5, but no other single-digit results. No, 5 is not a generator","using only 5, you can get 1 (5+5-9=1)and 6(5+5+, but no other single-digit results. No, 5 is not a generator","using only 5, you can get 1 (5+5-9=1)and 6(5+5+5, but no other single-digit results. No, 5 is not a generator","using only 5, you can get 1 (5+5-9=1)and 6(5+5+5-, but no other single-digit results. No, 5 is not a generator","using only 5, you can get 1 (5+5-9=1)and 6(5+5+5-9, but no other single-digit results. No, 5 is not a generator","using only 5, you can get 1 (5+5-9=1)and 6(5+5+5-9=, but no other single-digit results. No, 5 is not a generator","using only 5, you can get 1 (5+5-9=1)and 6(5+5+5-9=6, but no other single-digit results. No, 5 is not a generator","using only 5, you can get 1 (5+5-9=1)and 6(5+5+5-9=6), but no other single-digit results. No, 5 is not a generator"],"rt":115489,"trial_type":"question","trial_index":0,"trial_index_global":62,"time_elapsed":927289,"internal_chunk_id":"0-0.13-0"},{"question":"Is 6 a generator under +<sub>9</sub>? Please explain in words how you got your answer.","response_type":"free","response_choices":[],"correct_response":"","response":"using only 6, you can get 0 (6 +9 6 +9 6 = 0), 3 (6 +9 6 = 3) and 6 (6 +9 6 +9 6 +9 6 = 6), but no other single digit results, because at that point it starts repeating. 6 is not a generator.","response_history":["using only 6, you can get 3, ","using only 6, you can get 3,","using only 6, you can get 3 and 9, but no other single digit results","using only 6, you can get 3  and 9, but no other single digit results","using only 6, you can get 3 ( and 9, but no other single digit results","using only 6, you can get 3 (6 and 9, but no other single digit results","using only 6, you can get 3 (6  and 9, but no other single digit results","using only 6, you can get 3 (6 + and 9, but no other single d igit res ults","using only 6, you can get 3 (6 +9 and 9, but no other single digit results","using only 6, you can get 3 (6 +9  and 9, but no other single digit results","using only 6, you can get 3 (6 +9 6 and 9, but no other single digit results","using only 6, you can get 3 (6 +9 6  and 9, but no other single digit results","using only 6, you can get 3 (6 +9 6 = and 9, but no other single digit results","using only 6, you can get 3 (6 +9 6 =  and 9, but no other single digit results","using only 6, you can get 3 (6 +9 6 = 3 and 9, but no other single digit results","using only 6, you can get 3 (6 +9 6 = 3) and 9, but no other single digit results","using only 6, you can get 3 (6 +9 6 = 3) and 9 , but no other single digit results","using only 6, you can get 3 (6 +9 6 = 3) and 9 (, but no other single digit results","using only 6, you can get 3 (6 +9 6 = 3) and 9 (6, but no other single digit results","using only 6, you can get 3 (6 +9 6 = 3) and 9 (6 , but no other single digit re sults"," using only 6, you can get 3 (6 +9 6 = 3) and 9 (6 +, but no other single digit results","using only 6, you can get 3 (6 +9 6 = 3) and 9 (6 +9, but no other single digit results","using only 6, you can get 3 (6 +9 6 = 3) and 9 (6 +9 , but no other single digit results","using only 6, you can get 3 (6 +9 6 = 3) and 9 (6 +9 6, but no other single digit results","using only 6, you can get 3 (6 +9 6 = 3) and 9 (6 +9 6 , but no other single digit results","using only 6, you can get 3 (6 +9 6 = 3) and 9 (6 +9 6 +, but no other single digit results","using only 6, you can get 3 (6 +9 6 = 3) and 9 (6 +9 6 +9, but no other single digit results","using only 6, you can get 3 (6 +9 6 = 3) and 9 (6 +9 6 +9 , but no other single digit results","using only 6, you can get 3 (6 +9 6 = 3) and 9 (6 +9 6 +9 6, but no other single digit results","using only 6, you can get 3 (6 +9 6 = 3) and 9 (6 +9 6 +9 6 , but no other single digit results","using only 6, you can get 3 (6 +9 6 = 3) and 9 (6 +9 6  +9 6 =,  but no other single digit results","using only 6, you can get 3 (6 +9 6 = 3) and 9 (6 +9 6 +9 6 = , but no other single digit results","using only 6, you can get 3 (6 +9 6 = 3) and 9 (6 +9 6 +9 6 = 0, but no other single digit results","using only 6, you can get 3 (6 +9 6 = 3) and 9 (6 +9 6 +9 6 = 0), but no other single digit results","using only 6, you can get 3 (6 +9 6 = 3) and  (6 +9 6 +9 6 = 0), but no other single digit results","using only 6, you can get 3 (6 +9 6 = 3) and 0 (6 +9 6 +9 6 = 0), but no other single digit results","using only 6, you can get 3 (6 +9 6 = 3) and , but no other single digit results","using only 6, you can get 03 (6 +9 6 = 3) and , but no other single digit results","using only 6, you can get 0 3 (6 +9 6 = 3) and , but no other single digit results","using only 6, you can get 0 (3 (6 +9 6 = 3) and , but no other single digit results","using only 6, you can get 0 (0 (6 +9 6 +9 6 = 0)3 (6 +9 6 = 3) and , but no other single digit results","usi ng only  6, you can get 0 (0 (6 +9 6 +9 6 = 0))3 (6 +9 6 = 3) and , but no other single digit results","using only 6, you can get 0 (0 (6 +9 6 +9 6 = 0)3 (6 +9 6 = 3) and , but no other single digit results","using only 6, you can get 0 (0 (6 +9 6 +9 6 = 03 (6 +9 6 = 3) and , but no other single digit results","using only 6, you can get 0 (0 (6 +9 6 +9 6 = 0,3 (6 +9 6 = 3) and , but no other single digit results","using only 6, you can get 0 (0 (6 +9 6 +9 6 = 03 (6 +9 6 = 3) and , but no other single digit results","using only 6, you can get 0 (0 (6 +9 6 +9 6 = 0)3 (6 +9 6 = 3) and , but no other single digit results","using only 6, you can get 0 (0 (6 +9 6 +9 6 = 0),3 (6 +9 6 = 3) and , but no other single digit results","using only 6, you can get 0 (0 (6 +9 6 +9 6 = 0), 3 (6 +9 6 = 3) and , but no other single digit results","using only 6, you can get 0 (0(6 +9 6 +9 6 = 0), 3 (6 +9 6 = 3) and , but no other single digit results","using only 6, you can get 0 ((6 +9 6 +9 6 = 0), 3 (6  +9 6 =  3) and , but no other single digit results","using only 6, you can get 0 (6 +9 6 +9 6 = 0), 3 (6 +9 6 = 3) and , but no other single digit results","using only 6, you can get 0(6 +9 6 +9 6 = 0), 3 (6 +9 6 = 3) and , but no other single digit results","using only 6, you can get 0 (6 +9 6 +9 6 = 0), 3 (6 +9 6 = 3) and , but no other single digit results","using only 6, you can get 0 (6 +9 6 +9 6 = 0), 3 (6 +9 6 = 3) and 6 +9 6 +9 6 = 0, but no other single digit results","using only 6, you can get 0 (6 +9 6 +9 6 = 0), 3 (6 +9 6 = 3) and (6 +9 6 +9 6 = 0, but no other single digit results","using only 6, you can get 0 (6 +9 6 +9 6 = 0), 3 (6 +9 6 = 3) and (6 +9 6 +9 6  = 0, but no other single digit results","using only 6, you can get 0 (6 +9 6 +9 6 = 0), 3 (6 +9 6 = 3) and (6 +9 6 +9 6 + = 0, but no other single digit results","using only 6, you can get 0 (6 +9 6 +9 6 = 0), 3 (6 +9 6 = 3) and (6 +9 6 +9 6 +9 = 0, but no other single digit results","using only 6, you can get 0  (6 +9 6  +9 6 = 0), 3 (6 +9 6 = 3) and (6 +9 6 +9 6 +9  = 0, but no other single digit results","using only 6, you can get 0 (6 +9 6 +9 6 = 0), 3 (6 +9 6 = 3) and (6 +9 6 +9 6 +9 6 = 0, but no other single digit results","using only 6, you can get 0 (6 +9 6 +9 6 = 0), 3 (6 +9 6 = 3) and (6 +9 6 +9 6 +9 6 = , but no other single digit results","using only 6, you can get 0 (6 +9 6 +9 6 = 0), 3 (6 +9 6 = 3) and (6 +9 6 +9 6 +9 6 = 6, but no other single digit results","using only 6, you can get 0 (6 +9 6 +9 6 = 0), 3 (6 +9 6 = 3) and (6 +9 6 +9 6 +9 6 = 6), but no other single digit results","using only 6, you can get 0 (6 +9 6 +9 6 = 0), 3 (6 +9 6 = 3) and 6(6 +9 6 +9 6 +9 6 = 6), but no other single digit results","using only 6, you can get 0 (6 +9 6 +9 6 = 0), 3 (6 +9 6 = 3) and 6 (6 +9 6 +9 6 +9 6 = 6), but no other single digit results","using only 6, you can get 0 (6 +9 6 +9 6 = 0), 3 (6 +9 6 = 3) and 6(6 +9 6 +9 6 +9 6 = 6), but no other single digit results","using only 6, you c an get 0  (6 +9 6 +9 6 = 0), 3 (6 +9 6 = 3) and 6 (6 +9 6 +9 6 +9 6 = 6), but no other single digit results, because at that point it starts repeating ","using only 6, you can get 0 (6 +9 6 +9 6 = 0), 3 (6 +9 6 = 3) and 6 (6 +9 6 +9 6 +9 6 = 6), but no other single digit results, because at that point it starts repeating. 6 is i","using only 6, you can get 0 (6 +9 6 +9 6 = 0), 3 (6 +9 6 = 3) and 6 (6 +9 6 +9 6 +9 6 = 6), but no other single digit results, because at that point it starts repeating. 6 is not a generator)","using only 6, you can get 0 (6 +9 6 +9 6 = 0), 3 (6 +9 6 = 3) and 6 (6 +9 6 +9 6 +9 6 = 6), but no other single digit results, because at that point it starts repeating. 6 is not a generator."],"rt":221069,"trial_type":"question","trial_index":0,"trial_index_global":63,"time_elapsed":1148368,"internal_chunk_id":"0-0.13-0"},{"instructions":"Now we'd like to ask you some questions about +<sub>n</sub>, where n could be any postive counting number. For example, n could b e 3, or  n could be any other counting number you can think of. If you need to write the operation, you can use \"+_n\", and your answers can include n to stand in for the arbitrary value if necessary.","rt":13125,"trial_type":"instructions","trial_index":0,"trial_index_global":64,"time_elapsed":1161503,"internal_chunk_id":"0-0"},{"question":"What is the formula for the inverse of 1 under +<sub>n</sub>?","response_type":"free","response_choices":[],"correct_response":"n-1","response":"(Man, I suck at algebra!)","response_history":["1 +n N","1 +n n = 0","(Man, I suck at algebra!)"],"rt":93624,"trial_type":"question","trial_index":0,"trial_index_global":65,"time_elapsed":1255136,"internal_chunk_id":"0-0.15-0"},{"question":"What is the formula for the inverse of an element x under +<sub>n</sub>? Please explain in words how you got your answer.","response_type":"free","response_choices":[],"correct_response":"n-x","response":"(Woops, hit enter on the previous... formula for the inverse  of 1 un der +n would be ... 1 +_n N = N)                                               THIS QUESTION: X +_n N = N","response_history":["(Woops, hit enter on the pvri","(Woops, hit enter on the pvr","(Woops, hit enter on the pv","(Woops, hit enter on the previous... formula for i","(Woops, hit enter on the previous... formula for the inverse unde ","(Woops, hit enter on the previous... formula for the inverse under +n... ","(Woops, hit enter on the previous... formula for the inverse un","(Woops, hit enter on the previous... formula for the inverse u","(Woops, hit enter on the previous... formula for the inverse of 1 under +n woudl","(Woops, hit enter on the previous... formula for the inverse of 1 under +n woud","(Woops, hit enter on the previous... formula for the inverse of 1 under +n would be da","(Woops, hit enter on the previous... formula for the inverse of 1 under +n would be d","(Woops, hit enter on the previous... formula for the inverse of 1 under +n would be ... damn, I c an say i t in o","(Woops, hit enter on the previous... formula for the inverse of 1 under +n would be ... damn, I can say it in words. The inverse of 1 under +n is","(Woops, hit enter on the previous... formula for the inverse of 1 under +n would be ... dam","(Woops, hit enter on the previous... formula for the inverse of 1 under +n would be ... da","(Woops, hit enter on the previous... formula for the inverse of 1 under +n would be ... d","(Woops, hit enter on the previous... formula for the inverse of 1 under +n would be ... 1 +n ","(Woops, hit enter on the previous... formula for the inverse of 1 under +n would be ... 1 +n N","(Woops, hit enter on the previous... formula for the inverse of 1 under +n would be ... 1 +n ","(Woops, hit enter on the previous... formula for the inverse of 1 under +n would be ... 1 +n","(Woops, hit enter on the previous... formula for the inverse of 1 under +n would be ... 1 +_n N = 0)                                                    s","(Woops, hit e nter on  the previous... formula for the inverse of 1 under +n would be ... 1 +_n N = 0)                                                    THIS QUESTION: X +_n N = ","(Woops, hit enter on the previous... formula for the inverse of 1 under +n would be ... 1 +_n N =0)                                                    THIS QUESTION: X +_n N = ","(Woops, hit enter on the previous... formula for the inverse of 1 under +n would be ... 1 +_n N = 0)                                                    THIS QUESTION: X +_n N = ","(Woops, hit enter on the previous... formula for the inverse of 1 under +n would be ... 1 +_n N                                           THIS QUESTION: X +_n N = ","(Woops, hit enter on the previous... formula for the inverse of 1 under +n would be ... 1 +_n N = 0)                                                    THIS QUESTION: X +_n N = ","(Woops, hit enter on the previous... formula for the inverse of 1 under +n would be ... 1 +_n N = 0)                                                     THIS QUESTION: X +_n N = ","(Woops, hit enter on the previous... formula for the inverse of 1 under +n would be ... 1 +_n N = 0)                                              THIS QUESTION: X +_n N = ","(Woops, hit enter on the previous... formula for the inverse of 1 under +n would be ... 1 +_n N = 0)                                   THIS QUESTION: X +_n N = ","(Woops, hit enter on the previous... formula for the inverse of 1 under +n would be ... 1 +_n N = )                                   THIS QUESTION: X +_n N = ","(Woops, hit enter on the previous... formula for the inverse of 1 under +n would be ... 1 +_n N = N)                                   THIS QUESTION: X +_n N = ","(Woops, hit enter on the previous... formula for the inverse of 1 under +n would be ... 1 +_n N = N-)                                   THIS QUESTION: X +_n N = ","(Woops, hit enter on the previous... formula for the inverse of 1 under +n would be ... 1 +_n N = N-N)                                     THIS QUESTION: X +_n N = ","(Woops, hit enter on the previous... formula for the inverse of 1 under +n would be ... 1 +_n N = N-N=)                                   THIS QUESTION: X +_n N = ","(Woops, hit enter on the previous... formula for the inverse of 1 under +n would be ... 1 +_n N = N-N=0)                                   THIS QUESTION: X +_n N = ","(Woops, hit enter on the previous... formula for the inverse of 1 under +n would be ... 1 +_n N = N-N=0)                                    THIS QUESTION: X +_n N = ","(Woops, hit enter on the previous... formula for the inverse of 1 under +n would be ... 1 +_n N = N-N=0)                                     THIS QUESTION: X +_n N = ","(Woops, hit enter on the previous... formula for the inverse of 1 under +n would be ... 1 +_n N = N-N=0)                                      THIS QUESTION: X +_n N = ","(Woops, hit enter on the previous... formula for the inverse of 1 under +n would be ... 1 +_n N = N-N=0)                                         THIS QUESTION: X +_n N = ","(Woops, hit enter on the previous... formula for the inverse of 1 under +n would be ... 1 +_n N = N-N=0)                                        THIS QUESTION: X +_n N = ","(Woops, hit enter on the previous... formula for the inverse of 1 under +n would be ... 1 +_n N = N-N=0)                                         THIS QUESTION: X +_n N = ","(Woops, hit enter on the previous... formula for the inverse of 1 under +n would be ... 1 +_n N = N-N=0)                                          THIS QUESTION: X +_n N = ","(Woops, hit enter on the previous... formula for the inverse of 1 under +n would be ... 1 +_n N = N-N=0)                                           THIS QUESTION: X +_n N = N-9","(Woops, hit enter on the previous... formula for the inverse of 1 under +n would be ... 1 +_n N = N-N=0)                                           THIS QUESTION: X +_n N = N-N=0","(Woops, hit enter on the previous... formula for the inver se of 1  under +n would be ... 1 +_n N = N)                                           THIS QUESTION: X +_n N = N-N=0","(Woops, hit enter on the previous... formula for the inverse of 1 under +n would be ... 1 +_n N = N)                                           THIS QUESTION: X +_n N = N","(Woops, hit enter on the previous... formula for the inverse of 1 under +n would be ... 1 +_n N = N)                                            THIS QUESTION: X +_n N = N","(Woops, hit enter on the previous... formula for the inverse of 1 under +n would be ... 1 +_n N = N)                                             THIS QUESTION: X +_n N = N","(Woops, hit enter on the previous... formula for the inverse of 1 under +n would be ... 1 +_n N = N)                                              THIS QUESTION: X +_n N = N","(Woops, hit enter on the previous... formula for the inverse of 1 under +n would be ... 1 +_n N = N)                                               THIS QUESTION: X +_n N = N"],"rt":332399,"trial_type":"question","trial_index":0,"trial_index_global":66,"time_elapsed":1587543,"internal_chunk_id":"0-0.15-0"},{"question":"Is there a pattern to which elements are generators? How can you know if an element x is a generator under +<sub>n</sub> without seeing whether it can make all the elements?.","response_type":"free","response_choices":[],"correct_response":"","response":"Well... 1 is always going to be a generator, no matter what +n is. 2 can't be a generator no matter what, because no matter what n is, there's no way to make all the elements using just 2.... okay, I've been playing with this one for several minutes now and I can't identify enough of a pattern to make a statement like that. I wouldn't be surprised if there is one, but have I mentioned I suck at algebra?","response_history":["I'm sure there is one, bu","I'm ","I'm","I'","I wouldn't be surprised to find out that there is one, but I've been playing wth this","I wouldn't be surprised to find out that the re is on e, but I've been playing wit that ","I wouldn't be surprised to find out that there is one, but I've been playing wit that","I wouldn't be surprised to find out that there is one, but I've been playing wit tha","I wouldn't be surprised to find out that there is one, but I've been playing wit th","I wouldn't be surprised to find out that there is one, but I've been playing wit t","I wouldn't be surprised to find out that there is one, but I've been playing wit ","I wouldn't be surprised to find out that there is one, but I've been playing with that concept for several minutes and I can't see enough of a pattern across different +n systems to say for sure. I t","I wouldn't be surprised to find out that there is one, but I've been playing with that concept for several minutes and I can't see enough of a pattern across different +n systems to say for sure. I did mention I suck at algebra, right?","Well... 1 is always going to be a generator, no matter what +n is. 2 can ","Well.. . 1 is a lways going to be a generator, no matter what +n is. 2 can't be a generator no mater what, ","Well... 1 is always going to be a generator, no matter what +n is. 2 can't be a generator no mater what,","Well... 1 is always going to be a generator, no matter what +n is. 2 can't be a generator no mater what","Well... 1 is always going to be a generator, no matter what +n is. 2 can't be a generator no mater wha","Well... 1 is always going to be a generator, no matter what +n is. 2 can't be a generator no mater wh","Well... 1 is always going to be a generator, no matter what +n is. 2 can't be a generator no mater w","Well... 1 is always going to be a generator, no matter what +n is. 2 can't be a generator no mater ","Well... 1 is always going to be a generator, no matter what +n is. 2 can't be a generator no mater","Well... 1 is always going to be a generator, no matter what +n is. 2 can't be a generator no mate","Well... 1 is always going to be a generator, no matter what +n is.  2 can't  be a generator no matter what, because no matter what n is, there's no wa ","Well... 1 is always going to be a generator, no matter what +n is. 2 can't be a generator no matter what, because no matter what n is, there's no way to make all the num","Well... 1 is always going to be a generator, no matter what +n is. 2 can't be a generator no matter what, because no matter what n is, there's no way to make all the nu","Well... 1 is always going to be a generator, no matter what +n is. 2 can't be a generator no matter what, because no matter what n is, there's no way to make all the nel","Well... 1 is always going to be a generator, no matter what +n is. 2 can't be a generator no matter what, because no matter what n is, there's no way to make all the ne","Well... 1 is always going to be a generator, no matter what +n is. 2 can't be a generator no matter what, because no matter what n is, there's no way to make all the n","Well... 1 is always going to be a generator, no matter w hat +n i s. 2 can't be a generator no matter what, because no matter what n is, there's no way to make all the elements using just 2. I've ","Well... 1 is always going to be a generator, no matter what +n is. 2 can't be a generator no matter what, because no matter what n is, there's no way to make all the elements using just 2. I've","Well... 1 is always going to be a generator, no matter what +n is. 2 can't be a generator no matter what, because no matter what n is, there's no way to make all the elements using just 2. I'v","Well... 1 is always going to be a generator, no matter what +n is. 2 can't be a generator no matter what, because no matter what n is, there's no way to make all the elements using just 2. I'","Well... 1 is always going to be a generator, no matter what +n is. 2 can't be a generator no matter what, because no matter what n is, there's no way to make all the elements using just 2. I","Well... 1 is always going to be a generator, no matter what +n is. 2 can't be  a genera tor no matter what, because no matter what n is, there's no way to make all the elements using just 2. 3, ","Well... 1 is always going to be a generator, no matter what +n is. 2 can't be a generator no matter what, because no matter what n is, there's no way to make all the elements using just 2. 3,","Well... 1 is always going to be a generator, no matter what +n is. 2 can't be a generator no matter what, because no matter what n is, there's no way to make all the elements using just 2. 3","Well... 1 is always going to be a generator, no matter what +n is. 2 can't be a generator no matter what, because no matter what n is, there's no way to make all the elements using just 2. ","Well... 1 is always going to be a generator, no matter what +n is. 2 can't be a generator no matter what, because no matter what n is, there's no way to make all the elements using just 2.","Well... 1 is always going to be a generator, no matter what +n is. 2 can't be a generator no matter what, beca use no m atter what n is, there's no way to make all the elements using just 2","Well... 1 is always going to be a generator, no matter what +n is. 2 can't be a generator no matter what, because no matter what n is, there's no way to make all the elements using just 2, so m","Well... 1 is always going to be a generator, no matter what +n is. 2 can't be a generator no matter what, because no matter what n is, there's no way to make all the elements using just 2, so ","Well... 1 is always going to be a generator, no matter what +n is. 2 can't be a generator no matter what, because no matter what n is, there's no way to make all the elements using just 2, some n's will make only ods","Well... 1 is always going to be a generator, no matter what +n is. 2 can't be a generator no matter what, because no matter what n is, there's no way to make all the elements using just 2, some n's will make only od","Well... 1 is always going to be a generator, no matter what +n is. 2 can't be a generator  no matt er what, because no matter what n is, there's no way to make all the elements using just 2, some n's will make only o","Well... 1 is always going to be a generator, no matter what +n is. 2 can't be a generator no matter what, because no matter what n is, there's no way to make all the elements using just 2, some n's will make only evens, som","Well... 1 is always going to be a generator, no matter what +n is. 2 can't be a generator no matter what, because no matter what n is, there's no way to make all the elements using just 2, s","Well... 1 is always going to be a generator, no matter what +n is. 2 can't be a generator no matter what, because no matter what n is, there's no way to make all the elements using just 2, ","Well... 1 is always going to be a generator, no matter what +n is. 2 can't be a generator no matter what, because no matter what n is, there's no way to make all the elements using just 2,","Well... 1 is always going to be a generator, no matter what +n is.  2 can't  be a generator no matter what, because no matter what n is, there's no way to make all the elements using just 2.... okay, I've been playing with this one for several minte","Well... 1 is always going to be a generator, no matter what +n is. 2 can't be a generator no matter what, because no matter what n is, there's no way to make all the elements using just 2.... okay, I've been playing with this one for several mint","Well... 1 is always going to be a generator, no matter what +n is. 2 can't be a generator no matter what, because no matter what n is, there's no way to make all the elements using just 2.... okay, I've been playing with this one for several minutes now and I can't identify a","Well... 1 is always going to be a generator, no matter what +n is. 2 can't be a generator no matter what, because no matter what n is, there's no way to make all the elements using just 2.... okay, I've been playing with this one for several minutes now and I can't identify enoughh o","Well...  1 is always going to be a generator, no matter what +n is. 2 can't be a generator no matter what, because no matter what n is, there's no way to make all the elements using just 2.... okay, I've been playing with this one for several minutes now and I can't identify enoughh ","Well... 1 is always going to be a generator, no matter what +n is. 2 can't be a generator no matter what, because no matter what n is, there's no way to make all the elements using just 2.... okay, I've been playing with this one for several minutes now and I can't identify enoughh","Well... 1 is always going to be a generator, no matter what +n is. 2 can't be a generator no matter what, because no matter what n is, there's no way to make all the elements using just 2.... okay, I've been playing with this one for several minutes now and I can't identify enough of a pattern to make a statement like that. I wouldnt' be suprr","Well... 1 is always going to be a generator, no matter what +n is. 2 can't be  a gener ator no matter what, because no matter what n is, there's no way to make all the elements using just 2.... okay, I've been playing with this one for several minutes now and I can't identify enough of a pattern to make a statement like that. I wouldnt' be supr","Well... 1 is always going to be a generator, no matter what +n is. 2 can't be a generator no matter what, because no matter what n is, there's no way to make all the elements using just 2.... okay, I've been playing with this one for several minutes now and I can't identify enough of a pattern to make a statement like that. I wouldnt' be sup","Well... 1 is always going to be a generator, no matter what +n is. 2 can't be a generator no matter what, because no matter what n is, there's no way to make all the elements using just 2.... okay, I've been playing with this one for several minutes now and I can't identify enough of a pattern to make a statement like that. I wouldnt' be surprised if there is one, but have i men t","Well ... 1 is always going to be a generator, no matter what +n is. 2 can't be a generator no matter what, because no matter what n is, there's no way to make all the elements using just 2.... okay, I've been playing with this one for several minutes now and I can't identify enough of a pattern to make a statement like that. I wouldnt' be surprised if there is one, but have i men","Well... 1 is always going to be a generator, no matter what +n is. 2 can't be a generator no matter what, because no matter what n is, there's no way to make all the elements using just 2.... okay, I've been playing with this one for several minutes now and I can't identify enough of a pattern to make a statement like that. I wouldnt' be surprised if there is one, but have i me","Well... 1 is always going to be a generator, no matter what +n is. 2 can't be a generator no matter what, because no matter what n is, there's no way to make all the elements using just 2.... okay, I've been playing with this  one for  several minutes now and I can't identify enough of a pattern to make a statement like that. I wouldnt' be surprised if there is one, but have i m","Well... 1 is always going to be a generator, no matter what +n is. 2 can't be a generator no matter what, because no matter what n is, there's no way to make all the elements using just 2.... okay, I've been playing with this one for several minutes now and I can't identify enough of a pattern to make a statement like that. I wouldnt' be surprised if there is one, but have i ","Well... 1 is always going to be a generator, no matter what +n is. 2 can't be a generator no matter what, because no matter what n is, there's no way to make all the elements using just 2.... okay, I've been playing with this one for several minutes now and I can't identify enough of a pattern to make a statement like that. I wouldnt' be surprised if there is one, but have i","Well... 1 is always going to be a generator, no matter what +n is. 2 can't be a  generato r no matter what, because no matter what n is, there's no way to make all the elements using just 2.... okay, I've been playing with this one for several minutes now and I can't identify enough of a pattern to make a statement like that. I wouldnt' be surprised if there is one, but have I mentioned I suck at all","Well... 1 is always going to be a generator, no matter what +n is. 2 can't be a generator no matter what, because no matter what n is, there's no way to make all the elements using just 2.... okay, I've been playing with this one for several minutes now and I can't identify enough of a pattern to make a statement like that. I wouldnt' be surprised if there is one, but have I mentioned I suck at algebra?","Well... 1 is always going to be a generator, no matter what +n is. 2 can't be a generator no matter what, because no matter what n is, there's no way to make all the elements using just 2.... okay, I've been playing with this one for several minutes now and I can' t identi fy enough of a pattern to make a statement like that. I wouldnt be surprised if there is one, but have I mentioned I suck at algebra?","Well... 1 is always going to be a generator, no matter what +n is. 2 can't be a generator no matter what, because no matter what n is, there's no way to make all the elements using just 2.... okay, I've been playing with this one for several minutes now and I can't identify enough of a pattern to make a statement like that. I wouldn be surprised if there is one, but have I mentioned I suck at algebra?","Well... 1 is always going to be a generator, no matter what +n is. 2 can't be a generator no matter what, because no matter what n is, there's no way to make all the elements using just 2.... okay, I've been playing with this one for several minutes now and I can't identify enough of a pattern to make a statement like that. I wouldn' be surprised if there is one, but have I mentioned I suck at algebra?","Well... 1 is always going to be a gene rator, n o matter what +n is. 2 can't be a generator no matter what, because no matter what n is, there's no way to make all the elements using just 2.... okay, I've been playing with this one for several minutes now and I can't identify enough of a pattern to make a statement like that. I wouldn't be surprised if there is one, but have I mentioned I suck at algebra?"],"rt":388279,"trial_type":"question","trial_index":0,"trial_index_global":67,"time_elapsed":1975840,"internal_chunk_id":"0-0.15-0"},{"question":"True or false: If x is an odd number, it must be a generator under +<sub>n</sub>.","response_type":"multi","response_choices":["True","False"],"correct_response":"False","response":"False","response_history":["False"],"rt":85187,"trial_type":"question","trial_index":0,"trial_index_global":68,"time_elapsed":2061045,"internal_chunk_id":"0-0.15-0"},{"question":"True or false: If x is an even number, it must not be a generator under +<sub>n</sub>.","response_type":"multi","response_choices":["True","False"],"correct_response":"False","response":"False","response_history":["True","False"],"rt":67714,"trial_type":"question","trial_index":0,"trial_index_global":69,"time_elapsed":2128770,"internal_chunk_id":"0-0.15-0"},{"question":"True or false: If x is not a generator under +<sub>n</sub>, x must divide n.","response_type":"multi","response_choices":["True","False"],"correct_response":"False","response":"False","response_history":["False"],"rt":71007,"trial_type":"question","trial_index":0,"trial_index_global":70,"time_elapsed":2199787,"internal_chunk_id":"0-0.15-0"},{"question":"True or false: If x is not a generator under +<sub>n</sub>, x must be a multiple of a divisor of n. Please explain in words why your answer is corret.","response_type":"free","response_choices":[],"correct_response":"True","response":"(I freely admit that you've lost me. I'm trying, I really am, but SO NOT an algebra person here.) This one at least seems to make sense... if x is a multi ple of a  divisor of n, it can't be a generator, because it's just going to start looping as you repeat the operation in sequence.","response_history":["(I re","(I r","(I freely at","(I freely am","(I freely admit that you've lost me,","(I freely admit that you've lost me. I'm trying, I really am, but N","(I freely admit that you've lost me. I'm trying, I really am, but SO NOT A ","(I freely admit that you've lost me. I'm trying, I really am, but SO NOT A","(I freely admit that you've lost me. I'm trying, I really am, but SO NOT a ","(I freely admit that you've lost me. I'm trying, I really am, but SO NOT an algebra person here.) This one at least seems to make sense... somethign th","(I freely admit that you've lost me. I'm trying, I really am, but SO NOT an algebra person here.) This one at least seems to make sense... somethign t","(I freely admit that you've lost me. I'm trying, I really am, but SO NOT an algebra person here.) This one at least seems to make sense... somethign ","(I free ly admit that you've lost me. I'm trying, I really am, but SO NOT an algebra person here.) This one at least seems to make sense... somethign","(I freely admit that you've lost me. I'm trying, I really am, but SO NOT an algebra person here.) This one at least seems to make sense... somethign","(I freely admit that you've lost me. I'm trying, I really am, but SO NOT an algebra person here.) This one at least seems to make sense... somethig","(I freely admit that you've lost me. I'm trying, I really am, but SO NOT an algebra person here.) This one at least seems to make sense... something that is a multiple of a divo","(I freely admit that you've lost me. I'm trying, I really am, but SO NOT an algebra person here.) This one at least seems to make sense... something that is a multiple of a d","(I freely admit that you've lost me. I'm trying, I really am, but SO NOT an algebra person here.) This one at least seems to make sense... something th","(I freely admit that you've lost  me. I'm  trying, I really am, but SO NOT an algebra person here.) This one at least seems to make sense... some","(I freely admit that you've lost me. I'm trying, I really am, but SO NOT an algebra person here.) This one at least seems to make sense... som","(I freely admit that you've lost me. I'm trying, I really am, but SO NOT an algebra person here.) This one at least seems to make sense... so","(I freely admit that you've lost me. I'm trying, I really am, but SO NOT an algebra person here.) This one at least seems to make sense... s","(I freely admit that you've lost me. I'm trying, I really am, but SO NOT an algebra person here.) This one at least seems to make sense... if x is a multiple of a divosr ","(I freely admit that you've lost me. I'm trying, I really am, but SO NOT an algebra person here.) This one at least seems to make sense... if x is a multiple of a divosr","(I freely admit that you've lost me. I'm trying, I really am, but SO NOT an algebra person here.) This one  at least  seems to make sense... if x is a multiple of a divos","(I freely admit that you've lost me. I'm trying, I really am, but SO NOT an algebra person here.) This one at least seems to make sense... if x is a multiple of a divo","(I freely admit that you've lost me. I'm trying, I really am, but SO NOT an algebra person here.) This one at least seems to make sense... if x is a multiple of a divisor of n, it can't be a generator, because it's just going to start looping as you repeate the ","(I freely admit that you've lost me. I'm trying, I really am, but SO NOT an algebra person here.) This one at least seems to make sense... if x is a multiple of a divisor of n, it can't be a generator, because it's just going to start looping as you repeate the","(I freely admit that you've lost me. I'm trying, I really am, but SO NOT an algebra person here.) This one at least seems to make sense... if x is a multiple of a divisor of n, it can't be a generator, because it's just going to start  looping  as you repeate th","(I freely admit that you've lost me. I'm trying, I really am, but SO NOT an algebra person here.) This one at least seems to make sense... if x is a multiple of a divisor of n, it can't be a generator, because it's just going to start looping as you repeate t","(I freely admit that you've lost me. I'm trying, I really am, but SO NOT an algebra person here.) This one at least seems to make sense... if x is a multiple of a divisor of n, it can't be a generator, because it's just going to start looping as you repeate ","(I freely admit that you've lost me. I'm trying, I really am, but SO NOT an algebra person here.) This one at least seems to make sense... if x is a multiple of a divisor of n, it can't be a generator, because it's just going to start looping as you repeate","(I freely admit that you've lost me. I'm trying, I really am, but SO NOT an algebra person here.) This one at least seems to make sense... if x is a multiple of a divisor of n, it can't  be a ge nerator, because it's just going to start looping as you repeat the operation in sequence."],"rt":109388,"trial_type":"question","trial_index":0,"trial_index_global":71,"time_elapsed":2309184,"internal_chunk_id":"0-0.15-0"},{"question":"If an element x is a generator under +<sub>n</sub>, is its inverse a generator under +<sub>n</sub> always, sometimes, or never?","response_type":"multi","response_choices":["Always","Sometimes","Never"],"correct_response":"Always","response":"Always","response_history":["Sometimes","Always"],"rt":103446,"trial_type":"question","trial_index":0,"trial_index_global":72,"time_elapsed":2412642,"internal_chunk_id":"0-0.15-0"},{"question":"if an element x is a generator under +<sub>n</sub>, is x +<sub>n</sub> x a generator under +<sub>n</sub> always, sometimes, or never? Please explain in words why your answer is corret.","response_type":"free","response_choices":[],"correct_response":"sometimes","response":"Sometimes... I don't know why across any  +n, but  1 is a generator under +6, but 1 +6 1 is not a generator, because 2 under +6 is not a generator, being only able to produce even results. But... without testing out every possibility, I can conceive circumstances under which x +n x could produce a generator element. I'm just having trouble getting my head around it enough to prove it. :(","response_history":["Never... I don't know why across any +n, but Ic","Never... I don't know why across any +n, but I can thin ","Never... I don't know why across any +n, but I can think of an example right off... 1 is a generator under +6, but 1+61","Never... I don't know why across any +n, but I can think of an example right off... 1 is a generator under +6, but 1+6 1","Never... I don't know why across any +n, but I can think of an example right off... 1 is a generator under +6, but 1 +6 1 = ","Never... I don't know why across any +n, but I can think of an example right off... 1 is a generator under +6, but 1 +6 1 =","Never... I don't kno w why ac ross any +n, but I can think of an example right off... 1 is a generator under +6, but 1 +6 1 is not a generator, be ","Never... I don't know why across any +n, but I can think of an example right off... 1 is a generator under +6, but 1 +6 1 is not a generator, because 2 under plus ","Never... I don't know why across any +n, but I can think of an example right off... 1 is a generator under +6, but 1 +6 1 is not a generator, because 2 under plus","Never... I don't know why across any +n, but I can think of an example right off... 1 is a generator under +6, but 1 +6 1 is not a generator, because 2 under plu","Never... I don't know why across any +n, but I can think of an example right off... 1 is a generator under +6, but 1 +6 1 is not a generator, because 2 under pl","Never... I don't know why across any +n, but I can think of an example right off... 1 is a generator under +6, but 1 +6 1 is not a generator, because 2 under p","Never... I don't know why across any +n, but I ca n think  of an example right off... 1 is a generator under +6, but 1 +6 1 is not a generator, because 2 under +6 is not a generator ","Never... I don't know why across any +n, but I can think of an example right off... 1 is a generator under +6, but 1 +6 1 is not a generator, because 2 under +6 is not a generator, becau","Never... I don't know why across any +n, but I can think of an example right off... 1 is a generator under +6, but 1 +6 1 is not a generator, because 2 under +6 is not a generator, beca","Never... I don't know why across any +n, but I can think of an example right off... 1 is a generator under +6, but 1 +6 1 is not a generator, because 2 under +6 is not a generator, bec","Never... I don't know why across any +n, but I can think of an example right off... 1 is a generator under +6, but 1 +6 1 is not a generator, because 2 under +6 is not a generator, being only able to produce even d","Never... I don't know why across any +n, but I can think of an example right off.. . 1 is a  generator under +6, but 1 +6 1 is not a generator, because 2 under +6 is not a generator, being only able to produce even results.","E... I don't know why across any +n, but I can think of an example right off... 1 is a generator under +6, but 1 +6 1 is not a generator, because 2 under +6 is not a generator, being only able to produce even results.","Ei... I don't know why across any +n, but I can think of an example right off... 1 is a generator under +6, but 1 +6 1 is not a generator, because 2 under +6 is not a generator, being only able to produce even results.","Eit... I don't know why across any +n, but I can think of an example right off... 1 is a generator under +6, but 1 +6 1 is not a generator, because 2 under +6 is not a generator, being only able to produce even results.","Eiteh... I don't know why across any +n, but I can think of an example right off... 1 is a generator under +6, but 1 +6 1 is not a generator, because 2 under +6 is not a generator, being only  able to  produce even results.","Eitehr... I don't know why across any +n, but I can think of an example right off... 1 is a generator under +6, but 1 +6 1 is not a generator, because 2 under +6 is not a generator, being only able to produce even results.","Eitehr ... I don't know why across any +n, but I can think of an example right off... 1 is a generator under +6, but 1 +6 1 is not a generator, because 2 under +6 is not a generator, being only able to produce even results.","Eitehr... I don't know why across any +n, but I can think of an example right off... 1 is a generator under +6, but 1 +6 1 is not a generator, because 2 under +6 is not a generator, being only able to produce even results.","Eiteh... I don't know why across any +n, but I can think of an example right off... 1 is a generator under +6, but 1 +6 1 is not a generator, because 2 under +6 is not a generator, being only able to produce even results.","Eite... I don't know why across any +n, but I can think of an exa mple rig ht off... 1 is a generator under +6, but 1 +6 1 is not a generator, because 2 under +6 is not a generator, being only able to produce even results.","Eit... I don't know why across any +n, but I can think of an example right off... 1 is a generator under +6, but 1 +6 1 is not a generator, because 2 under +6 is not a generator, being only able to produce even results.","Eith... I don't know why across any +n, but I can think of an example right off... 1 is a generator under +6, but 1 +6 1 is not a generator, because 2 under +6 is not a generator, being only able to produce even results.","Either... I don't know why across any +n, but I can think of an example right off... 1 is a generator under +6, but 1 +6 1 is not a generator, because 2 under +6 is not a generator, being only able to produce even results.","Either ... I don't know why across any +n, but I can think of an example right off... 1 is a generator under +6, but 1 +6 1 is not a generator, because 2 under +6 is not  a gener ator, being only able to produce even results.","Either so... I don't know why across any +n, but I can think of an example right off... 1 is a generator under +6, but 1 +6 1 is not a generator, because 2 under +6 is not a generator, being only able to produce even results.","Either som... I don't know why across any +n, but I can think of an example right off... 1 is a generator under +6, but 1 +6 1 is not a generator, because 2 under +6 is not a generator, being only able to produce even results.","Either some... I don't know why across any +n, but I can think of an example right off... 1 is a generator under +6, but 1 +6 1 is not a generator, because 2 under +6 is not a generator, being only able to produce even results.","Either somet... I don't know why across any +n, but I can think of an example right off... 1 is a generator under +6, but 1 +6 1 is not a generator, because 2 under +6 is not a generator, being only able to produce even results.","Either sometime... I d on't kno w why across any +n, but I can think of an example right off... 1 is a generator under +6, but 1 +6 1 is not a generator, because 2 under +6 is not a generator, being only able to produce even results.","Either sometimes... I don't know why across any +n, but I can think of an example right off... 1 is a generator under +6, but 1 +6 1 is not a generator, because 2 under +6 is not a generator, being only able to produce even results.","Either sometimes ... I don't know why across any +n, but I can think of an example right off... 1 is a generator under +6, but 1 +6 1 is not a generator, because 2 under +6 is not a generator, being only able to produce even results.","Either sometimes or... I don't know why across any +n, but I can think of an example right off... 1 is a generator under +6, but 1 +6 1 is not a generator, because 2 under +6 is not a generator, being only able to produce even results.","Either sometimes or ... I don't know why across any +n, but I can think of a n exampl e right off... 1 is a generator under +6, but 1 +6 1 is not a generator, because 2 under +6 is not a generator, being only able to produce even results.","Either sometimes or en... I don't know why across any +n, but I can think of an example right off... 1 is a generator under +6, but 1 +6 1 is not a generator, because 2 under +6 is not a generator, being only able to produce even results.","Either sometimes or env... I don't know why across any +n, but I can think of an example right off... 1 is a generator under +6, but 1 +6 1 is not a generator, because 2 under +6 is not a generator, being only able to produce even results.","Either sometimes or enver... I don't know why across any +n, but I can think of an example right off... 1 is a generator under +6, but 1 +6 1 is not a generator, because 2 under +6 is not a generator, being only able to produce even results.","Either sometimes or enve... I don't know why across any +n, but I can think of an example right off... 1 is  a gener ator under +6, but 1 +6 1 is not a generator, because 2 under +6 is not a generator, being only able to produce even results.","Either sometimes or env... I don't know why across any +n, but I can think of an example right off... 1 is a generator under +6, but 1 +6 1 is not a generator, because 2 under +6 is not a generator, being only able to produce even results.","Either sometimes or en... I don't know why across any +n, but I can think of an example right off... 1 is a generator under +6, but 1 +6 1 is not a generator, because 2 under +6 is not a generator, being only able to produce even results.","Either sometimes or e... I don't know why across any +n, but I can think of an example right off... 1 is a generator under +6, but 1 +6 1 is not a generator, because 2 under +6 is not a generator, being only able to produce even results.","Either sometimes or ... I don't know why across any +n, but I can think of an example right off... 1 is a generator under +6, but 1 +6 1 i s not a  generator, because 2 under +6 is not a generator, being only able to produce even results.","Either sometimes or n... I don't know why across any +n, but I can think of an example right off... 1 is a generator under +6, but 1 +6 1 is not a generator, because 2 under +6 is not a generator, being only able to produce even results.","Either sometimes or ne... I don't know why across any +n, but I can think of an example right off... 1 is a generator under +6, but 1 +6 1 is not a generator, because 2 under +6 is not a generator, being only able to produce even results.","Either sometimes or nev... I don't know why across any +n, but I can think of an example right off... 1 is a generator under +6, but 1 +6 1 is not a generator, because 2 under +6 is not a generator, being only able to produce even results.","Either sometimes or never... I don't know why across any +n, but I can think of an example right off... 1 is a generator under +6, but 1 +6 1 is not a generator, because 2 u nder +6  is not a generator, being only able to produce even results.","Either sometimes or never... I don't know why across any +n, but 1 is a generator under +6, but 1 +6 1 is not a generator, because 2 under +6 is not a generator, being only able to produce even results. Whereas 5","Either sometimes or never... I don't know why across any +n, but 1 is a generator under +6, but 1 +6 1 is not a generator, because 2 under +6 is not a generator, being only able to produce even results. W","Either sometimes or never... I don't know why across any +n, but 1 is a generator under +6, but 1 +6 1 is not a generator, because 2 under +6 is not a generator, being only able to produce even results. ","Never... I don't know why across any +n, but 1 is a generator under +6, but 1 +6 1 is not a generator, because 2 under +6 is not a generator, being only able to produce even results. I don't think a generator can still be a","Never... I don't know why across any +n, but 1 is a generator under +6,  but 1 +6  1 is not a generator, because 2 under +6 is not a generator, being only able to produce even results. I don't think a generator can","Never... I don't know why across any +n, but 1 is a generator under +6, but 1 +6 1 is not a generator, because 2 under +6 is not a generator, being only able to produce even results. I don't think a generator ca","Never... I don't know why across any +n, but 1 is a generator under +6, but 1 +6 1 is not a generator, because 2 under +6 is not a generator, being only able to produce even results. I don't think a generator c","Never... I don't know why across any +n, but 1 is a generator under +6, but 1 +6 1 is not a generator, because 2 under +6 is not a generator, being only able to produce even results. I don't think a generator +n iself","Never... I don't know why across any +n, but 1 is a generator under +6, but 1 +6 1 is not a generator, because 2 under +6 is not a generator, being only able to produce even results. I don't think a generato r +n ise l","Never... I don't know why across any +n, but 1 is a generator under +6, but 1 +6 1 is not a generator, because 2 under +6 is not a generator, being only able to produce even results. I don't think a generator +n ise","Never... I don't know why across any +n, but 1 is a generator under +6, but 1 +6 1 is not a generator, because 2 under +6 is not a generator, being only able to produce even results. I don't think a generator +n is","Never... I don't know why across any +n, but 1 is a generator under +6, but 1 +6 1 is not a generator, because 2 under +6 is not a generator, being only able to produce even results. I don't think a generator +n itself can p","S... I don't know why across any +n, but 1 is a generator under +6, but 1 +6 1 is not a generator, because 2 under +6 is not a generator, being only able to produce even results. I don't think a generator +n itself can p","Som... I don't know why across any +n, but 1 is a generator under +6, but 1 +6 1 is not a generator,  because  2 under +6 is not a generator, being only able to produce even results. I don't think a generator +n itself can p","Somet... I don't know why across any +n, but 1 is a generator under +6, but 1 +6 1 is not a generator, because 2 under +6 is not a generator, being only able to produce even results. I don't think a generator +n itself can p","Sometim... I don't know why across any +n, but 1 is a generator under +6, but 1 +6 1 is not a generator, because 2 under +6 is not a generator, being only able to produce even results. I don't think a generator +n itself can p","Sometime... I don't know why across any +n, but 1 is a generator under +6, but 1 +6 1 is not a generator, because 2 under +6 is not a generator, being only able to produce even results. I don't think a generator +n itself can p","Sometimes... I don't know why across any +n, but 1 is a generator under +6, but 1 +6 1 is not a generator, because 2 under +6 is not a generator, being only able to produce even results.  I don't  think a generator +n itself can p","Sometimes... I don't know why across any +n, but 1 is a generator under +6, but 1 +6 1 is not a generator, because 2 under +6 is not a generator, being only able to produce even results. But... without testing out every possibility, I can conceive circumstances under which x +n X","Sometimes... I don't know why across any +n, but 1 is a generator under +6, but 1 +6 1 is not a generator, because 2 under +6 is not a generator, being only able to produce even results. But... without testing out every possibility, I can conceive circumstances under which x +n x could produce a generator. ","Sometimes... I don't know why across any +n, but 1 is a generator under +6, but 1 +6 1 is not a generator, because 2 under +6 is not a generator, being only able to produce even results. But... without testing out every possibility, I can conceive circumstances under which x +n x could produce a generator.","Sometimes... I don't know why across any +n, but  1 is a  generator under +6, but 1 +6 1 is not a generator, because 2 under +6 is not a generator, being only able to produce even results. But... without testing out every possibility, I can conceive circumstances under which x +n x could produce a generator element. I'm just having trouble getting my head aroudn it","Sometimes... I don't know why across any +n, but 1 is a generator under +6, but 1 +6 1 is not a generator, because 2 under +6 is not a generator, being only able to produce even results. But... without testing out every possibility, I can conceive circumstances under which x +n x could produce a generator element. I'm just having trouble getting my head aroudn i","Sometimes... I don't know why across any +n, but 1 is a generator under +6, but 1 +6 1 is not a generator, because 2 under +6 is not a generator, being only able to produce even results. But... without testing out every possibility, I can conceive circumstances under which x +n x could produce a generator ele ment. I' m just having trouble getting my head aroudn ","Sometimes... I don't know why across any +n, but 1 is a generator under +6, but 1 +6 1 is not a generator, because 2 under +6 is not a generator, being only able to produce even results. But... without testing out every possibility, I can conceive circumstances under which x +n x could produce a generator element. I'm just having trouble getting my head aroudn","Sometimes... I don't know why across any +n, but 1 is a generator under +6, but 1 +6 1 is not a generator, because 2 under +6 is not a generator, being only able to produce even results. But... without testing out every possibility, I can conceive circumstances under which x +n x could produce a generator element. I'm just having trouble getting my head aroud","Sometimes... I don't know why across any +n, but 1 is a generator under +6, but 1 +6 1 is not a generator, because 2 under +6 is not a generator, being only able to produce even results. But... without testing ou t every  possibility, I can conceive circumstances under which x +n x could produce a generator element. I'm just having trouble getting my head aroudn","Sometimes... I don't know why across any +n, but 1 is a generator under +6, but 1 +6 1 is not a generator, because 2 under +6 is not a generator, being only able to produce even results. But... without testing out every possibility, I can conceive circumstances under which x +n x could produce a generator element. I'm just having trouble getting my head aroud","Sometimes... I don't know why across any +n, but 1 is a generator under +6, but 1 +6 1 is not a generator, because 2 under +6 is not a generator, being only able to produce even results. But... without testing out every possibility, I can conceive circumstances under which x +n x could produce a generator element. I'm just having trouble getting my head around it enough to prove it. :("],"rt":545660,"trial_type":"question","trial_index":0,"trial_index_global":73,"time_elapsed":2958318,"internal_chunk_id":"0-0.15-0"},{"question":"If an element x is not a generator under +<sub>n</sub>, is x +<sub>n</sub> x a generator under +<sub>n</sub> always, sometimes, or never?","response_type":"multi","response_choices":["Always","Sometimes","Never"],"correct_response":"Never","response":"Sometimes","response_history":["Never","Sometimes"],"rt":168897,"trial_type":"question","trial_index":0,"trial_index_global":74,"time_elapsed":3127227,"internal_chunk_id":"0-0.15-0"},{"instructions":"We would like to ask you some questions about your background. Please press \"Continue\" to continue.","rt":2164,"trial_type":"instructions","trial_index":0,"trial_index_global":75,"time_elapsed":3129400,"internal_chunk_id":"0-0.16-0"},{"question":"What is your age?","response_type":"free","response_choices":[],"correct_response":"","response":"32","response_history":["32"],"rt":2900,"trial_type":"question","trial_index":0,"trial_index_global":76,"time_elapsed":3132303,"internal_chunk_id":"0-0 .16-0"},{"question":"What is your level of education?","response_type":"multi","response_choices":["Did not graduate high school","High school diploma","Some college, no degree","Associates Degree","Bachelors Degree","Some graduate school, no degree","Masters Degree","Doctorate, M.D., etc."],"correct_response":"","response":"Bachelors Degree","response_history":["Bachelors Degree"],"rt":3654,"trial_type":"question","trial_index":0,"trial_index_global":77,"time_elapsed":3135961,"internal_chunk_id":"0-0.16-0"},{"question":"What is the most advanced math class you've completed? If you have multiple classes and you're not sure which one is most advanced, please list them.","response_type":"free","response_choices":[],"correct_response":"","response":"Saxon Math series Algebra II. High school. Squeaked out a B after the 4th time through.","response_history":["Saxon Math series Algebra II. That was in highschool, ","Saxon Math series Algebra II. That was in highschool,","Saxon Mat h series  Algebra II. That was in highschool","Saxon Math series Algebra II. That was in highschoo","Saxon Math series Algebra II. That was in highscho","Saxon Math series Algebra II. That was in highsch","Saxon Math series Algebra II. That was in highsc","Saxon Math series Algebra II. That was in highs","Saxon Math series Algebra II. That was in high school, I hated it, and my mother p","Saxon Math series Algebra II. That was in high school, I hated it, and my mother made me take it 5","Saxon Math series Algebra II. That was in high school, I hated it, and my mother made me take it 4 times through becaues","Saxon Math series Algebra II. That was in high school, I hated it, and my mother made me take it 4 times through becaue","Saxon Math series Algebra II. That was in high school, I hated it, and my mother made me take it 4 times through because my initial C wasn't good enough. So I basically ","Saxon Math series Algebra II. That was in high school, I d it, and my mother made me tak e it 4 t imes through because my initial C wasn't good enough. So I basically ","Saxon Math series Algebra II. That was in high school, I did it, and my mother made me take it 4 times through because my initial C wasn't good enough. So I basically ","Saxon Math series Algebra II. That was in high school, I didn it, and my mother made me take it 4 times through because my initial C wasn't good enough. So I basically ","Saxon Math series Algebra II. That was in high school, I didn't it, and my mother made me take it 4 times through because my initial C wasn't good enough. So I basically ","Saxon Math series Algebra II. That was in high school, I didn't  it, and my mother made me take it 4 times through because my initial C wasn't good enough. So I basically ","Saxon Math series Algebra II. That was in high school, I didn't do it, and my mother made me take it 4 times through because my initial C wasn't good enough. So I basically ","Saxon Math series Algebra II. That was in high school , I didn 't do  it, and my mother made me take it 4 times through because my initial C wasn't good enough. So I basically ","Saxon Math series Algebra II. That was in high school, I didn't do w it, and my mother made me take it 4 times through because my initial C wasn't good enough. So I basically ","Saxon Math series Algebra II. That was in high school, I didn't do wi it, and my mother made me take it 4 times through because my initial C wasn't good enough. So I basically ","Saxon Math series Algebra II. That was in high school, I didn't do wie it, and my mother made me take it 4 times through because my initial C wasn't good enough. So I basically ","Saxon Math series Algebra II. That was in high school, I didn't do wi it, and my mother made me take it 4 times through because my initial C wasn't good enough. So I basically ","Saxon Math series Algebra II. That was in high school, I didn't do w it, and my mother made me take it 4 times through because my initial C wasn't good enoug h. So I  basically ","Saxon Math series Algebra II. That was in high school, I didn't do we it, and my mother made me take it 4 times through because my initial C wasn't good enough. So I basically ","Saxon Math series Algebra II. That was in high school, I didn't do wel it, and my mother made me take it 4 times through because my initial C wasn't good enough. So I basically ","Saxon Math series Algebra II. That was in high school, I didn't do well it, and my mother made me take it 4 times through because my initial C wasn't good enough. So I basically ","Saxon Math series Algebra II. That was in high school, I didn't do well  it, and my mother made me take it 4 times through because my initial C wasn't good enough. So I basically ","Saxon Math series Algebra II. That was in high school, I didn't do well at it, and my mother made me take it 4 times through because my initial C wasn't good enough. So I basically hate algebra with a fiery passion. I tried, I seriously did try, but y'al l lost m e.","Saxon Math series Algebra II. That was in high school, I didn't do well at it, and my mother made me take it 4 times through because my initial C wasn't good enough. So I basically hate algebra with a fiery passion. I tried, I seriously did try, but y'all lost me, and I'm very much remembering why I hate algebra ","Saxon Math series Algebra II. That was in high school, I didn't do well at it, and my mother made me take it 4 times through because my initial C wasn't good enough. So I basically hate algebra with a fiery passion. I tried, I seriously did try, but y'all lost me, and I'm very much remembering why I hate algebra, ate","Saxon Math series Algebra II. That was in high school, I didn't do well at it, and my mother made me take it 4 times through because my initial C wasn't good enough. So I basically hate algebra with a fiery passion. I tried, I seriously did try, but y'all lost me, and I'm very much remembering why I hate algebra, at","Saxon Math series Algebra  II. That  was in high school, I didn't do well at it, and my mother made me take it 4 times through because my initial C wasn't good enough. S