[{"nsides":6,"instructions":"Let's define a new operation <img src=\"./images/hexagon_symbol.png\" style=\"width:14px;height:14px\">. This operation will give us a way of combining two of the numbers 0, 1, 2, 3, 4, 5 to get another one of them back. Consider the hexagon at the right, where I've labeled each point with one of the numbers. To perform <img src=\"./images/hexagon_symbol.png\" style=\"width:14px;height:14px\">, you can use the interactive diagram on the right, or perform the operation in your mind. or perform the operation in your mind. Point the arrow at the first number on the hexagon, then move the arrow the second number of points clockwise around the hexagon. The number the arrow arrives at is your result. (The operation is called <img src=\"./images/hexagon_symbol.png\" style=\"width:14px;height:14px\"> because it uses the hexagon, which has 6 sides.) <br /><br />For example, 3 <img src=\"./images/hexagon_symbol.png\" style=\"width:14px;height:14px\"> 5 = 2,  because  5 steps clockwise from 3 on the hexagon brings us to 2. So 3 <img src=\"./images/hexagon_symbol.png\" style=\"width:14px;height:14px\"> 5 = 2.<br /><br />Similarly, 1 <img src=\"./images/hexagon_symbol.png\" style=\"width:14px;height:14px\"> 4 = 5, because 4 steps clockwise from 1 brings us to 5. <br /><br />Click \"Continue\" when you are ready to move on.","orientation_history":[0],"rt":79866,"trial_type":"polygon-arrow-instructions","trial_index":0,"trial_index_global":1,"time_elapsed":94219,"internal_chunk_id":"0-0"},{"nsides":6,"question":"Now try one on your own! What is 4 <img src=\"./images/hexagon_symbol.png\" style=\"width:14px;height:14px\"> 5? <br /><br /> (Remember, to perform <img src=\"./images/hexagon_symbol.png\" style=\"width:14px;height:14px\">, you can use the interactive diagram on the right, or perform the operation in your mind. Point the arrow at the first number on the hexagon, then move the arrow the second number of points clockwise around the hex agon. Th e number the arrow arrives at is your result.)","response_type":"free","response_choices":[],"correct_response":"3","response":"3","orientation_history":[[0]],"response_history":["3"],"rt":12169,"trial_type":"polygon-arrow-question","trial_index":0,"trial_index_global":2,"time_elapsed":106391,"internal_chunk_id":"0-0.2-0"},{"nsides":6,"feedback":"Correct! 4 <img src=\"./images/hexagon_symbol.png\" style=\"width:14px;height:14px\"> 5 = 3 because 5 steps clockwise on the hexagon from 4 brings us to 3","orientation_history":[0],"rt":3037,"trial_type":"polygon-arrow-feedback","trial_index":0,"trial_index_global":3,"time_elapsed":109431,"internal_chunk_id":"0-0.2-0"},{"nsides":6,"question":"What is 3 <img src=\"./images/hexagon_symbol.png\" style=\"width:14px;height:14px\"> 2? <br /><br /> (Remember, to perform <img src=\"./images/hexagon_symbol.png\" style=\"width:14px;height:14px\">, you can use the interactive diagram on the right, or perform the operation in your mind. Point  the arro w at the first number on the hexagon, then move the arrow the second number of points clockwise around the hexagon. The number the arrow arrives at is your result.)","response_type":"free","response_choices":[],"correct_response":"5","response":"5","orientation_history":[[0]],"response_history":["5"],"rt":8695,"trial_type":"polygon-arrow-question","trial_index":0,"trial_index_global":4,"time_elapsed":118127,"internal_chunk_id":"0-0.2-0"},{"nsides":6,"feedback":"Correct! 3 <img src=\"./images/hexagon_symbol.png\" style=\"width:14px;height:14px\"> 2 = 5 because 2 steps clockwise on the hexagon from 3 brings us to 5","orientation_history":[0],"rt":3822,"trial_type":"polygon-arrow-feedback","trial_index":0,"trial_index_global":5,"time_elapsed":121951,"internal_chunk_id":"0-0.2-0"},{"nsides":6,"question":"What is 1 <img src=\"./images/hexagon_symbol.png\" style=\"width:14px;height:14px\"> 5? <br /><br /> (Remember, to perform <img src=\"./images/hexagon_symbol.png\" style=\"width:14px;height:14px\">, you can use the interactive diagram on the right, or perform the operation in your mind. Point the arrow at the first number on the hexagon, then move the arrow the second number of points clockwise around the hexagon. The number the arrow arrives at is your result.)","response_type":"free","response_choices":[],"correct_response":"0","response":"0","orientation_history":[[0]],"response_history":["0"],"rt":10199,"trial_type":"polygon-arrow-question","trial_index":0,"trial_index_global":6,"time_elapsed":132150,"internal_chunk_id":"0-0.2-0"},{"nsides":6,"feedback":"Correct! 1 <img src=\"./images/hexagon_symbol.png\" style=\"width:14px;height:14px\"> 5 = 0 because 5 steps clockwise on the hexagon from 1 brings us to 0","orientation_history":[0],"rt":2903,"trial_type":"polygon-arrow-feedback","trial_index":0,"trial_index_global":7,"time_elapsed":135054,"internal_chunk_id":"0-0.2-0"},{"nsides":6,"question":"What is 1 <img src=\"./images/hexagon_symbol.png\" style=\"width:14px;height:14px\"> 1? <br /><br /> (Remember, to perform <img src=\"./images/hexagon_symbol.png\" style=\"width:14px;height:14px\">, you can use the interactive diagram on the right, or perform the operation in your mind. Point the arrow at the first number on the hexagon, then move the arrow the second number of points clockwise around the hexagon. The number the arrow arrives at is your result.)","response_type":"free","response_choices":[],"correct_response":"2","response":"2","orientation_history":[[0]],"response_history":["2"],"rt":5991,"trial_type":"polygon-arrow-question","trial_index":0,"trial_index_global":8,"time_elapsed":141046,"internal_chunk_id":"0-0.2-0"},{"nsides":6,"feedback":"Correct! 1 <img src=\"./images/hexagon_symbol.png\" style=\"width:14px;height:14px\"> 1 = 2 because 1 steps clockwise on the hexagon from 1 brings us to 2","orientation_history":[0],"rt":2999,"trial_type":"polygon-arrow-feedback","trial_index":0,"trial_index_global":9,"time_elapsed":144046,"internal_chunk_id":"0-0.2-0"},{"nsides":6,"question":"What is 3 <img src=\"./images/hexagon_symbol.png\" style=\"width:14px;height:14px\"> 0? <br /><br /> (Remember, to perform <img src=\"./images/hexagon_symbol.png\" style=\"width:14px;height:14px\">, you can use the interactive diagram on the right, or perform the operation in your mind. Point the arrow at the first number on the hexagon, then move the arrow the second number of points clockwise around the hexagon. The number the arrow arrives at is your result.)","response_type":"free","response_choices":[],"correct_response":"3","response":"3","orientation_history":[[0]],"response_history":["3"],"rt":7159,"trial_type":"polygon-arrow-question","trial_index":0,"trial_index_global":10,"time_elapsed":151207,"internal_chunk_id":"0-0.2-0"},{"nsides":6,"feedback":"Correct! 3 <img src=\"./images/hexagon_symbol.png\" style=\"width:14px;height:14px\"> 0 = 3 because 0 steps clockwise on the hexagon from 3 brings us to 3","orientation_history":[0],"rt":2653,"trial_type":"polygon-arrow-feedback","trial_index":0,"trial_index_global":11,"time_elapsed":153862,"internal_chunk_id":"0-0.2-0"},{"nsides":6,"question":"What is 4 <img src=\"./images/hexagon_symbol.png\" style=\"width:14px;height:14px\"> 4? <br /><br /> (Remember, to perform <img src=\"./images/hexagon_symbol.png\" style=\"width:14px;height:14px\">, you can use the interactive diagram on the right, or perform the operation in your mind. Point the arrow at the first number on the hexagon, then move the arrow the second number of points clockwise around the hexagon. The number the arrow arrives at is your result.)","response_type":"free","response_choices":[],"correct_response":"2","response":"2","orientation_history":[[0]],"response_history":["2"],"rt":9039,"trial_type":"polygon-arrow-question","trial_index":0,"trial_index_global":12,"time_elapsed":162902,"internal_chunk_id":"0-0.2-0"},{"nsides":6,"feedback":"Correct! 4 <img src=\"./images/hexagon_symbol.png\"  style=\"width:14px;height:14px\"> 4 = 2 because 4 steps clockwise on the hexagon from 4 brings us to 2","orientation_history":[0],"rt":3014,"trial_type":"polygon-arrow-feedback","trial_index":0,"trial_index_global":13,"time_elapsed":165918,"internal_chunk_id":"0-0.2-0"},{"nsides":6,"question":"What is 1 <img src=\"./images/hexagon_symbol.png\" style=\"width:14px;height:14px\"> 3? <br /><br /> (Remember, to perform <img src=\"./images/hexagon_symbol.png\" style=\"width:14px;height:14px\">, you can use the interactive diagram on the right, or perform the operation in your mind. Point the arrow at the first number on the hexagon, then move the arrow the second number of points clockwise around the hexagon. The number the arrow arrives at is your result.)","response_type":"free","response_choices":[],"correct_response":"4","response":"4","orientation_history":[[0]],"response_history":["4"],"rt":8207,"trial_type":"polygon-arrow-question","trial_index":0,"trial_index_global":14,"time_elapsed":174126,"internal_chunk_id":"0-0.2-0"},{"nsides":6,"feedback":"Correct! 1 <img src=\"./images/hexagon_symbol.png\" style=\"width:14px;height:14px\"> 3 = 4 because 3 steps clockwise on the hexagon from 1 brings us to 4","orientation_history":[0],"rt":1119,"trial_type":"polygon-arrow-feedback","trial_index":0,"trial_index_global":15,"time_elapsed":175245,"internal_chunk_id":"0-0.2-0"},{"nsides":6,"question":"What is 4 <img src=\"./images/hexagon_symbol.png\" style=\"width:14px;height:14px\"> 3? <br /><br /> (Remember, to perform <img src=\"./images/hexagon_symbol.png\" style=\"width:14px;height:14px\">, you can use the interactive diagram on the right, or perform the operation in your mind. Point the arrow at the first number on the hexagon, then move the arrow the second number of points clockwise around the hexagon. The number the arrow arrives at is your result.)","response_type":"free","response_choices":[],"correct_response":"1","response":"1","orientation_history":[[0]],"response_history":["1"],"rt":6847,"trial_type":"polygon-arrow-question","trial_index":0,"trial_index_global":16,"time_elapsed":182093,"internal_chunk_id":"0-0.2-0"},{"nsides":6,"feedback":"Correct! 4 <img src=\"./images/hexagon_symbol.png\" style=\"width:14px;height:14px\"> 3 = 1 because 3 steps clockwise on the hexagon from 4 brings us to 1","orientation_history":[0],"rt":2479,"trial_type":"polygon-arrow-feedback","trial_index":0,"trial_index_global":17,"time_elapsed":184573,"internal_chunk_id":"0-0.2-0"},{"nsides":6,"question":"What is 0 <img src=\"./images/hexagon_symbol.png\" style=\"width:14px;height:14px\"> 5? <br /><br /> (Remember, to perform <img src=\"./images/hexagon_symbol.png\" style=\"width:14px;height:14px\">, you can use the interactive diagram on the right, or perform the operation in your mind. Point the arrow at the first number on the hexagon, then move the arrow the second number of points clockwise around the hexagon. The number the arrow arrives at is your resul t.)","response_type":"free","response_choices":[],"correct_response":"5","response":"5","orientation_history":[[0]],"response_history":["5"],"rt":6455,"trial_type":"polygon-arrow-question","trial_index":0,"trial_index_global":18,"time_elapsed":191029,"internal_chunk_id":"0-0.2-0"},{"nsides":6,"feedback":"Correct! 0 <img src=\"./images/hexagon_symbol.png\" style=\"width:14px;height:14px\"> 5 = 5 because 5 steps clockwise on the hexagon from 0 brings us to 5","orientation_history":[0],"rt":2631,"trial_type":"polygon-arrow-feedback","trial_index":0,"trial_index_global":19,"time_elapsed":193661,"internal_chunk_id":"0-0.2-0"},{"nsides":6,"question":"What is 2 <img src=\"./images/hexagon_symbol.png\" style=\"width:14px;height:14px\"> 5? <br /><br /> (Remember, to perform <img src=\"./images/hexagon_symbol.png\" style=\"width:14px;height:14px\">, you can use the interactive diagram on the right, or perform the operation in your mind. Point the arrow at the first number on the hexagon, then  move th e arrow the second number of points clockwise around the hexagon. The number the arrow arrives at is your result.)","response_type":"free","response_choices":[],"correct_response":"1","response":"1","orientation_history":[[0]],"response_history":["1"],"rt":8008,"trial_type":"polygon-arrow-question","trial_index":0,"trial_index_global":20,"time_elapsed":201669,"internal_chunk_id":"0-0.2-0"},{"nsides":6,"feedback":"Correct! 2 <img src=\"./images/hexagon_symbol.png\" style=\"width:14px;height:14px\"> 5 = 1 because 5 steps clockwise on the hexagon from 2 brings us to 1","orientation_history":[0],"rt":3350,"trial_type":"polygon-arrow-feedback","trial_index":0,"trial_index_global":21,"time_elapsed":205021,"internal_chunk_id":"0-0.2-0"},{"nsides":6,"instructions":"Now we're going to discuss a couple special properties of this new operation, <img src=\"./images/hexagon_symbol.png\" style=\"width:14px;height:14px\"> that we've learned. First, notice that the number 0 behaves in a spe cial way  under <img src=\"./images/hexagon_symbol.png\" style=\"width:14px;height:14px\">. Whenever we combine 0 with anything else, we get that same thing back. We'll say that 0 is the <i>identity</i> under <img src=\"./images/hexagon_symbol.png\" style=\"width:14px;height:14px\">, because when you combine it with something it gives you that identical thing back.","orientation_history":[0],"rt":24884,"trial_type":"polygon-arrow-instructions","trial_index":0,"trial_index_global":22,"time_elapsed":229908,"internal_chunk_id":"0-0"},{"nsides":6,"instructions":"Now that we know 0 is the identity under <img src=\"./images/hexagon_symbol.png\" style=\"width:14px;height:14px\">, we're going to make a new definition. We'll say that the <i>inverse</i> of a number is the thing that you combine with it to produce the identity under our operation. For example, 5 <img src=\"./images/hexagon_symbol.png\" style=\"width:14px;height:14px\"> 1 = 0, so we say 1 is the inverse of 5 under <img src=\"./images/hexagon_symbol.png\" style=\"width:14px;height:14px\">, (remember 0 is the identity under <img src=\"./images/hexagon_symbol.png\" style=\"width:14px;height:14px\">). Similarly, 3 is its own inverse under <img src=\"./images/hexagon_symbol.png\" style=\"width:14px;height:14px\">, because 3 <img src=\"./images/hexagon_symbol.png\" style=\"width:14px;height:14px\"> 3 = 0.","orientation_history":[0],"rt":259625,"trial_type":"polygon-arrow-instructions","trial_index":0,"trial_index_global":23,"time_elapsed":489534,"internal_chunk_id":"0-0"},{"nsides":6,"question":"Now you try! What is the inverse of 4 under <img src=\"./images/hexagon_symbol.png\" style=\"width:14px;height:14px\">? <br /><br /> (Remember, the inverse of an element is the thing which you combine with it to produce the identity.)","response_type":"free","response_choices":[],"correct_response":"2","response":"2","orientation_history":[[0]],"response_history":["2"],"rt":1684,"trial_type":"polygon-arrow-question","trial_index":0,"trial_index_global":24,"time_elapsed":491221,"internal_chunk_id":"0-0.6-0"},{"nsides":6,"feedback":"Correct! The inverse of 4 under <img src=\"./images/hexagon_symbol.png\" style=\"width:14px;height:14px\"> is 2 because 2 steps clockwise on the hexagon from 4 brings us to 0, and 0 is the identity under <img src=\"./images/hexagon_symbol.png\" style=\"width:14px;height:14px\">.","orientation_history":[0],"rt":3030,"trial_type":"polygon-arrow-feedback","trial_index":0,"trial_index_global":25,"time_elapsed":494253,"internal_chunk_id":"0-0.6-0"},{"nsides":6,"question":"What is the inverse of 1 under <img src=\"./images/hexagon_symbol.png\" style=\"width:14px;height:14px\">? <br /><br /> (Remember, the inverse of an element is the thing which you combine with it to produce the identity.)","response_type":"free","response_choices":[],"correct_response":"5","response":"5","orientation_history":[[0]],"response_history":["5"],"rt":9647,"trial_type":"polygon-arrow-question","trial_index":0,"trial_index_global":26,"time_elapsed":503901,"internal_chunk_id":"0-0.6-0"},{"nsides":6,"feedback":"Correct! The inverse of 1 under <img src=\"./images/hexagon_symbol.png\" style=\"width:14px;height:14px\"> is 5 because 5 steps clockwise on the hexagon from 1 brings us to 0, and 0 is the identity under <img src=\"./images/hexagon_symbol.png\" style=\"width:14px;height:14px\">.","orientation_history":[0],"rt":6039,"trial_type":"polygon-arrow-feedback","trial_index":0,"trial_index_global":27,"time_elapsed":509941,"internal_chunk_id":"0-0.6-0"},{"nsides":6,"question":"What is the inverse of 3 under <img src=\"./images/hexagon_symbol.png\" style=\"width:14px;height:14px\">? <br /><br /> (Remember, the inverse of an element is the thing which you combine with it to produce the identity.)","response_type":"free","response_choices":[],"correct_response":"3","response":"3","orientation_history":[[0]],"response_history":["3"],"rt":4000,"trial_type":"polygon-arrow-question","trial_index":0,"trial_index_global":28,"time_elapsed":513941,"internal_chunk_id":"0-0.6-0"},{"nsides":6,"feedback":"Correct! The inverse of 3 under <img src=\"./images/hexagon_symbol.png\" style=\"width:14px;height:14px\"> is 3 because 3 steps clockwise on the hexagon from 3 brings us to 0, and 0 is the identity under <img src=\"./images/hexagon_symbol.png\" style=\"width:14px;height:14px\">.","orientation_history":[0],"rt":7815,"trial_type":"polygon-arrow-feedback","trial_index":0,"trial_index_global":29,"time_elapsed":521758,"internal_chunk_id":"0-0.6-0"},{"nsides":6,"question":"What is the inverse of 2 under <img src=\"./images/hexagon_symbol.png\" style=\"width:14px;height:14px\">? <br /><br /> (Remember, the inverse of an element is the thing which you combine with it to produce the identity.)","response_type":"free","response_choices":[],"correct_response":"4","response":"4","orientation_history":[[0]],"response_history":["4"],"rt":4981,"trial_type":"polygon-arrow-question","trial_index":0,"trial_index_global":30,"time_elapsed":526741,"internal_chunk_id":"0-0.6-0"},{"nsides":6,"feedback":"Correct! The inverse of 2 under <img src=\"./images/hexagon_symbol.png\" style=\"width:14px;height:14px\"> is 4 because 4 steps clockwise on the hexagon from 2 brings us to 0, and 0 is the identity under <img src=\"./images/hexagon_symbol.png\" style=\"width:14px;height:14px\">.","orientation_history":[0],"rt":3926,"trial_type":"polygon-arrow-feedback","trial_index":0,"trial_index_global":31,"time_elapsed":530668,"internal_chunk_id":"0-0.6-0"},{"nsides":6,"question":"What is the inverse of 0 under <img src=\"./images/hexagon_symbol.png\" style=\"width:14px;height:14px\">? <br /><br /> (Remember, the inverse of an element is the thing which you combine with it to produce the identity.)","response_type":"free","response_choices":[],"correct_response":"0","response":"0","orientation_history":[[0]],"response_history":["0"],"rt":3991,"trial_type":"polygon-arrow-question","trial_index":0,"trial_index_global":32,"time_elapsed":534660,"internal_chunk_id":"0-0.6-0"},{"nsides":6,"feedback":"Correct! The inverse of 0 under <img src=\"./images/hexagon_symbol.png\" style=\"width:14px;height:14px\"> is 0 because 0 steps clockwise on the hexagon from 0 brings us to 0, and 0 is the identity under <img src=\"./images/hexagon_symbol.png\" style=\"width:14px;height:14px\">.","orientation_history":[0],"rt":1678,"trial_type":"polygon-arrow-feedback","trial_index":0,"trial_index_global":33,"time_elapsed":536340,"internal_chunk_id":"0-0.6-0"},{"instructions":"It is also possible to successively apply <img src=\"./images/hexagon_symbol.png\" style=\"width:14px;height:14px\">, and the operation can simply be performed starting with the left-most pair. For example, 2 <img src=\"./images/hexagon_symbol.png\" style=\"width:14px;height:14px\"> 3 <img src=\"./images/hexagon_symbol.png\" style=\"width:14px;height:14px\"> 4 = 5 <img src=\"./images/hexagon_symbol.png\" style=\"width:14px;height:14px\"> 4 = 3.","rt":37630,"trial_type":"instructions","trial_index":0,"trial_index_global":34,"time_elapsed":573971,"internal_chunk_id":"0-0"},{"nsides":6,"instructions":"We have one last definition to learn today. Let's start with an example. Under our operation <img src=\"./images/hexagon_symbol.png\" style=\"width:14px;height:14px\"> we can make every other number using just 1: 2 = 1 <img src=\"./images/hexagon_symbol.png\" style=\"width:14px;height:14px\"> 1, 3 = 1 <img src=\"./images/hexagon_symbol.png\" style=\"width:14px;height:14px\"> 1 <img src=\"./images/hexagon_symbol.png\" style=\"width:14px;height:14px\"> 1, 4 = 1 <img src=\"./images/hexagon_symbol.png\" style=\"width:14px;height:14px\"> 1 <img src=\"./images/hexagon_symbol.png\" style=\"width:14px;height:14px\"> 1 <img src=\"./images/hexagon_symbol.png\" style=\"width:14px;height:14px\"> 1, 5 = 1 <img src=\"./images/hexagon_symbol.png\" style=\"width:14px;height:14px\"> 1 <img src=\"./images/hexagon_symbol.png\" st yle=\"width:14px;height:14px\"> 1 <img src=\"./images/hexagon_symbol.png\" style=\"width:14px;height:14px\"> 1 <img src=\"./images/hexagon_symbol.png\" style=\"width:14px;height:14px\"> 1, and 0 = 1 <img src=\"./images/hexagon_symbol.png\" style=\"width:14px;height:14px\"> 1 <img src=\"./images/hexagon_symbol.png\" style=\"width:14px;height:14px\"> 1 <img src=\"./images/hexagon_symbol.png\" style=\"width:14px;height:14px\"> 1 <img src=\"./images/hexagon_symbol.png\" style=\"width:14px;height:14px\"> 1 <img src=\"./images/hexagon_symbol.png\" style=\"width:14px;height:14px\"> 1. Because 1 can make every other element under <img src=\"./images/hexagon_symbol.png\" style=\"width:14px;height:14px\">, we say that 1 is a <i>generator</i> under <img src=\"./images/hexagon_symbol.png\" style=\"width:14px;height:14px\">. <br /><br /> However, 2 is not a generator under <img src=\"./images/hexagon_symbol.png\" style=\"width:14px;height:14px\">, because 4 = 2 <img src=\"./images/hexagon_symbol.png\" style=\"width:14px;height:14px\"> 2, and 0 = 2 <img src=\"./images/hexagon_symbol.png\" style=\"width:14px;height:14px\"> 2 <img src=\"./images/hexagon_symbol.png\" style=\"width:14px;height:14px\"> 2, but there is no way to make 1, 3, or 5 using just 2.","orientation_history":[0],"rt":38767,"trial_type":"polygon-arrow-instructions","trial_index":0,"trial_index_global":35,"time_elapsed":612739,"internal_chunk_id":"0-0"},{"nsides":6,"question":"Now you try! Is 3 a generator under <img src=\"./images/hexagon_symbol.png\" style=\"width:14px;height:14px\">? <br /><br /> (Remember, a generator is an element which can make every other element.)","response_type":"multi","response_choices":["Yes","No"],"correct_response":"No","response":"No","orientation_history":[[0]],"response_history":["No"],"rt":1709,"trial_type":"polygon-arrow-question","trial_index":0,"trial_index_global":36,"time_elapsed":614451,"internal_chunk_id":"0-0.9-0"},{"nsides":6,"feedback":"Correct! 3 is not a  generat or under <img src=\"./images/hexagon_symbol.png\" style=\"width:14px;height:14px\">, because 3 = 3, 0 = 3 <img src=\"./images/hexagon_symbol.png\" style=\"width:14px;height:14px\"> 3, but there is no way to make 1, 2, 4, or 5 using just 3.","orientation_history":[0],"rt":7982,"trial_type":"polygon-arrow-feedback","trial_index":0,"trial_index_global":37,"time_elapsed":622434,"internal_chunk_id":"0-0.9-0"},{"nsides":6,"question":"Is 5 a generator under <img src=\"./images/hexagon_symbol.png\" style=\"width:14px;height:14px\">? <br /><br /> (Remember, a generator is an element which can make every other element.)","response_type":"multi","response_choices":["Yes","No"],"correct_response":"Yes","response":"Yes","orientation_history":[[0]],"response_history":["Yes"],"rt":4487,"trial_type":"polygon-arrow-question","trial_index":0,"trial_index_global":38,"time_elapsed":626922,"internal_chunk_id":"0-0.9-0"},{"nsides":6,"feedback":"Correct! 5 is a generator under <img src=\"./images/hexagon_symbol.png\" style=\"width:14px;height:14px\">, because 5 = 5, 4 = 5 <img src=\"./images/hexagon_symbol.png\" style=\"width:14px;height:14px\"> 5, 3 = 5 <img src=\"./images/hexagon_symbol.png\" style=\"width:14px;height:14px\"> 5 <img src=\"./images/hexagon_symbol.png\" style=\"width:14px;height:14px\"> 5, 2 = 5 <img src=\"./images/hexagon_symbol.png\" style=\"width:14px;height:14px\"> 5 <img src=\"./images/hexagon_symbol.png\" style=\"width:14px;height:14px\"> 5 <img src=\"./images/hexagon_symbol.png\" style=\"width:14px;height:14px\"> 5, 1 = 5 <img src=\"./images/hexagon_symbol.png\" style=\"width:14px;height:14px\"> 5 <img src=\"./images/hexagon_symbol.png\" style=\"width:14px;height:14px\"> 5 <img src=\"./images/hexagon_symbol.png\" style=\"width:14px;height:14px\"> 5 <img src=\"./images/hexagon_symbol.png\" style=\"width:14px;height:14px\"> 5, and 0 = 5 <img src=\"./images/hexagon_symbol.png\" style=\"width:14px;height:14px\"> 5 <img src=\"./images/hexagon_symbol.png\"  style=\"width:14px;height:14px\"> 5 <img src=\"./images/hexagon_symbol.png\" style=\"width:14px;height:14px\"> 5 <img src=\"./images/hexagon_symbol.png\" style=\"width:14px;height:14px\"> 5 <img src=\"./images/hexagon_symbol.png\" style=\"width:14px;height:14px\"> 5, so you can make all of the numbers under <img src=\"./images/hexagon_symbol.png\" style=\"width:14px;height:14px\"> using 5","orientation_history":[0],"rt":6143,"trial_type":"polygon-arrow-feedback","trial_index":0,"trial_index_global":39,"time_elapsed":633066,"internal_chunk_id":"0-0.9-0"},{"nsides":6,"question":"Is 4 a generator under <img src=\"./images/hexagon_symbol.png\" style=\"width:14px;height:14px\">? <br /><br /> (Remember, a generator is an element which can make every other element.)","response_type":"multi","response_choices":["Yes","No"],"correct_response":"No","response":"No","orientation_history":[[0]],"response_history":["No"],"rt":3719,"trial_type":"polygon-arrow-question","trial_index":0,"trial_index_global":40,"time_elapsed":636786,"internal_chunk_id":"0-0.9-0"},{"nsides":6,"feedback":"Correct! 4 is not a generator under <img src=\"./images/hexagon_symbol.png\" style=\"width:14px;height:14px\">, because 4 = 4, 2 = 4 <img src=\"./images/hexagon_symbol.png\" style=\"width:14px;height:14px\"> 4, and 0 = 4 <img src=\"./images/hexagon_symbol.png\" style=\"width:14px;height:14px\"> 4 <img src=\"./images/hexagon_symbol.png\" style=\"width:14px;height:14px\"> 4, but there is no way to make 1, 3, or 5 using just 4.","orientation_history":[0],"rt":5375,"trial_type":"polygon-arrow-feedback","trial_index":0,"trial_index_global":41,"time_elapsed":642162,"internal_chunk_id":"0-0.9-0"},{"nsides":6,"question":"Is 0 a generator under <img src=\"./images/hexagon_symbol.png\" style=\"width:14px;height:14px\">? <br /><br /> (Remember, a generator is an element which can make every other element.)","response_type":"multi","response_choices":["Yes","No"],"correct_response":"No","response":"No","orientation_history":[[0]],"response_history":["No"],"rt":4536,"trial_type":"polygon-arrow-question","trial_index":0,"trial_index_global":42,"time_elapsed":646698,"internal_chunk_id":"0-0.9-0"},{"nsides":6,"feedback":"Correct! 0 is not a generator under <img src=\"./images/hexagon_symbol.png\" style=\"width:14px;height:14px\">, because 0 = 0, but there is no way to make 1, 2, 3, 4, or 5 using just 0.","orientation_history":[0],"rt":2183,"trial_type":"polygon-arrow-feedback","trial_index":0,"trial_index_global":43,"time_elapsed":648881,"internal_chunk_id":"0-0.9-0"},{"nsides":9,"instructions":"Now we are going to ask you some questions about a new operation, <img src=\"./images/nonagon_symbol.png\" style=\"width:14px;height:14px\">, on the numbers 0, 1, 2, 3, 4, 5, 6, 7, 8. It works exactly like <img src=\"./images/hexagon_symbol.png\" style=\"width:14px;height:14px\">, except now you use the nonagon shown at the right. <br /><br />We'll give you one practice question with feedback to m ake sure  you understand the new operation. After that, try to complete the remaining questions as accurately as possible.","orientation_history":[0],"rt":21951,"trial_type":"polygon-arrow-instructions","trial_index":0,"trial_index_global":44,"time_elapsed":670834,"internal_chunk_id":"0-0"},{"nsides":9,"question":"Practice: What is 5 <img src=\"./images/nonagon_symbol.png\" style=\"width:14px;height:14px\"> 5?","response_type":"free","response_choices":[],"correct_response":"1","response":"1","orientation_history":[[0]],"response_history":["1"],"rt":3741,"trial_type":"polygon-arrow-question","trial_index":0,"trial_index_global":45,"time_elapsed":674577,"internal_chunk_id":"0-0.11-0"},{"nsides":9,"feedback":"Correct! 5 <img src=\"./images/nonagon_symbol.png\" style=\"width:14px;height:14px\"> 5 = 1 because 5 steps clockwise on the nonagon from 5 brings us to 1","orientation_history":[0],"rt":2366,"trial_type":"polygon-arrow-feedback","trial_index":0,"trial_index_global":46,"time_elapsed":676945,"internal_chunk_id":"0-0.11-0"},{"nsides":9,"question":"What is 3 <img src=\"./images/nonagon_symbol.png\" style=\"width:14px;height:14px\"> 3?","response_type":"free","response_choices":[],"correct_response":"6","response":"6","orientation_history":[[0]],"response_history":["6"],"rt":6615,"trial_type":"polygon-arrow-question","trial_index":0,"trial_index_global":47,"time_elapsed":683561,"internal_chunk_id":"0-0.11-0"},{"nsides":9,"question":"What is 7 <img src=\"./images/nonagon_symbol.png\" style=\"width:14px;height:14px\"> 4?","response_type":"free","response_choices":[],"correct_response":"2","response":"2","orientation_history":[[0]],"response_history":["2"],"rt":7479,"trial_type":"polygon-arrow-question","trial_index":0,"trial_index_global":48,"time_elapsed":691041,"internal_chunk_id":"0-0.11-0"},{"nsides":9,"question":"What is 1 <img src=\"./images/nonagon_symbol.png\" style=\"width:14px;height:14px\"> 8?","response_type":"free","response_choices":[],"correct_response":"0","response":"0","orientation_history":[[0]],"response_history":["0"],"rt":10135,"trial_type":"polygon-arrow-question","trial_index":0,"trial_index_global":49,"time_elapsed":701177,"internal_chunk_id":"0-0.11-0"},{"nsides":9,"question":"What is 5 <img src=\"./images/nonagon_symbol.png\" style=\"width:14px;height:14px\"> 4?","response_type":"free","response_choices":[],"correct_response":"0","response":"0","orientation_history":[[0]],"response_history":["0"],"rt":6294,"trial_type":"polygon-arrow-question","trial_index":0,"trial_index_global":50,"time_elapsed":707472,"internal_chunk_id":"0-0.11-0"},{"nsides":9,"question":"What is 6 <img src=\"./images/nonagon_symbol.png\" style=\"width:14px;height:14px\"> 6?","response_type":"free","response_choices":[],"correct_response":"3","response":"3","orientation_history":[[0]],"response_history":["3"],"rt":11679,"trial_type":"polygon-arrow-question","trial_index":0,"trial_index_global":51,"time_elapsed":719153,"internal_chunk_id":"0-0.1 1-0"},{"nsides":9,"question":"What is 4 <img src=\"./images/nonagon_symbol.png\" style=\"width:14px;height:14px\"> 1? Please explain in words how you got your answer.","response_type":"free","response_choices":[],"correct_response":"","response":"5. 5 is one location clockwise from 4.","orientation_history":[[0]],"response_history":["5. 5 is one location clockwise from 4."],"rt":66515,"trial_type":"polygon-arrow-question","trial_index":0,"trial_index_global":52,"time_elapsed":785670,"internal_chunk_id":"0-0.11-0"},{"nsides":9,"question":"What is 8 <img src=\"./images/nonagon_symbol.png\" style=\"width:14px;height:14px\"> 4? Please explain in words how you got your answer.","response_type":"free","response_choices":[],"correct_response":"","response":"3. 3 is four locations clockwise from 8.","orientation_history":[[0]],"response_history":[" . 3 is four locations clockweise from 8."," . 3 is four locations clockwise from 8.",". 3 is four locations clockwise from 8.","3. 3 is four loc ations c lockwise from 8."],"rt":73237,"trial_type":"polygon-arrow-question","trial_index":0,"trial_index_global":53,"time_elapsed":858910,"internal_chunk_id":"0-0.11-0"},{"nsides":9,"question":"What is the identity under <img src=\"./images/nonagon_symbol.png\" style=\"width:14px;height:14px\">? Please explain in words how you got your answer.","response_type":"free","response_choices":[],"correct_response":"0","response":"I don't know.","orientation_history":[[0]],"response_history":["I don't know."],"rt":58075,"trial_type":"polygon-arrow-question","trial_index":0,"trial_index_global":54,"time_elapsed":916988,"internal_chunk_id":"0-0.11-0"},{"nsides":9,"question":"What is the inverse of 5 under <img src=\"./images/nonagon_symbol.png\" style=\"width:14px;height:14px\">?","response_type":"free","response_choices":[],"correct_response":"4","response":"4","orientation_history":[[0]],"response_history":["4"],"rt":17022,"trial_type":"polygon-arrow-question","trial_index":0,"trial_index_global":55,"time_elapsed":934012,"internal_chunk_id":"0-0.11-0"},{"nsides":9,"question":"What is the inverse of 2 under <img src=\"./images/nonagon_symbol.png\" style=\"width:14px;height:14px\">?","response_type":"free","response_choices":[],"correct_response":"7","response":"7","orientation_history":[[0]],"response_history":["7"],"rt":13069,"trial_type":"polygon-arrow-question","trial_index":0,"trial_index_global":56,"time_elapsed":947083,"internal_chunk_id":"0-0.11-0"},{"nsides":9,"question":"What is the inverse of 3 under <img src=\"./images/nonagon_symbol.png\" style=\"width:14px;height:14px\">? Please explain in words how you got your answer.","response_type":"free","response_choices":[],"correct_response":"","response":"6. The number of location moves to reach 0.","orientation_history":[[0]],"response_history":["6. the n","6. the ","6. the","6. th","6. t","6. The number o lo","6. The number o l","6. The number o ","6. The number of location moves to reach 0."],"rt":45438,"trial_type":" polygon-arrow-question","trial_index":0,"trial_index_global":57,"time_elapsed":992522,"internal_chunk_id":"0-0.11-0"},{"nsides":9,"question":"Is 2 a generator under <img src=\"./images/nonagon_symbol.png\" style=\"width:14px;height:14px\">? Please explain in words how you got your answer.","response_type":"free","response_choices":[],"correct_response":"","response":"I don't know.","orientation_history":[[0]],"response_history":["I don't know."],"rt":36716,"trial_type":"polygon-arrow-question","trial_index":0,"trial_index_global":58,"time_elapsed":1029241,"internal_chunk_id":"0-0.11-0"},{"nsides":9,"question":"Is 3 a generator under <img src=\"./images/nonagon_symbol.png\" style=\"width:14px;height:14px\">? Please explain in words how you got your answer.","response_type":"free","response_choices":[],"correct_response":"","response":"I don't know.","orientation_history":[[0]],"response_history":["I don't know."],"rt":6351,"trial_type":"polygon-arrow-question","trial_index":0,"trial_index_global":59,"time_elapsed":1035593,"internal_chunk_id":"0-0.11-0"},{"nsides":9,"question":"Is 5 a generator under <img src=\"./images/nonagon_symbol.png\" style=\"width:14px;height:14px\">? Please explain in words how you got your answer.","response_type":"free","response_choices":[],"correct_response":"","response":"I don't know.","orientation_history":[[0]],"response_history":["I don't know."],"rt":10103,"trial_type":"polygon-arrow-question","trial_index":0,"trial_index_global":60,"time_elapsed":1045698,"internal_chunk_id":"0-0.11-0"},{"nsides":9,"question":"Is 6 a generator under <img src=\"./images/nonagon_symbol.png\" style=\"width:14px;height:14px\">? Please explain in words how you got your answer.","response_type":"free","response_choices":[],"correct_response":"","response":"I don't know.","orientation_history":[[0]],"response_history":["I don't know."],"rt":5059,"trial_type":"polygon-arrow-question","trial_index":0,"trial_index_global":61,"time_elapsed":1050760,"internal_chunk_id":"0-0.11-0"},{"nsides":"n","instructions":"Now we'd like to ask you some questions about <img src=\"./images/ngon_symbol.png\" style=\"width:14px;height:14px\">, where n could be any positive counting number. For example, n could be 3, and the polygon a triangle, or n could be any other counting number you can think of. If you need to write the operation, you can use \"(n)\", and your answers can include n to stand in for the arbitrary value if necessary. (You can use the polygon at the right to think, but it doesn't necessarily correspond to the real polygon, which is why we've left most of it dashed.)","orientation_history":[0],"rt":28054,"trial_type":"polygon-arrow-instructions","trial_index":0,"trial_index_global":62,"time_elapsed":1078816,"internal_chunk_id":"0-0"},{"nsides":"n","question":"What is the formula for the inverse of 1 under <img src=\"./images/ngon_symbol.png\" style=\"width:14px;height:14px\">?","response_type":"free","response_choices":[],"correct_response":"n-1","response":"I don't know.","orientation_history":[[0]],"response_history":["I don't know."],"rt":27998,"trial_type":"polygon-arrow-question","trial_index":0,"trial_index_global":63,"time_elapsed":1106815,"internal_chunk_id":"0-0.13-0"},{"nsides":"n","question":"What is the formula for the inverse of an element x under <img src=\"./images/ngon_symbol.png\" style=\"width:14px;height:14px\">? Please explain in words why your answer is correct.","response_type":"free","response_choices":[],"correct_response":"n-x","response":"I don't know.","orientation_history":[[0]],"response_history":["I don't know."],"rt":13495,"trial_type":"polygon-arrow-question","trial_index":0,"trial_index_global":64,"time_elapsed":1120311,"internal_chunk_id":"0-0.13-0"},{"nsides":"n","question":"Is there a pattern to which elements are generators? How can you know if an element x is a generator under <img src=\"./images/ngon_symbol.png\" style=\"width:14px;height:14px\"> without seeing whe ther it  can make all the elements?.","response_type":"free","response_choices":[],"correct_response":"","response":"I don't know.","orientation_history":[[0]],"response_history":["I don't know."],"rt":28604,"trial_type":"polygon-arrow-question","trial_index":0,"trial_index_global":65,"time_elapsed":1148918,"internal_chunk_id":"0-0.13-0"},{"nsides":"n","question":"True or false: If x is an odd number, it must be a generator under <img src=\"./images/ngon_symbol.png\" style=\"width:14px;height:14px\">.","response_type":"multi","response_choices":["True","False"],"correct_response":"False","response":"True","orientation_history":[[0]],"response_history":["True"],"rt":13503,"trial_type":"polygon-arrow-question","trial_index":0,"trial_index_global":66,"time_elapsed":1162422,"internal_chunk_id":"0-0.13-0"},{"nsides":"n","question":"True or false: If x is an even number, it must not be a generator under <img src=\"./images/ngon_symbol.png\" style=\"width:14px;height:14px\">.","response_type":"mult i","response_choices":["True","False"],"correct_response":"False","response":"False","orientation_history":[[0]],"response_history":["False"],"rt":2399,"trial_type":"polygon-arrow-question","trial_index":0,"trial_index_global":67,"time_elapsed":1164822,"internal_chunk_id":"0-0.13-0"},{"nsides":"n","question":"True or false: If x is not a generator under <img src=\"./images/ngon_symbol.png\" style=\"width:14px;height:14px\">, x must divide n.","response_type":"multi","response_choices":["True","False"],"correct_response":"False","response":"False","orientation_history":[[0]],"response_history":["False"],"rt":6703,"trial_type":"polygon-arrow-question","trial_index":0,"trial_index_global":68,"time_elapsed":1171526,"internal_chunk_id":"0-0.13-0"},{"nsides":"n","question":"True or false: If x is not a generator under <img src=\"./images/ngon_symbol.png\" style=\"width:14px;height:14px\">, x must be a multiple of a divisor of n. Please explain in words why your answer is correct.","response_type":"free","response_choices":[],"correct_response":"True","response":"I don't know.","orientation_history":[[0]],"response_history":["I don't know."],"rt":14397,"trial_type":"polygon-arrow-question","trial_index":0,"trial_index_global":69,"time_elapsed":1185925,"internal_chunk_id":"0-0.13-0"},{"nsides":"n","question":"If an element x is a generator under <img src=\"./images/ngon_symbol.png\" style=\"width:14px;height:14px\">, is its inverse a generator under <img src=\"./images/ngon_symbol.png\" style=\"width:14px;height:14px\"> always, sometimes, or never?","response_type":"multi","response_choices":["Always","Sometimes","Never"],"correct_response":"Always","response":"Sometimes","orientation_history":[[0]],"response_history":["Sometimes"],"rt":13679,"trial_type":"polygon-arrow-question","trial_index":0,"trial_index_global":70,"time_elapsed":1199605,"internal_chunk_id":"0-0.13-0"},{"nsides":"n","question":"If an element x is not a generator under <img src=\"./images/ngon_symbol.png\" style=\"width:14px;height:14px\">, is x <img src=\"./images/ngon_symbol.png\" style=\"width:14px;height:14px\"> x a generator under <img src=\"./images/ngon_symbol.png\" style=\"width:14px;height:14px\"> always, sometimes, or never?","response_type":"multi","response_choices":["Always","Sometimes","Never"],"correct_response":"Never","response":"Sometimes","orientation_history":[[0]],"response_history":["Sometimes"],"rt":8385,"trial_type":"polygon-arrow-question","trial_index":0,"trial_index_global":71,"time_elapsed":1207991,"internal_chunk_id":"0-0.13-0"},{"nsides":"n","question":"If an element x is a generator under <img src=\"./images/ngon_symbol.png\" style=\"width:14px;height:14px\">, is x <img src=\"./images/ngon_symbol.png\" style=\"width:14px;height:14px\"> x a generator under <img src=\"./images/ngon_symbol.png\" style=\"width:14px;height:14px\"> always, sometimes, or never? Please explain in words why your answer is correct.","response_type":"free","response_choices":[],"correct_response":"Sometimes","response":"I don't know.","orientation_history":[[0]],"response_history":["I don't know."],"rt":13476,"trial_type":"polygon-arrow-question","trial_index":0,"trial_index_global":72,"time_elapsed":1221468,"internal_chunk_id":"0-0.13-0"},{"instructions":"We would like to ask you some questions about your background. Please press \"Continue\" to continue.","rt":5375,"trial_type":"instructions","trial_index":0,"trial_index_global":73,"time_elapsed":1226845,"internal_chunk_id":"0-0.14-0"},{"question":"What is your age?","response_type":"free","response_choices":[],"correct_response":"","response":"44","response_history":["44"],"rt":2413,"trial_type":"question","trial_index":0,"trial_index_global":74,"time_elapsed":1229260,"internal_chunk_id":"0-0.14-0"},{"question":"What is your level of education?","response_type":"multi","response_choices":["Did not graduate high school","High school diploma","Some college, no degree","Associates Degree","Ba chelors  Degree","Some graduate school, no degree","Masters Degree","Doctorate, M.D., etc."],"correct_response":"","response":"Associates Degree","response_history":["Masters Degree","Associates Degree"],"rt":25253,"trial_type":"question","trial_index":0,"trial_index_global":75,"time_elapsed":1254515,"internal_chunk_id":"0-0.14-0"},{"question":"What is the most advanced math class you've completed? If you have multiple classes and you're not sure which one is most advanced, please list them.","response_type":"free","response_choices":[],"correct_response":"","response":"Algebra","response_history":["Algebra"],"rt":17631,"trial_type":"question","trial_index":0,"trial_index_global":76,"time_elapsed":1272148,"internal_chunk_id":"0-0.14-0"},{"question":"How familiar are you with the concept of modular arithmetic?","response_type":"multi","response_choices":["1 - never heard of it","2 - heard of it but didn't know what it was","3 - seen it used or explained","4 - used it but not often or  recently ","5 - used it, remember and understand it"],"correct_response":"1","response":"2 - heard of it but didn't know what it was","response_history":["2 - heard of it but didn't know what it was"],"rt":8863,"trial_type":"question","trial_index":0,"trial_index_global":77,"time_elapsed":1281012,"internal_chunk_id":"0-0.14-0"},{"question":"How familiar are you with the concept of a mathematical group?","response_type":"multi","response_choices":["1 - never heard of it","2 - heard of it but didn't know what it was","3 - seen it used or explained","4 - used it but not often or recently","5 - used it, remember and understand it"],"correct_response":"1","response":"2 - heard of it but didn't know what it was","response_history":["2 - heard of it but didn't know what it was"],"rt":6981,"trial_type":"question","trial_index":0,"trial_index_global":78,"time_elapsed":1287995,"internal_chunk_id":"0-0.14-0"},{"question":"Do you feel you learned something from this HIT?","response_type":"multi","response_choices":["1 - not at all","2 - somewhat","3 - definitely"],"correct_response":"1","response":"2 - somewhat","response_history":["2 - somewhat"],"rt":4518,"trial_type":"question","trial_index":0,"trial_index_global":79,"time_elapsed":1292515,"internal_chunk_id":"0-0.14-0"},{"question":"Do you feel you understood the concepts in this HIT?","response_type":"multi","response_choices":["1 - not at all","2 - somewhat","3 - definitely"],"correct_response":"1","response":"1 - not at all","response_history":["1 - not at all"],"rt":10118,"trial_type":"question","trial_index":0,"trial_index_global":80,"time_elapsed":1302634,"internal_chunk_id":"0-0.14-0"},{"question":"Did you enjoy this HIT?","response_type":"multi","response_choices":["1 - not at all","2 - somewhat","3 - definitely"],"correct_response":"1","response":"2 - somewhat","response_history":["2 - somewhat"],"rt":4575,"trial_type":"question","trial_index":0,"trial_index_global":81,"time_elapsed":1307210,"internal_chunk_id":"0-0.1 4-0"},{"question":"What is your gender?","response_type":"multi","response_choices":["Female","Male","Other"],"correct_response":"","response":"Male","response_history":["Male"],"rt":6759,"trial_type":"question","trial_index":0,"trial_index_global":82,"time_elapsed":1313970,"internal_chunk_id":"0-0.14-0"},{"question":"What is/are your native language(s)? (The languages spoken in your household when you were a child.)","response_type":"free","response_choices":[],"correct_response":"","response":"English","response_history":["English"],"rt":37054,"trial_type":"question","trial_index":0,"trial_index_global":83,"time_elapsed":1351026,"internal_chunk_id":"0-0.14-0"},{"question":"Did you use pen and paper at any point on this HIT?","response_type":"free","response_choices":[],"correct_response":"","response":"No","response_history":["No"],"rt":3733,"trial_type":"question","trial_index":0,"trial_index_global":84,"time_elapsed":1354761,"internal_chunk_id":"0-0.14-0"},{"question":"D o you ha ve any comments on this HIT?","response_type":"free","response_choices":[],"correct_response":"","response":"I only understood the basic concepts.","response_history":["I only understand ","I only understand","I only understan","I only understa","I only understood the basc","I only understood the basic conceptt","I only understood the basic concept","I only understood the basic concepts."],"rt":24374,"trial_type":"question","trial_index":0,"trial_index_global":85,"time_elapsed":1379136,"internal_chunk_id":"0-0.14-0"}]