[{"instructions":"Let's define a new operation +<sub>6</sub>. This operation will give us a way of combining two of the numbers 0, 1, 2, 3, 4, 5 to get another one of them back. To perform +<sub>6</sub>, you start with the first number, and then add the second one to it. If the sum is smaller than 6, that's your result. If the sum is 6 or bigger, you subtract 6 to get your result. (That's why the operation is called +<sub>6</sub>.) <br /><br />For example, 3 +<sub>6</sub> 5 = 2, because 3 + 5 = 8, and 8 is bigger than 6, so we subtract 6, and 8 - 6 = 2. So 3 +<sub>6</sub> 5 = 2.<br /><br />Similarly, 1 +<sub>6</sub> 4 = 5, because 1 + 4 = 5, and 5 is less than 6 so we leave it alone. <br /><br />Click \"Continue\" when you're ready to move on.","rt":79824,"trial_type":"instructions","trial_index":0,"trial_index_global":1,"time_elapsed":94647,"internal_chunk_id":"0-0"},{"question":"Now try one on your own! What is 4 +<sub>6</sub> 5? <br /><br /> (Remember, to perform +<sub>6</ sub>, yo u start with the first number, and then add the second one to it. If the sum is smaller than 6, that's your result. If the sum is 6 or bigger, you subtract 6 to get your result.)","response_type":"free","response_choices":[],"correct_response":"3","response":"= 9","response_history":["= 9"],"rt":12711,"trial_type":"question","trial_index":0,"trial_index_global":2,"time_elapsed":107360,"internal_chunk_id":"0-0.2-0"},{"feedback":"Sorry, that was incorrect. 4 +<sub>6</sub> 5 = 3 because 4 + 5 = 9 and 9 - 6 = 3.","rt":2481,"trial_type":"feedback","trial_index":0,"trial_index_global":3,"time_elapsed":109842,"internal_chunk_id":"0-0.2-0"},{"question":"What is 3 +<sub>6</sub> 2? <br /><br /> (Remember, to perform +<sub>6</sub>, you start with the first number, and then add the second one to it. If the sum is smaller than 6, that's your result. If the sum is 6 or bigger, you subtract 6 to get your result.)","response_type":"free","response_choices":[],"correct_response":"5","response":"5","response_history":["5, ","5,","5"],"rt":9282,"trial_type":"question","trial_index":0,"trial_index_global":4,"time_elapsed":119125,"internal_chunk_id":"0-0.2-0"},{"feedback":"Correct! 3 +<sub>6</sub> 2 = 5 because 3 + 2 = 5 and 5 is less than 6.","rt":1773,"trial_type":"feedback","trial_index":0,"trial_index_global":5,"time_elapsed":120899,"internal_chunk_id":"0-0.2-0"},{"question":"What is 1 +<sub>6</sub> 5? <br /><br /> (Remember, to perform +<sub>6</sub>, you start with the first number, and then add the second one to it. If the sum is smaller than 6, that's your result. If the sum is 6 or bigger, you subtract 6 to get your result.)","response_type":"free","response_choices":[],"correct_response":"0","response":"0","response_history":["0"],"rt":6121,"trial_type":"question","trial_index":0,"trial_index_global":6,"time_elapsed":127021,"internal_chunk_id":"0-0.2-0"},{"feedback":"Correct! 1 +<sub>6</sub> 5 = 0 because 1 + 5 = 6 and 6 - 6 = 0.","rt":1472,"trial_type":"feedback","trial_index":0,"trial_index_global":7,"time_elapsed":128494,"internal_chunk_id":"0-0.2-0"},{"question":"What is 1 +<sub>6</sub> 1? <br /><br /> (Remember, to perform +<sub>6</sub>, you start with the first number, and then add the second one to it. If the sum is smaller than 6, that's your result. If the sum is 6 or bigger, you subtract 6 to get your result.)","response_type":"free","response_choices":[],"correct_response":"2","response":"2","response_history":["2"],"rt":4232,"trial_type":"question","trial_index":0,"trial_index_global":8,"time_elapsed":132727,"internal_chunk_id":"0-0.2-0"},{"feedback":"Correct! 1 +<sub>6</sub> 1 = 2 because 1 + 1 = 2 and 2 is less than 6.","rt":1466,"trial_type":"feedback","trial_index":0,"trial_index_global":9,"time_elapsed":134194,"internal_chunk_id":"0-0.2-0"},{"question":"What is 3 +<sub>6</sub> 0? <br /><br /> (Remember, to perform +<sub>6</sub>, you start with the first number, and then add the second one to it. If the sum is smaller than 6,  that's  your result. If the sum is 6 or bigger, you subtract 6 to get your result.)","response_type":"free","response_choices":[],"correct_response":"3","response":"3","response_history":["3"],"rt":4044,"trial_type":"question","trial_index":0,"trial_index_global":10,"time_elapsed":138239,"internal_chunk_id":"0-0.2-0"},{"feedback":"Correct! 3 +<sub>6</sub> 0 = 3 because 3 + 0 = 3 and 3 is less than 6.","rt":1368,"trial_type":"feedback","trial_index":0,"trial_index_global":11,"time_elapsed":139609,"internal_chunk_id":"0-0.2-0"},{"question":"What is 4 +<sub>6</sub> 4? <br /><br /> (Remember, to perform +<sub>6</sub>, you start with the first number, and then add the second one to it. If the sum is smaller than 6, that's your result. If the sum is 6 or bigger, you subtract 6 to get your result.)","response_type":"free","response_choices":[],"correct_response":"2","response":"2","response_history":["2"],"rt":6106,"trial_type":"question","trial_index":0,"trial_index_global":12,"time_elapsed":145716,"internal_chunk_id":"0-0.2-0"},{"feedback":"Correct! 4 +<sub>6</sub> 4 = 2 because 4 + 4 = 8 and 8 - 6 = 2.","rt":1481,"trial_type":"feedback","trial_index":0,"trial_index_global":13,"time_elapsed":147198,"internal_chunk_id":"0-0.2-0"},{"question":"What is 1 +<sub>6</sub> 3? <br /><br /> (Remember, to perform +<sub>6</sub>, you start with the first number, and then add the second one to it. If the sum is smaller than 6, that's your result. If the sum is 6 or bigger, you subtract 6 to get your result.)","response_type":"free","response_choices":[],"correct_response":"4","response":"4","response_history":["4"],"rt":4099,"trial_type":"question","trial_index":0,"trial_index_global":14,"time_elapsed":151297,"internal_chunk_id":"0-0.2-0"},{"feedback":"Correct! 1 +<sub>6</sub> 3 = 4 because 1 + 3 = 4 and 4 is less than 6.","rt":1263,"trial_type":"feedback","trial_index":0,"trial_index_global":15,"time_elapsed":152561,"internal_chunk_id":"0-0.2-0"},{"question":"What is 4 +<sub>6< /sub> 3?  <br /><br /> (Remember, to perform +<sub>6</sub>, you start with the first number, and then add the second one to it. If the sum is smaller than 6, that's your result. If the sum is 6 or bigger, you subtract 6 to get your result.)","response_type":"free","response_choices":[],"correct_response":"1","response":"1","response_history":["1"],"rt":3926,"trial_type":"question","trial_index":0,"trial_index_global":16,"time_elapsed":156488,"internal_chunk_id":"0-0.2-0"},{"feedback":"Correct! 4 +<sub>6</sub> 3 = 1 because 4 + 3 = 7 and 7 - 6 = 1.","rt":1362,"trial_type":"feedback","trial_index":0,"trial_index_global":17,"time_elapsed":157851,"internal_chunk_id":"0-0.2-0"},{"question":"What is 0 +<sub>6</sub> 5? <br /><br /> (Remember, to perform +<sub>6</sub>, you start with the first number, and then add the second one to it. If the sum is smaller than 6, that's your result. If the sum is 6 or bigger, you subtract 6 to get your result.)","response_type":"free","response_choices":[],"correct_response":"5","response":"5","response_history":["5"],"rt":3824,"trial_type":"question","trial_index":0,"trial_index_global":18,"time_elapsed":161676,"internal_chunk_id":"0-0.2-0"},{"feedback":"Correct! 0 +<sub>6</sub> 5 = 5 because 0 + 5 = 5 and 5 is less than 6.","rt":2695,"trial_type":"feedback","trial_index":0,"trial_index_global":19,"time_elapsed":164372,"internal_chunk_id":"0-0.2-0"},{"question":"What is 2 +<sub>6</sub> 5? <br /><br /> (Remember, to perform +<sub>6</sub>, you start with the first number, and then add the second one to it. If the sum is smaller than 6, that's your result. If the sum is 6 or bigger, you subtract 6 to get your result.)","response_type":"free","response_choices":[],"correct_response":"1","response":"1","response_history":["1"],"rt":3845,"trial_type":"question","trial_index":0,"trial_index_global":20,"time_elapsed":168217,"internal_chunk_id":"0-0.2-0"},{"feedback":"Correct! 2 +<sub>6</sub> 5 = 1 because 2 + 5 = 7 and 7 - 6 = 1.","rt":1328,"trial_type":"feedback","trial_index":0,"trial_index_global":21,"time_elapsed":169546,"internal_chunk_id":"0-0.2-0"},{"instructions":"Now we're going to discuss a couple special properties of this new operation, +<sub>6</sub> that we've learned. First, notice that the number 0 behaves in a special way under +<sub>6</sub>. Whenever we combine 0 with anything else, we get that same thing back. We'll say that 0 is the <i>identity</i> under +<sub>6</sub>, because when you combine it with something it gives you that identical thing back.","rt":20359,"trial_type":"instructions","trial_index":0,"trial_index_global":22,"time_elapsed":189908,"internal_chunk_id":"0-0"},{"instructions":"Now that we know 0 is the identity under +<sub>6</sub>, we're going to make a new definition. We'll say that the <i>inverse</i> of a number is the thing that you combine with it to produce the identity. For example, 5 +<sub>6</sub> 1 = 0, so we say 1 is the inverse of 5 under +<sub>6</sub>, (remember 0 is the  identity  under +<sub>6</sub>). Similarly, 3 is its own inverse under +<sub>6</sub>, because 3 +<sub>6</sub> 3 = 0.","rt":22345,"trial_type":"instructions","trial_index":0,"trial_index_global":23,"time_elapsed":212254,"internal_chunk_id":"0-0"},{"question":"Now you try! What is the inverse of 4 under +<sub>6</sub>? <br /><br /> (Remember, the inverse of an element is the thing which you combine with it to produce the identity.)","response_type":"free","response_choices":[],"correct_response":"2","response":"2","response_history":["2"],"rt":4490,"trial_type":"question","trial_index":0,"trial_index_global":24,"time_elapsed":216745,"internal_chunk_id":"0-0.6-0"},{"feedback":"Correct! The inverse of 4 under +<sub>6</sub> is 2 because 4 +<sub>6</sub> 2 = 0, and 0 is the identity under +<sub>6</sub>.","rt":1192,"trial_type":"feedback","trial_index":0,"trial_index_global":25,"time_elapsed":217938,"internal_chunk_id":"0-0.6-0"},{"question":"What is the inverse of 1 under +<sub>6</sub>? <br / ><br />  (Remember, the inverse of an element is the thing which you combine with it to produce the identity.)","response_type":"free","response_choices":[],"correct_response":"5","response":"5","response_history":["5"],"rt":3321,"trial_type":"question","trial_index":0,"trial_index_global":26,"time_elapsed":221259,"internal_chunk_id":"0-0.6-0"},{"feedback":"Correct! The inverse of 1 under +<sub>6</sub> is 5 because 1 +<sub>6</sub> 5 = 0, and 0 is the identity under +<sub>6</sub>.","rt":995,"trial_type":"feedback","trial_index":0,"trial_index_global":27,"time_elapsed":222255,"internal_chunk_id":"0-0.6-0"},{"question":"What is the inverse of 3 under +<sub>6</sub>? <br /><br /> (Remember, the inverse of an element is the thing which you combine with it to produce the identity.)","response_type":"free","response_choices":[],"correct_response":"3","response":"3","response_history":["3"],"rt":3937,"trial_type":"question","trial_index":0,"trial_index_global":28,"time_elapsed":226194,"internal_chunk_id":"0-0.6-0"},{"feedback":"Correct! The inverse of 3 under +<sub>6</sub> is 3 because 3 +<sub>6</sub> 3 = 0, and 0 is the identity under +<sub>6</sub>.","rt":1234,"trial_type":"feedback","trial_index":0,"trial_index_global":29,"time_elapsed":227430,"internal_chunk_id":"0-0.6-0"},{"question":"What is the inverse of 2 under +<sub>6</sub>? <br /><br /> (Remember, the inverse of an element is the thing which you combine with it to produce the identity.)","response_type":"free","response_choices":[],"correct_response":"4","response":"4","response_history":["4"],"rt":3096,"trial_type":"question","trial_index":0,"trial_index_global":30,"time_elapsed":230528,"internal_chunk_id":"0-0.6-0"},{"feedback":"Correct! The inverse of 2 under +<sub>6</sub> is 4 because 2 +<sub>6</sub> 4 = 0, and 0 is the identity under +<sub>6</sub>.","rt":1402,"trial_type":"feedback","trial_index":0,"trial_index_global":31,"time_elapsed":231932,"internal_chunk_id":"0-0.6-0"},{"question":"What is the invers e of 0 u nder +<sub>6</sub>? <br /><br /> (Remember, the inverse of an element is the thing which you combine with it to produce the identity.)","response_type":"free","response_choices":[],"correct_response":"0","response":"0","response_history":["6","0"],"rt":17685,"trial_type":"question","trial_index":0,"trial_index_global":32,"time_elapsed":249618,"internal_chunk_id":"0-0.6-0"},{"feedback":"Correct! The inverse of 0 under +<sub>6</sub> is 0 because 0 +<sub>6</sub> 0 = 0, and 0 is the identity under +<sub>6</sub>.","rt":3350,"trial_type":"feedback","trial_index":0,"trial_index_global":33,"time_elapsed":252970,"internal_chunk_id":"0-0.6-0"},{"instructions":"It is also possible to successively apply +<sub>6</sub>, and the operation can simply be performed starting with the left-most pair. For example, 2 +<sub>6</sub> 3 +<sub>6</sub> 4 = 5 +<sub>6</sub> 4 = 3.","rt":26216,"trial_type":"instructions","trial_index":0,"trial_index_global":34,"time_elapsed":279188,"internal_chunk_id":"0- 0"},{"instructions":"We have one last definition to learn today, using the successive operations we just learned. Let's start with an example. Under our operation +<sub>6</sub> we can make every other number using just 1: 2 = 1 +<sub>6</sub> 1, 3 = 1 +<sub>6</sub> 1 +<sub>6</sub> 1, 4 = 1 +<sub>6</sub> 1 +<sub>6</sub> 1 +<sub>6</sub> 1, 5 = 1 +<sub>6</sub> 1 +<sub>6</sub> 1 +<sub>6</sub> 1 +<sub>6</sub> 1, and 0 = 1 +<sub>6</sub> 1 +<sub>6</sub> 1 +<sub>6</sub> 1 +<sub>6</sub> 1 +<sub>6</sub> 1. Because of this, we say that 1 is a <i>generator</i> under +<sub>6</sub>. <br /><br /> However, 2 is not a generator under +<sub>6</sub>, because 4 = 2 +<sub>6</sub> 2, and 0 = 2 +<sub>6</sub> 2 +<sub>6</sub> 2, but there is no way to make 1, 3, or 5 using just 2.","rt":23303,"trial_type":"instructions","trial_index":0,"trial_index_global":35,"time_elapsed":302493,"internal_chunk_id":"0-0"},{"question":"Now you try! Is 3 a generator under +<sub>6</sub>? <br /><br /> (Remember, a generator is  an elem ent which can make every other element.)","response_type":"multi","response_choices":["Yes","No"],"correct_response":"No","response":"No","response_history":["No"],"rt":18595,"trial_type":"question","trial_index":0,"trial_index_global":36,"time_elapsed":321089,"internal_chunk_id":"0-0.9-0"},{"feedback":"Correct! 3 is not a generator under +<sub>6</sub>, because 3 = 3, 0 = 3 +<sub>6</sub> 3, but there is no way to make 1, 2, 4, or 5 using just 3.","rt":2178,"trial_type":"feedback","trial_index":0,"trial_index_global":37,"time_elapsed":323268,"internal_chunk_id":"0-0.9-0"},{"question":"Is 5 a generator under +<sub>6</sub>? <br /><br /> (Remember, a generator is an element which can make every other element.)","response_type":"multi","response_choices":["Yes","No"],"correct_response":"Yes","response":"Yes","response_history":["Yes"],"rt":37479,"trial_type":"question","trial_index":0,"trial_index_global":38,"time_elapsed":360749,"internal_chunk_id":"0-0.9-0"},{"feedback":"Correc t! 5 is  a generator under +<sub>6</sub>, because 5 = 5, 4 = 5 +<sub>6</sub> 5, 3 = 5 +<sub>6</sub> 5 +<sub>6</sub> 5, 2 = 5 +<sub>6</sub> 5 +<sub>6</sub> 5 +<sub>6</sub> 5, 1 = 5 +<sub>6</sub> 5 +<sub>6</sub> 5 +<sub>6</sub> 5 +<sub>6</sub> 5, and 0 = 5 +<sub>6</sub> 5 +<sub>6</sub> 5 +<sub>6</sub> 5 +<sub>6</sub> 5 +<sub>6</sub> 5, so you can make all of the numbers under +<sub>6</sub> using 5","rt":2227,"trial_type":"feedback","trial_index":0,"trial_index_global":39,"time_elapsed":362977,"internal_chunk_id":"0-0.9-0"},{"question":"Is 4 a generator under +<sub>6</sub>? <br /><br /> (Remember, a generator is an element which can make every other element.)","response_type":"multi","response_choices":["Yes","No"],"correct_response":"No","response":"No","response_history":["No"],"rt":7429,"trial_type":"question","trial_index":0,"trial_index_global":40,"time_elapsed":370407,"internal_chunk_id":"0-0.9-0"},{"feedback":"Correct! 4 is not a generator under +<sub>6</sub>, because 4 = 4, 2 =  4 +<sub> 6</sub> 4, and 0 = 4 +<sub>6</sub> 4 +<sub>6</sub> 4, but there is no way to make 1, 3, or 5 using just 4.","rt":1590,"trial_type":"feedback","trial_index":0,"trial_index_global":41,"time_elapsed":371998,"internal_chunk_id":"0-0.9-0"},{"question":"Is 0 a generator under +<sub>6</sub>? <br /><br /> (Remember, a generator is an element which can make every other element.)","response_type":"multi","response_choices":["Yes","No"],"correct_response":"No","response":"No","response_history":["No"],"rt":5521,"trial_type":"question","trial_index":0,"trial_index_global":42,"time_elapsed":377520,"internal_chunk_id":"0-0.9-0"},{"feedback":"Correct! 0 is not a generator under +<sub>6</sub>, because 0 = 0, but there is no way to make 1, 2, 3, 4, or 5 using just 0.","rt":1937,"trial_type":"feedback","trial_index":0,"trial_index_global":43,"time_elapsed":379458,"internal_chunk_id":"0-0.9-0"},{"instructions":"Now we are going to ask you some questions about a new operation, +<sub>9</sub>, on  the num bers 0, 1, 2, 3, 4, 5, 6, 7, 8. It works exactly like +<sub>6</sub>, except now after adding the two numbers you subtract 9 if your result is 9 or greater. <br /><br />We'll give you one practice question with feedback to make sure you understand the new operation. After that, try to complete the remaining questions as accurately as possible.","rt":26773,"trial_type":"instructions","trial_index":0,"trial_index_global":44,"time_elapsed":406231,"internal_chunk_id":"0-0"},{"question":"Practice: What is 5 +<sub>9</sub> 5?","response_type":"free","response_choices":[],"correct_response":"1","response":"1","response_history":["1"],"rt":4223,"trial_type":"question","trial_index":0,"trial_index_global":45,"time_elapsed":410455,"internal_chunk_id":"0-0.11-0"},{"feedback":"Correct! 5 +<sub>9</sub> 5 = 1 because 5 + 5 = 10 and 10 - 9 = 1.","rt":1579,"trial_type":"feedback","trial_index":0,"trial_index_global":46,"time_elapsed":412035,"internal_chunk_id":"0-0.11-0"},{"question":"What is  3 +<sub >9</sub> 3?","response_type":"free","response_choices":[],"correct_response":"6","response":"6","response_history":["6"],"rt":3723,"trial_type":"question","trial_index":0,"trial_index_global":47,"time_elapsed":415758,"internal_chunk_id":"0-0.11-0"},{"question":"What is 7 +<sub>9</sub> 4?","response_type":"free","response_choices":[],"correct_response":"2","response":"2","response_history":["2"],"rt":5888,"trial_type":"question","trial_index":0,"trial_index_global":48,"time_elapsed":421647,"internal_chunk_id":"0-0.11-0"},{"question":"What is 1 +<sub>9</sub> 8?","response_type":"free","response_choices":[],"correct_response":"0","response":"0","response_history":["0"],"rt":3093,"trial_type":"question","trial_index":0,"trial_index_global":49,"time_elapsed":424741,"internal_chunk_id":"0-0.11-0"},{"question":"What is 5 +<sub>9</sub> 4?","response_type":"free","response_choices":[],"correct_response":"0","response":"0","response_history":["0"],"rt":8605,"trial_type":"question","trial_index":0,"trial_index_global":50,"time_elapsed":433347,"internal_chunk_id":"0-0.11-0"},{"question":"What is 6 +<sub>9</sub> 6?","response_type":"free","response_choices":[],"correct_response":"3","response":"3","response_history":["3"],"rt":4232,"trial_type":"question","trial_index":0,"trial_index_global":51,"time_elapsed":437580,"internal_chunk_id":"0-0.11-0"},{"question":"What is 4 +<sub>9</sub> 1? Please explain in words how you got your answer.","response_type":"free","response_choices":[],"correct_response":"","response":"5, add the numbers, if less than 9 leave alone, if greater than or equal to 9, subtract 9. In this case the sum is 5, that is less than 9, so leave alone.","response_history":["ad ","add the nu","5 ","5, add the numbers, if less than 9 leave along","5, add the numbers, if less than 9 leave alone, if greater than or equal to 9, subtract nine","5, add the numbers, if less than 9 leave alone, if greater than or equal to 9, subtract nin","5, add the numbers, i f less t han 9 leave alone, if greater than or equal to 9, subtract ni","5, add the numbers, if less than 9 leave alone, if greater than or equal to 9, subtract n","5, add the numbers, if less than 9 leave alone, if greater than or equal to 9, subtract 9. In this case 5","5, add the numbers, if less than 9 leave alone, if greater than or equal to 9, subtract 9. In this case the sum is 5, that is less than 9, so leave along","5, add the numbers, if less than 9 leave alone, if greater than or equal to 9, subtract 9. In this case the sum is 5, that is less than 9, so leave alone."],"rt":58413,"trial_type":"question","trial_index":0,"trial_index_global":52,"time_elapsed":495995,"internal_chunk_id":"0-0.11-0"},{"question":"What is 8 +<sub>9</sub> 4? Please explain in words how you got your answer.","response_type":"free","response_choices":[],"correct_response":"","response":"3, sum the numbers, if less than 9 leave alone, if greater than or equal to 9, subtract nine. The sum is 12, that  is great er than 9, so subtract 9, the answer is 3.","response_history":["3, a","3, sum the numbers, if less than 9 leave alone, if greater that","3, sum the numbers, if less than 9 leave alone, if greater than or e3","3, sum the numbers, if less than 9 leave alone, if greater than or equal to 9, subtranc","3, sum the numbers, if less than 9 leave alone, if greater than or equal to 9, subtran","3, sum the numbers, if less than 9 leave alone, if greater than or equal to 9, subtract nine, t","3, sum the numbers, if less than 9 leave alone, if greater than or equal to 9, subtract nine, in this case","3, sum the numbers, if less than 9 leave alone, if greater than or equal to 9, subtract nine, in this cas","3, sum the numbers, if less than 9 leave alone, if greater than or equal to 9, subtract nine, in this ca","3, sum the numbers, if less than 9 leave alone, if greater than or equal to 9, subtract nine, in this c","3, sum the numbers, if less than 9 leave alone, if greater than or equal  to 9, s ubtract nine, in this ","3, sum the numbers, if less than 9 leave alone, if greater than or equal to 9, subtract nine, in this","3, sum the numbers, if less than 9 leave alone, if greater than or equal to 9, subtract nine, in thi","3, sum the numbers, if less than 9 leave alone, if greater than or equal to 9, subtract nine, in th","3, sum the numbers, if less than 9 leave alone, if greater than or equal to 9, subtract nine, in t","3, sum the numbers, if less than 9 leave alone, if greater than or equal to 9, subtract nine, in ","3, sum the numbers, if less than 9 leave alone, if greater than or equal to 9, subtract nine, in","3, sum the numbers, if less than 9 leave alone, if greater than or equal to 9, subtract nine, i","3, sum the numbers, if less than 9 leave alone, if greater than or equal to 9, subtract nine, ","3, sum the numbers, if less than 9 leave alone, if greater than or equal to 9, subtract nine,","3, sum the numbers, if less than 9 leave alone, if greater than  or equal  to 9, subtract nine. The sum is 12, that is gra","3, sum the numbers, if less than 9 leave alone, if greater than or equal to 9, subtract nine. The sum is 12, that is greater than 9, so bu","3, sum the numbers, if less than 9 leave alone, if greater than or equal to 9, subtract nine. The sum is 12, that is greater than 9, so b","3, sum the numbers, if less than 9 leave alone, if greater than or equal to 9, subtract nine. The sum is 12, that is greater than 9, so subtract 8","3, sum the numbers, if less than 9 leave alone, if greater than or equal to 9, subtract nine. The sum is 12, that is greater than 9, so subtract 9, the anser","3, sum the numbers, if less than 9 leave alone, if greater than or equal to 9, subtract nine. The sum is 12, that is greater than 9, so subtract 9, the anse","3, sum the numbers, if less than 9 leave alone, if greater than or equal to 9, subtract nine. The sum is 12, that is greater than 9, so subtract 9, the answer is 3."],"rt":58934,"trial_type":"quest ion","trial_index":0,"trial_index_global":53,"time_elapsed":554933,"internal_chunk_id":"0-0.11-0"},{"question":"What is the identity under +<sub>9</sub>? Please explain in words how you got your answer.","response_type":"free","response_choices":[],"correct_response":"0","response":"0, the identity is the number when added to each other number X equals X. When adding 0 to each number 0 - 8, it equals that number, so 0 is the identity","response_history":["0, the ideni","0, the identity is the number when added t oa","0, the identity is the number when added t o","0, the identity is the number when added t ","0, the identity is the number when added to all other num","0, the identity is the number when added to a","0, the identity is the number when added to each other number equals","0, the identity is the number when added to each other number equal","0, the identity is the number when added to each other number equa","0, the identity is the number when added to each other  number e qu","0, the identity is the number when added to each other number eq","0, the identity is the number when added to each other number e","0, the identity is the number when added to each other number X eu","0, the identity is the number when added to each other number X equals X. When adding 0 to each number 0 - 8 ","0, the identity is the number when added to each other number X equals X. When adding 0 to each number 0 - 8, it equals that number, so 0 is the identitiy","0, the identity is the number when added to each other number X equals X. When adding 0 to each number 0 - 8, it equals that number, so 0 is the identiti","0, the identity is the number when added to each other number X equals X. When adding 0 to each number 0 - 8, it equals that number, so 0 is the identitu","0, the identity is the number when added to each other number X equals X. When adding 0 to each number 0 - 8, it equals that number, so 0 is the identity"],"rt":72080,"trial_type":"question","trial_index":0,"trial_index_global":54,"time_elapsed":627015,"internal_chunk_id":"0-0.11-0"},{"question":"What is the inverse of 5 under +<sub>9</sub>?","response_type":"free","response_choices":[],"correct_response":"4","response":"4, the inverse of a number X is the number when added to X equals the identity, 0. If we add 4 to 5 we get 9, that is greater than or equal to 9, so we subtract 9, equals 0.","response_history":["4, the invesre","4, the invesr","4, the invese ","4, the invese","4, the inves","4, the inverce","4, the inverc","4, the inverse of a number is the number add","4, the inverse of a number is the number ad","4, the inverse of a number X is the number when added to X q","4, the inverse of a number X is the number when added to X d","4, the inverse of a number X is the number when added to X eu","4, the inverse of a number X is the number when added to X equals the identity.","4, the inverse of a number X is the number when added to X equals the identity, 0. Since ","4, the  inverse  of a number X is the number when added to X equals the identity, 0. Since","4, the inverse of a number X is the number when added to X equals the identity, 0. Sinc","4, the inverse of a number X is the number when added to X equals the identity, 0. Sin","4, the inverse of a number X is the number when added to X equals the identity, 0. Si","4, the inverse of a number X is the number when added to X equals the identity, 0. S","4, the inverse of a number X is the number when added to X equals the identity, 0. If we add 4 to 5 we get 9, that is grea","4, the inverse of a number X is the number when added to X equals the identity, 0. If we add 4 to 5 we get 9, that is gre","4, the inverse of a number X is the number when added to X equals the identity, 0. If we add 4 to 5 we get 9, that is gr","4, the inverse of a number X is the number when added to X equals the identity, 0. If we add 4 to 5 we get 9, that is g","4, the inverse of a number X is the number when added to X equal s the id entity, 0. If we add 4 to 5 we get 9, that is e","4, the inverse of a number X is the number when added to X equals the identity, 0. If we add 4 to 5 we get 9, that is greater than or r","4, the inverse of a number X is the number when added to X equals the identity, 0. If we add 4 to 5 we get 9, that is greater than or equal to nin","4, the inverse of a number X is the number when added to X equals the identity, 0. If we add 4 to 5 we get 9, that is greater than or equal to ni","4, the inverse of a number X is the number when added to X equals the identity, 0. If we add 4 to 5 we get 9, that is greater than or equal to n","4, the inverse of a number X is the number when added to X equals the identity, 0. If we add 4 to 5 we get 9, that is greater than or equal to 9, so we subtract 9, equally","4, the inverse of a number X is the number when added to X equals the identity, 0. If we add 4 to 5 we get 9, that is greater than or equal to 9, so we subtract 9, equall","4, the inv erse of  a number X is the number when added to X equals the identity, 0. If we add 4 to 5 we get 9, that is greater than or equal to 9, so we subtract 9, equals ","4, the inverse of a number X is the number when added to X equals the identity, 0. If we add 4 to 5 we get 9, that is greater than or equal to 9, so we subtract 9, equals","4, the inverse of a number X is the number when added to X equals the identity, 0. If we add 4 to 5 we get 9, that is greater than or equal to 9, so we subtract 9, equal ","4, the inverse of a number X is the number when added to X equals the identity, 0. If we add 4 to 5 we get 9, that is greater than or equal to 9, so we subtract 9, equals 0."],"rt":91130,"trial_type":"question","trial_index":0,"trial_index_global":55,"time_elapsed":718149,"internal_chunk_id":"0-0.11-0"},{"question":"What is the inverse of 2 under +<sub>9</sub>?","response_type":"free","response_choices":[],"correct_response":"7","response":"7","response_history":["7"],"rt":6238,"trial_type":"question","trial_index":0,"trial_index_global":56,"time_elapsed":724390,"internal_chunk_id":"0-0.11-0"},{"question":"What is the inverse of 3 under +<sub>9</sub>? Please explain in words how you got your answer.","response_type":"free","response_choices":[],"correct_response":"","response":"6, the inverse is a number when added to a number X, equals the identity, 0. 3 plus 6 equals 9, that is greater or equal to 9 so we subtract 9, answer is 0","response_history":["6, the inves","6, the inverse is the number ","6, the inverse is the number","6, the inverse is t","6, the inverse is a number when added to ","6, the inverse is a number ","6, the inverse is a number","6, the inverse is a number when added to another number ","6, the inverse is a number when added to anothe","6, the inverse is a number when added to anoth","6, the inverse is a number when added to anot","6, the inverse is a number when added to ano","6, the inverse is a number when added to an","6, the inverse  is a num ber when added to a number X, equals the identity.","6, the inverse is a number when added to a number X, equals the identity, 0. 6 playu","6, the inverse is a number when added to a number X, equals the identity, 0. 6 play","6, the inverse is a number when added to a number X, equals the identity, 0. 6 plau","6, the inverse is a number when added to a number X, equals the identity, 0. 6 pla","6, the inverse is a number when added to a number X, equals the identity, 0. 6 pl","6, the inverse is a number when added to a number X, equals the identity, 0. 6 p","6, the inverse is a number when added to a number X, equals the identity, 0. 6 ","6, the inverse is a number when added to a number X, equals the identity, 0. 6","6, the inverse is a number when added to a number X, equals the identity, 0. 3 plus 6 equals 9, that is greater to or e","6, the inverse is a number when added to a number X, equals the identity, 0. 3 plus 6 equals 9, that is greater to or ","6, the inverse is a  number  when added to a number X, equals the identity, 0. 3 plus 6 equals 9, that is greater to or","6, the inverse is a number when added to a number X, equals the identity, 0. 3 plus 6 equals 9, that is greater to o","6, the inverse is a number when added to a number X, equals the identity, 0. 3 plus 6 equals 9, that is greater to ","6, the inverse is a number when added to a number X, equals the identity, 0. 3 plus 6 equals 9, that is greater to or e","6, the inverse is a number when added to a number X, equals the identity, 0. 3 plus 6 equals 9, that is greater to or ","6, the inverse is a number when added to a number X, equals the identity, 0. 3 plus 6 equals 9, that is greater to or","6, the inverse is a number when added to a number X, equals the identity, 0. 3 plus 6 equals 9, that is greater to o","6, the inverse is a number when added to a number X, equals the identity, 0. 3 plus 6 equals 9, that is greater to ","6, the inverse is a number when added to a number X, equals  the ide ntity, 0. 3 plus 6 equals 9, that is greater to","6, the inverse is a number when added to a number X, equals the identity, 0. 3 plus 6 equals 9, that is greater t","6, the inverse is a number when added to a number X, equals the identity, 0. 3 plus 6 equals 9, that is greater ","6, the inverse is a number when added to a number X, equals the identity, 0. 3 plus 6 equals 9, that is greater or equal to 9 so we w","6, the inverse is a number when added to a number X, equals the identity, 0. 3 plus 6 equals 9, that is greater or equal to 9 so we subtract 9, answer is 0"],"rt":89266,"trial_type":"question","trial_index":0,"trial_index_global":57,"time_elapsed":813658,"internal_chunk_id":"0-0.11-0"},{"question":"Is 2 a generator under +<sub>9</sub>? Please explain in words how you got your answer.","response_type":"free","response_choices":[],"correct_response":"","response":"yes, checked all cases, 2 = 2, 2+2=4, 2+2+2=6, 2+2+2+2=8, 2+2+2+2+2=1, etc. 3, 5, 7, 0","response_history":["2 =  2, 2+1","2 = 2, 2+2 =","2 = 2, 2+2 ","2 = 2, 2+2=4, @+","2 = 2, 2+2=4, @","2 = 2, 2+2=4, @+@+","2 = 2, 2+2=4, @+@","2 = 2, 2+2=4, @+","2 = 2, 2+2=4, @","2 = 2, 2+2=4, ","2 = 2, 2+2=4, 2+2+2=6, 2+2+2+2+","2 = 2, 2+2=4, 2+2+2=6, 2+2+2+2=8, 2+2+2+2+2=1, 3, 5, 7, 0","2 = 2, 2+2=4, 2+2+2=6, 2+2+2+2=8, 2+2+2+2+2=1, 33, 5, 7, 0","2 = 2, 2+2=4, 2+2+2=6, 2+2+2+2=8, 2+2+2+2+2=1, 3t3, 5, 7, 0","2 = 2, 2+2=4, 2+2+2=6, 2+2+2+2=8, 2+2+2+2+2=1, 3tc3, 5, 7, 0","2 = 2, 2+2=4, 2+2+2=6, 2+2+2+2=8, 2+2+2+2+2=1, 3tc.3, 5, 7, 0","2 = 2, 2+2=4, 2+2+2=6, 2+2+2+2=8, 2+2+2+2+2=1, 3tc. 3, 5, 7, 0","2 = 2, 2+2=4, 2+2+2=6, 2+2+2+2=8, 2+2+2+2+2=1, 3tc.3, 5, 7, 0","2 = 2, 2+2=4, 2+2+2=6, 2+2+2+2=8, 2+2+2+2+2=1, 3tc3, 5, 7, 0","2 = 2, 2+2=4, 2+2+2=6, 2+2+2+2=8, 2+2+2+2+2=1, 3t3, 5, 7, 0","2 = 2, 2+2=4, 2+2+2=6, 2+2+2+2=8, 2+2+2+2+2=1, 33, 5, 7, 0","2 = 2, 2+2=4, 2+2+2=6, 2+2+2+2=8, 2+2+2+2+2=1, 3, 5, 7, 0","2 = 2, 2+2=4, 2+2+2=6, 2+2+2+2=8, 2+2+2+2+2=1, e3, 5, 7, 0","2 = 2, 2+2=4, 2+2+2=6, 2+2+2+2=8, 2+2+2 +2+2=1,  et3, 5, 7, 0","2 = 2, 2+2=4, 2+2+2=6, 2+2+2+2=8, 2+2+2+2+2=1, etc3, 5, 7, 0","2 = 2, 2+2=4, 2+2+2=6, 2+2+2+2=8, 2+2+2+2+2=1, etc.3, 5, 7, 0","2 = 2, 2+2=4, 2+2+2=6, 2+2+2+2=8, 2+2+2+2+2=1, etc. 3, 5, 7, 0","y2 = 2, 2+2=4, 2+2+2=6, 2+2+2+2=8, 2+2+2+2+2=1, etc. 3, 5, 7, 0","ye2 = 2, 2+2=4, 2+2+2=6, 2+2+2+2=8, 2+2+2+2+2=1, etc. 3, 5, 7, 0","yes2 = 2, 2+2=4, 2+2+2=6, 2+2+2+2=8, 2+2+2+2+2=1, etc. 3, 5, 7, 0","yes,2 = 2, 2+2=4, 2+2+2=6, 2+2+2+2=8, 2+2+2+2+2=1, etc. 3, 5, 7, 0","yes, 2 = 2, 2+2=4, 2+2+2=6, 2+2+2+2=8, 2+2+2+2+2=1, etc. 3, 5, 7, 0","yes, c2 = 2, 2+2=4, 2+2+2=6, 2+2+2+2=8, 2+2+2+2+2=1, etc. 3, 5, 7, 0","yes, ch2 = 2, 2+2=4, 2+2+2=6, 2+2+2+2=8, 2+2+2+2+2=1, etc. 3, 5, 7, 0","yes, che2 = 2, 2+2=4, 2+2+2=6, 2+2+2+2=8, 2+2+2+2+2=1, etc. 3, 5, 7, 0","yes, chec2 = 2, 2+2=4, 2+2+2=6, 2+2+2+2=8, 2+2+2+2+2=1, etc. 3, 5, 7, 0","yes, checke2 = 2, 2+2=4, 2+2+2=6, 2+2+2+2=8, 2+2+2+2+2=1, etc. 3, 5, 7, 0","yes, checked2 = 2, 2+2=4, 2+2+2=6, 2+2+2+2=8, 2+2+2+2+2=1, etc. 3, 5, 7, 0","yes, ch ecked 2 = 2, 2+2=4, 2+2+2=6, 2+2+2+2=8, 2+2+2+2+2=1, etc. 3, 5, 7, 0","yes, checked a2 = 2, 2+2=4, 2+2+2=6, 2+2+2+2=8, 2+2+2+2+2=1, etc. 3, 5, 7, 0","yes, checked al2 = 2, 2+2=4, 2+2+2=6, 2+2+2+2=8, 2+2+2+2+2=1, etc. 3, 5, 7, 0","yes, checked all2 = 2, 2+2=4, 2+2+2=6, 2+2+2+2=8, 2+2+2+2+2=1, etc. 3, 5, 7, 0","yes, checked all 2 = 2, 2+2=4, 2+2+2=6, 2+2+2+2=8, 2+2+2+2+2=1, etc. 3, 5, 7, 0","yes, checked all ca2 = 2, 2+2=4, 2+2+2=6, 2+2+2+2=8, 2+2+2+2+2=1, etc. 3, 5, 7, 0","yes, checked all case2 = 2, 2+2=4, 2+2+2=6, 2+2+2+2=8, 2+2+2+2+2=1, etc. 3, 5, 7, 0","yes, checked all cases2 = 2, 2+2=4, 2+2+2=6, 2+2+2+2=8, 2+2+2+2+2=1, etc. 3, 5, 7, 0","yes, checked all cases,2 = 2, 2+2=4, 2+2+2=6, 2+2+2+2=8, 2+2+2+2+2=1, etc. 3, 5, 7, 0","yes, checked all cases, 2 = 2, 2+2=4, 2+2+2=6, 2+2+2+2=8, 2+2+2+2+2=1, etc. 3, 5, 7, 0"],"rt":157723,"trial_type":"question","trial_index":0,"trial_index_global":58,"time_elapsed":971384,"internal_chunk_id":"0-0.11-0"},{"question":"Is 3 a generator un der +<su b>9</sub>? Please explain in words how you got your answer.","response_type":"free","response_choices":[],"correct_response":"","response":"No, 3, 6, 0, 3 ... keeps cycling no 1,4,5,7,8","response_history":["3, 9","3, 6, 0, 3","N3, 6, 0, 3","No3, 6, 0, 3","No,3, 6, 0, 3","No, 3, 6, 0, 3 ... keeps cycling no 1,5,7, or","No, 3, 6, 0, 3 ... keeps cycling no 1,5,7, o","No, 3, 6, 0, 3 ... keeps cycling no 1,5,7, ","No, 3, 6, 0, 3 ... keeps cycling no 1,5,7,","No, 3, 6, 0, 3 ... keeps cycling no 1,5,7","No, 3, 6, 0, 3 ... keeps cycling no 1,5,","No, 3, 6, 0, 3 ... keeps cycling no 1,5","No, 3, 6, 0, 3 ... keeps cycling no 1,4,5,7,8"],"rt":48237,"trial_type":"question","trial_index":0,"trial_index_global":59,"time_elapsed":1019623,"internal_chunk_id":"0-0.11-0"},{"question":"Is 5 a generator under +<sub>9</sub>? Please explain in words how you got your answer.","response_type":"free","response_choices":[],"correct_response":"","response":"yes, checked all cases, 5, 1, 6, 2, 7, 3, 8 , 4","response_history":["5, 1, 6, 2, 7, 3, 8, 4","ye5, 1, 6, 2, 7, 3, 8, 4","yes5, 1, 6, 2, 7, 3, 8, 4","yes,5, 1, 6, 2, 7, 3, 8, 4","yes, 5, 1, 6, 2, 7, 3, 8, 4","yes, c5, 1, 6, 2, 7, 3, 8, 4","yes, che5, 1, 6, 2, 7, 3, 8, 4","yes, chec5, 1, 6, 2, 7, 3, 8, 4","yes, checke5, 1, 6, 2, 7, 3, 8, 4","yes, checked5, 1, 6, 2, 7, 3, 8, 4","yes, checked 5, 1, 6, 2, 7, 3, 8, 4","yes, checked a5, 1, 6, 2, 7, 3, 8, 4","yes, checked al5, 1, 6, 2, 7, 3, 8, 4","yes, checked all5, 1, 6, 2, 7, 3, 8, 4","yes, checked all 5, 1, 6, 2, 7, 3, 8, 4","yes, checked all ca5, 1, 6, 2, 7, 3, 8, 4","yes, checked all case5, 1, 6, 2, 7, 3, 8, 4","yes, checked all cases5, 1, 6, 2, 7, 3, 8, 4","yes, checked all cases, 5, 1, 6, 2, 7, 3, 8, 4"],"rt":56195,"trial_type":"question","trial_index":0,"trial_index_global":60,"time_elapsed":1075822,"internal_chunk_id":"0-0.11-0"},{"question":"Is 6 a generator under +<sub>9</sub>? Please explain in words how you got your answer.","response_type":"free","response_choices":[],"correct_response":"","response":"no, 6, 3, 0, 6, 3, 0 keeps cycling leaves out 1,2,4,5,7,8","response_history":["6, 3, 0, 6, 3, 0 kees","6, 3, 0, 6, 3, 0 keeps cycling leaves out 1,2,4,5,7,8","n6, 3, 0, 6, 3, 0 keeps cycling leaves out 1,2,4,5,7,8","no6, 3, 0, 6, 3, 0 keeps cycling leaves out 1,2,4,5,7,8","no,6, 3, 0, 6, 3, 0 keeps cycling leaves out 1,2,4,5,7,8","no, 6, 3, 0, 6, 3, 0 keeps cycling leaves out 1,2,4,5,7,8"],"rt":33847,"trial_type":"question","trial_index":0,"trial_index_global":61,"time_elapsed":1109671,"internal_chunk_id":"0-0.11-0"},{"instructions":"Now we'd like to ask you some questions about +<sub>n</sub>, where n could be any postive counting number. For example, n could be 3, or n could be any other counting number you can think of. If you need to write the operation, you can use \"+_n\", and your answers can include n to stand in for the arbitrary value if necessary.","rt":23443,"trial_type":"instructions","trial_index":0,"trial_index_global":62,"time_elapsed":1133115,"internal_chunk_id":"0-0"},{"question":"What is the formula for the inverse of 1 under +<sub>n</sub>?","response_type":"free","response_choices":[],"correct_response":"n-1","response":"Inverse of 1 = N - 1","response_history":["Inverse of 1 = 1 + (","X = 1","X = N -1","X = N - 1","I = N - 1","In = N - 1","Inv = N - 1","Inver = N - 1","Inverse = N - 1","Inverse  = N - 1","Inverse of = N - 1","Inverse of  = N - 1","Inverse of z = N - 1","Inverse of  = N - 1","Inverse of 1 = N - 1"],"rt":149947,"trial_type":"question","trial_index":0,"trial_index_global":63,"time_elapsed":1283064,"internal_chunk_id":"0-0.13-0"},{"question":"What is the formula for the inverse of an element x under +<sub>n</sub>? Please explain in words how you got your answer.","response_type":"free","response_choices":[],"correct_response":"n-x","response":"IX = N - X, the inverse is the number added to X that when summed equals the identity, 0. The identity is also equal to N, since N is equal or greate r than N , so we subtract N when N is an answer. So we want X and IX to equal N, subtract X from both sides and you get my formula","response_history":["IX = N - X, the inverse is the number added to N","IX = N - X, the inverse is the number added to ","IX = N - X, the inverse is the number added to X to make ","IX = N - X, the inverse is the number added to X to make","IX = N - X, the inverse is the number added to X to mak","IX = N - X, the inverse is the number added to X to ma","IX = N - X, the inverse is the number added to X to m","IX = N - X, the inverse is the number added to X to ","IX = N - X, the inverse is the number added to X to","IX = N - X, the inverse is the number added to X t","IX = N - X, the inverse is the number added to X that ","IX = N - X, the inverse is the number added to X that","IX = N - X, the inverse is the number added to X that when sumed ","IX = N - X, the inverse is the number added to X that when sumed","IX = N - X, the inverse is the number added  to X tha t when sume","IX = N - X, the inverse is the number added to X that when summed equal ","IX = N - X, the inverse is the number added to X that when summed equals the identity, 0. The d","IX = N - X, the inverse is the number added to X that when summed equals the identity, 0. The identitiy","IX = N - X, the inverse is the number added to X that when summed equals the identity, 0. The identiti","IX = N - X, the inverse is the number added to X that when summed equals the identity, 0. The identity is also equal to N, sinc ","IX = N - X, the inverse is the number added to X that when summed equals the identity, 0. The identity is also equal to N, since N is equal to g","IX = N - X, the inverse is the number added to X that when summed equals the identity, 0. The identity is also equal to N, since N is equal to ","IX = N - X, the inverse is the number added to X that when summed equals the identity, 0. The identity is also equal to N, since N is equal to","IX = N - X, the invers e is the  number added to X that when summed equals the identity, 0. The identity is also equal to N, since N is equal t","IX = N - X, the inverse is the number added to X that when summed equals the identity, 0. The identity is also equal to N, since N is equal ","IX = N - X, the inverse is the number added to X that when summed equals the identity, 0. The identity is also equal to N, since N is equalo","IX = N - X, the inverse is the number added to X that when summed equals the identity, 0. The identity is also equal to N, since N is equal or e","IX = N - X, the inverse is the number added to X that when summed equals the identity, 0. The identity is also equal to N, since N is equal or greater than N, so we subtranc","IX = N - X, the inverse is the number added to X that when summed equals the identity, 0. The identity is also equal to N, since N is equal or greater than N, so we subtran","IX = N - X, the inverse is the number added to X that when summed equals the identity, 0. T he ident ity is also equal to N, since N is equal or greater than N, so we subtract N if ","IX = N - X, the inverse is the number added to X that when summed equals the identity, 0. The identity is also equal to N, since N is equal or greater than N, so we subtract N if","IX = N - X, the inverse is the number added to X that when summed equals the identity, 0. The identity is also equal to N, since N is equal or greater than N, so we subtract N i","IX = N - X, the inverse is the number added to X that when summed equals the identity, 0. The identity is also equal to N, since N is equal or greater than N, so we subtract N ","IX = N - X, the inverse is the number added to X that when summed equals the identity, 0. The identity is also equal to N, since N is equal or greater than N, so we subtract N when N is that ","IX = N - X, the inverse is the number added to X that when summed equals the identity, 0. The identity is also equal to N, since N is equal or greater than N, so we subtrac t N when  N is that","IX = N - X, the inverse is the number added to X that when summed equals the identity, 0. The identity is also equal to N, since N is equal or greater than N, so we subtract N when N is tha","IX = N - X, the inverse is the number added to X that when summed equals the identity, 0. The identity is also equal to N, since N is equal or greater than N, so we subtract N when N is th","IX = N - X, the inverse is the number added to X that when summed equals the identity, 0. The identity is also equal to N, since N is equal or greater than N, so we subtract N when N is t","IX = N - X, the inverse is the number added to X that when summed equals the identity, 0. The identity is also equal to N, since N is equal or greater than N, so we subtract N when N is an asn","IX = N - X, the inverse is the number added to X that when summed equals the identity, 0. The identity is also equal to N, since N is equal or greater than N, so we subtract N when N is an as","IX = N - X, th e invers e is the number added to X that when summed equals the identity, 0. The identity is also equal to N, since N is equal or greater than N, so we subtract N when N is an answer, so N = )","IX = N - X, the inverse is the number added to X that when summed equals the identity, 0. The identity is also equal to N, since N is equal or greater than N, so we subtract N when N is an answer, so N = ","IX = N - X, the inverse is the number added to X that when summed equals the identity, 0. The identity is also equal to N, since N is equal or greater than N, so we subtract N when N is an answer, so N =","IX = N - X, the inverse is the number added to X that when summed equals the identity, 0. The identity is also equal to N, since N is equal or greater than N, so we subtract N when N is an answer, so N ","IX = N - X, the inverse is the number added to X that when summed equals the identity, 0. The identity is also equal to N, since N is equal or greater than N, so we subtract N when N is  an answ er, so N","IX = N - X, the inverse is the number added to X that when summed equals the identity, 0. The identity is also equal to N, since N is equal or greater than N, so we subtract N when N is an answer, so ","IX = N - X, the inverse is the number added to X that when summed equals the identity, 0. The identity is also equal to N, since N is equal or greater than N, so we subtract N when N is an answer, so","IX = N - X, the inverse is the number added to X that when summed equals the identity, 0. The identity is also equal to N, since N is equal or greater than N, so we subtract N when N is an answer, s","IX = N - X, the inverse is the number added to X that when summed equals the identity, 0. The identity is also equal to N, since N is equal or greater than N, so we subtract N when N is an answer, ","IX = N - X, the inverse is the number added to X that when summed equals the identity, 0. The identity is also equal to N, since N is equal or greater than N, so we subtrac t N when  N is an answer,","IX = N - X, the inverse is the number added to X that when summed equals the identity, 0. The identity is also equal to N, since N is equal or greater than N, so we subtract N when N is an answer","IX = N - X, the inverse is the number added to X that when summed equals the identity, 0. The identity is also equal to N, since N is equal or greater than N, so we subtract N when N is an answer. So we want the ","IX = N - X, the inverse is the number added to X that when summed equals the identity, 0. The identity is also equal to N, since N is equal or greater than N, so we subtract N when N is an answer. So we want the","IX = N - X, the inverse is the number added to X that when summed equals the identity, 0. The identity is also equal to N, since N is equal or greater than N, so we subtract N when N is an answer. So we want th","IX = N - X, the inverse is the number added to X that when summed equals the identity, 0. The identity is also equal to N, since N  is equa l or greater than N, so we subtract N when N is an answer. So we want t","IX = N - X, the inverse is the number added to X that when summed equals the identity, 0. The identity is also equal to N, since N is equal or greater than N, so we subtract N when N is an answer. So we want X and IX to equal N, but ","IX = N - X, the inverse is the number added to X that when summed equals the identity, 0. The identity is also equal to N, since N is equal or greater than N, so we subtract N when N is an answer. So we want X and IX to equal N, but","IX = N - X, the inverse is the number added to X that when summed equals the identity, 0. The identity is also equal to N, since N is equal or greater than N, so we subtract N when N is an answer. So we want X and IX to equal N, bu","IX = N - X, the inverse is the number added to X that when summed equals the identity, 0. The identity is also equal to N, since N is equal or greater than N, so we subtract N when N is an answer. So we want X  and IX t o equal N, b","IX = N - X, the inverse is the number added to X that when summed equals the identity, 0. The identity is also equal to N, since N is equal or greater than N, so we subtract N when N is an answer. So we want X and IX to equal N, subtract X from both sides ","IX = N - X, the inverse is the number added to X that when summed equals the identity, 0. The identity is also equal to N, since N is equal or greater than N, so we subtract N when N is an answer. So we want X and IX to equal N, subtract X from both sides and you get my formua","IX = N - X, the inverse is the number added to X that when summed equals the identity, 0. The identity is also equal to N, since N is equal or greater than N, so we subtract N when N is an answer. So we want X and IX to equal N, subtract X from both sides and you get my formula"],"rt":158711,"trial_type":"question","trial_index":0,"trial_index_global":64,"time_elapsed":1441778,"internal_chunk_id":"0-0.13-0"},{"question":"Is there a  pattern  to which elements are generators? How can you know if an element x is a generator under +<sub>n</sub> without seeing whether it can make all the elements?.","response_type":"free","response_choices":[],"correct_response":"","response":"Yes, 0 is a generator only if n = 1, 1 is a generator for all n when n > 1, 2 is a generator for all odd values of n > 3, N-1 is always a generator, there are probably a few others.","response_history":["YEs,","YEs","YE","Yi","Yes, intuition. No just kidding. ","Yes, intuition. No, just kidding. 0 never","Yes, intuition. No, just kidding. 0 neve","Yes, intuition. No, just kidding. 0 nev","Yes, intuition. No, just kidding. 0 ne","Yes, intuition. No, just kidding. 0 n","Yes, intuition. No, just kidding. 0 is only if n = 0 ","Yes, intuition. No, just kidding. 0 is only if n = 0, 1 always is a generati","Yes, intuition. No, just kidding. 0 is only if n = 0, 1 always is a generator no matter ","Yes, intuition. No, just kidding. 0 is only if n = 0,  1 alway s is a generator no ","Yes, intuition. No, just kidding. 0 is only if n = 0, 1 always is a generator no","Yes, intuition. No, just kidding. 0 is only if n = 0, 1 a","Yes, intuition. No, just kidding. 0 is only if n = 0, 1 isa ","Yes, intuition. No, just kidding. 0 is only if n = 0, 1 isa","Yes, intuition. No, just kidding. 0 is only if n = 0, 1 is a generator for all N, ","Yes, intuition. No, just kidding. 0 is only if n = 0, 1 is a generator for all N,","Yes, intuition. No, just kidding. 0 is only if n = 0, 1 is a generator for all N","Yes, intuition. No, just kidding. 0 is only if n = 0, 1 is a generator for all ","Yes, intuition. No, just kidding. 0 is only if n = 0, 1 is a generator for all n, ","Yes, intuition. No, just kidding. 0 is only if n = 0, 1 is a generator for all n,","Yes, intuition. No, just kidding. 0 is only if n = 0, 1 is a generator for all n","Yes, intuition. No, just kidding. 0 is only if n = 0, 1 is a generator for all n ","Yes, intuition. No, just kid ding. 0  is only if n = 0, 1 is a generator for all n when n is >","Yes, intuition. No, just kidding. 0 is only if n = 0, 1 is a generator for all n when n is ","Yes, intuition. No, just kidding. 0 is only if n = 0, 1 is a generator for all n when n is","Yes, intuition. No, just kidding. 0 is only if n = 0, 1 is a generator for all n when n i","Yes, intuition. No, just kidding. 0 is only if n = 0, 1 is a generator for all n when n > 0, 2","Yes, intuition. No, just kidding. 0 is only if n = , 1 is a generator for all n when n > 0, 2","Yes, intuition. No, just kidding. 0 is only if n = 1, 1 is a generator for all n when n > 0, 2","Yes, intuition. No, just kidding. 0 is only if n = 1, 1 is a generator for all n when n > , 2","Yes, intuition. No, just kidding. 0 is only if n = 1, 1 is a generator for all n when n > 1, 2 is a generator for ll","Yes, intuition. No, just kidding. 0 is only if n = 1, 1 is a generator for all n when n > 1, 2 is a generator for l","Yes, intuition. No, just kid ding. 0  is only if n = 1, 1 is a generator for all n when n > 1, 2 is a generator for all odd u","Yes, intuition. No, just kidding. 0 is only if n = 1, 1 is a generator for all n when n > 1, 2 is a generator for all odd numbers","Yes, intuition. No, just kidding. 0 is only if n = 1, 1 is a generator for all n when n > 1, 2 is a generator for all odd number","Yes, intuition. No, just kidding. 0 is only if n = 1, 1 is a generator for all n when n > 1, 2 is a generator for all odd numbe","Yes, intuition. No, just kidding. 0 is only if n = 1, 1 is a generator for all n when n > 1, 2 is a generator for all ","Yes, intuition. No, just kidding. 0 is only if n = 1, 1 is a generator for all n when n > 1, 2 is a generator for all","Yes, intuition. No, just kidding. 0 is only if n = 1, 1 is a generator for all n when n > 1, 2 is a generator for al","Yes, intuition. No, just kidding. 0 is only if n = 1, 1 is a generator for all n when n > 1, 2 is a generator for a","Yes, intuition. No, just kid ding. 0  is only if n = 1, 1 is a generator for all n when n > 1, 2 is a generator for ","Yes, intuition. No, just kidding. 0 is only if n = 1, 1 is a generator for all n when n > 1, 2 is a generator for","Yes, intuition. No, just kidding. 0 is only if n = 1, 1 is a generator for all n when n > 1, 2 is a generator fo","Yes, intuition. No, just kidding. 0 is only if n = 1, 1 is a generator for all n when n > 1, 2 is a generator for all odd values of n, ","Yes, intuition. No, just kidding. 0 is aonly if n = 1, 1 is a generator for all n when n > 1, 2 is a generator for all odd values of n, ","Yes, intuition. No, just kidding. 0 is a only if n = 1, 1 is a generator for all n when n > 1, 2 is a generator for all odd values of n, ","Yes, intuition. No, just kidding. 0 is a gonly if n = 1, 1 is a generator for all n when n > 1, 2 is a generator for all odd values of n, ","Yes, intuition. No, just kidding. 0 is a geonly if n = 1, 1 is a generator for all n when n > 1, 2 is a generator for a ll odd v alues of n, ","Yes, intuition. No, just kidding. 0 is a genonly if n = 1, 1 is a generator for all n when n > 1, 2 is a generator for all odd values of n, ","Yes, intuition. No, just kidding. 0 is a generonly if n = 1, 1 is a generator for all n when n > 1, 2 is a generator for all odd values of n, ","Yes, intuition. No, just kidding. 0 is a generaonly if n = 1, 1 is a generator for all n when n > 1, 2 is a generator for all odd values of n, ","Yes, intuition. No, just kidding. 0 is a generatonly if n = 1, 1 is a generator for all n when n > 1, 2 is a generator for all odd values of n, ","Yes, intuition. No, just kidding. 0 is a generatoonly if n = 1, 1 is a generator for all n when n > 1, 2 is a generator for all odd values of n, ","Yes, intuition. No, just kidding. 0 is a generatoronly if n = 1, 1 is a generator for all n when n > 1, 2 is a generator for all odd values of n, ","Yes, intuition. No, just kidding. 0 is a generator only if n = 1, 1 is a generator for all n whe n n > 1,  2 is a generator for all odd values of n, ","Yes, intuition. No, just kidding. 0 is a generator only if n = 1, 1 is a generator for all n when n > 1, 2 is a generator for all odd values of n , ","Yes, intuition. No, just kidding. 0 is a generator only if n = 1, 1 is a generator for all n when n > 1, 2 is a generator for all odd values of n >, ","Yes, intuition. No, just kidding. 0 is a generator only if n = 1, 1 is a generator for all n when n > 1, 2 is a generator for all odd values of n > , ","Yes, intuition. No, just kidding. 0 is a generator only if n = 1, 1 is a generator for all n when n > 1, 2 is a generator for all odd values of n > 3,  ","Yes, intuition. No, just kidding. 0 is a generator only if n = 1, 1 is a generator for all n when n > 1, 2 is a generator for all odd values of n > 3, N ","Yes, intuition. No, just kidding. 0 is a generator only if n = 1, 1 is a generator for all n when n > 1, 2 is a generator for all odd values of n > 3, N- ","Yes, intuition. No,  just ki dding. 0 is a generator only if n = 1, 1 is a generator for all n when n > 1, 2 is a generator for all odd values of n > 3, N-1  ","Yes, intuition. No, just kidding. 0 is a generator only if n = 1, 1 is a generator for all n when n > 1, 2 is a generator for all odd values of n > 3, N-1 is  ","Yes, intuition. No, just kidding. 0 is a generator only if n = 1, 1 is a generator for all n when n > 1, 2 is a generator for all odd values of n > 3, N-1 is al ","Yes, intuition. No, just kidding. 0 is a generator only if n = 1, 1 is a generator for all n when n > 1, 2 is a generator for all odd values of n > 3, N-1 is alw ","Yes, intuition. No, just kidding. 0 is a generator only if n = 1, 1 is a generator for all n when n > 1, 2 is a generator for all odd values of n > 3, N-1 is alwy ","Yes, intuition. No, just kidding. 0 is a generator only if n = 1, 1 is a generator for all n when n > 1, 2 is a generator for all odd values of n > 3, N-1 is alwya ","Yes, intuition. No, just kidding.  0 is a  generator only if n = 1, 1 is a generator for all n when n > 1, 2 is a generator for all odd values of n > 3, N-1 is alwy ","Yes, intuition. No, just kidding. 0 is a generator only if n = 1, 1 is a generator for all n when n > 1, 2 is a generator for all odd values of n > 3, N-1 is alw ","Yes, intuition. No, just kidding. 0 is a generator only if n = 1, 1 is a generator for all n when n > 1, 2 is a generator for all odd values of n > 3, N-1 is alwa ","Yes, intuition. No, just kidding. 0 is a generator only if n = 1, 1 is a generator for all n when n > 1, 2 is a generator for all odd values of n > 3, N-1 is alway ","Yes, intuition. No, just kidding. 0 is a generator only if n = 1, 1 is a generator for all n when n > 1, 2 is a generator for all odd values of n > 3, N-1 is always  ","Yes, intuition. No, just kidding. 0 is a generator only if n = 1, 1 is a generator for all n when n > 1, 2 is a generator for all odd values of n > 3, N-1 is always a  ","Yes, intuition. No, just k idding.  0 is a generator only if n = 1, 1 is a generator for all n when n > 1, 2 is a generator for all odd values of n > 3, N-1 is always a g ","Yes, intuition. No, just kidding. 0 is a generator only if n = 1, 1 is a generator for all n when n > 1, 2 is a generator for all odd values of n > 3, N-1 is always a ge ","Yes, intuition. No, just kidding. 0 is a generator only if n = 1, 1 is a generator for all n when n > 1, 2 is a generator for all odd values of n > 3, N-1 is always a gen ","Yes, intuition. No, just kidding. 0 is a generator only if n = 1, 1 is a generator for all n when n > 1, 2 is a generator for all odd values of n > 3, N-1 is always a gener ","Yes, intuition. No, just kidding. 0 is a generator only if n = 1, 1 is a generator for all n when n > 1, 2 is a generator for all odd values of n > 3, N-1 is always a genera ","Yes, intuition. No, just kidding. 0 is a generator only if n = 1, 1 is a generator for all n when n > 1, 2 is a generator for all odd values of n > 3,  N-1 is a lways a generat ","Yes, intuition. No, just kidding. 0 is a generator only if n = 1, 1 is a generator for all n when n > 1, 2 is a generator for all odd values of n > 3, N-1 is always a generato ","Yes, intuition. No, just kidding. 0 is a generator only if n = 1, 1 is a generator for all n when n > 1, 2 is a generator for all odd values of n > 3, N-1 is always a generator ","Yes, intuition. No, just kidding. 0 is a generator only if n = 1, 1 is a generator for all n when n > 1, 2 is a generator for all odd values of n > 3, N-1 is always a generator,  ","Yes, intuition. No, just kidding. 0 is a generator only if n = 1, 1 is a generator for all n when n > 1, 2 is a generator for all odd values of n > 3, N-1 is always a generator, t ","Yes, intuition. No, just kidding. 0 is a generator only if n = 1, 1 is a generator for all n when n > 1, 2 is a generator for all odd values of n > 3, N-1 is always a generator, the ","Yes, intuition. No, just kidding. 0 is a generator only if n  = 1, 1 i s a generator for all n when n > 1, 2 is a generator for all odd values of n > 3, N-1 is always a generator, there  ","Yes, intuition. No, just kidding. 0 is a generator only if n = 1, 1 is a generator for all n when n > 1, 2 is a generator for all odd values of n > 3, N-1 is always a generator, there ar ","Yes, intuition. No, just kidding. 0 is a generator only if n = 1, 1 is a generator for all n when n > 1, 2 is a generator for all odd values of n > 3, N-1 is always a generator, there are  ","Yes, intuition. No, just kidding. 0 is a generator only if n = 1, 1 is a generator for all n when n > 1, 2 is a generator for all odd values of n > 3, N-1 is always a generator, there are p ","Yes, intuition. No, just kidding. 0 is a generator only if n = 1, 1 is a generator for all n when n > 1, 2 is a generator for all odd values of n > 3, N-1 is always a generator, there are pr ","Yes, intuition. No, just kidding. 0 is a generator only if n = 1, 1 is a generator for all n when n >  1, 2 is  a generator for all odd values of n > 3, N-1 is always a generator, there are pro ","Yes, intuition. No, just kidding. 0 is a generator only if n = 1, 1 is a generator for all n when n > 1, 2 is a generator for all odd values of n > 3, N-1 is always a generator, there are prob ","Yes, intuition. No, just kidding. 0 is a generator only if n = 1, 1 is a generator for all n when n > 1, 2 is a generator for all odd values of n > 3, N-1 is always a generator, there are proba ","Yes, intuition. No, just kidding. 0 is a generator only if n = 1, 1 is a generator for all n when n > 1, 2 is a generator for all odd values of n > 3, N-1 is always a generator, there are probabl ","Yes, intuition. No, just kidding. 0 is a generator only if n = 1, 1 is a generator for all n when n > 1, 2 is a generator for all odd values of n > 3, N-1 is always a generator, there are probably  ","Yes, intuition. No, just kidding. 0 is a generator only if n = 1, 1 is a generator for all n when n > 1, 2 is  a genera tor for all odd values of n > 3, N-1 is always a generator, there are probably a  ","Yes, intuition. No, just kidding. 0 is a generator only if n = 1, 1 is a generator for all n when n > 1, 2 is a generator for all odd values of n > 3, N-1 is always a generator, there are probably a fe ","Yes, intuition. No, just kidding. 0 is a generator only if n = 1, 1 is a generator for all n when n > 1, 2 is a generator for all odd values of n > 3, N-1 is always a generator, there are probably a few  ","Yes, intuition. No, just kidding. 0 is a generator only if n = 1, 1 is a generator for all n when n > 1, 2 is a generator for all odd values of n > 3, N-1 is always a generator, there are probably a few o ","Yes, intuition. No, just kidding. 0 is a generator only if n = 1, 1 is a generator for all n when n > 1, 2 is a generator for all odd values of n > 3, N-1 is always a generator, there are probably a few ot ","Yes, intuition. No, just kidding. 0 is a generator only if n = 1, 1 is a ge nerator  for all n when n > 1, 2 is a generator for all odd values of n > 3, N-1 is always a generator, there are probably a few othe ","Yes, intuition. No, just kidding. 0 is a generator only if n = 1, 1 is a generator for all n when n > 1, 2 is a generator for all odd values of n > 3, N-1 is always a generator, there are probably a few other ","Yes, intuition. No, just kidding. 0 is a generator only if n = 1, 1 is a generator for all n when n > 1, 2 is a generator for all odd values of n > 3, N-1 is always a generator, there are probably a few others ","Yes, intuition. No, just kidding. 0 is a generator only if n = 1, 1 is a generator for all n when n > 1, 2 is a generator for all odd values of n > 3, N-1 is always a generator, there are probably a few others. ","Yes, int 0 is a generator only if n = 1, 1 is a generator for all n when n > 1, 2 is a generator for all odd values of n > 3, N-1 is always a generator, there are probably a few others. ","Yes, in 0 is a generator only if  n = 1, 1  is a generator for all n when n > 1, 2 is a generator for all odd values of n > 3, N-1 is always a generator, there are probably a few others. ","Yes, i 0 is a generator only if n = 1, 1 is a generator for all n when n > 1, 2 is a generator for all odd values of n > 3, N-1 is always a generator, there are probably a few others. ","Yes,  0 is a generator only if n = 1, 1 is a generator for all n when n > 1, 2 is a generator for all odd values of n > 3, N-1 is always a generator, there are probably a few others. ","Yes, 0 is a generator only if n = 1, 1 is a generator for all n when n > 1, 2 is a generator for all odd values of n > 3, N-1 is always a generator, there are probably a few others. Maybe N -3","Yes, 0 is a generator only if n = 1, 1 is a generator for all n when n > 1, 2 is a generator for all odd values of n > 3, N-1 is always a generator, there are probably a few others. Maybe N -","Yes, 0 is a generator only if n = 1, 1 is a generator for all n when n > 1, 2 is  a gener ator for all odd values of n > 3, N-1 is always a generator, there are probably a few others. Maybe N ","Yes, 0 is a generator only if n = 1, 1 is a generator for all n when n > 1, 2 is a generator for all odd values of n > 3, N-1 is always a generator, there are probably a few others. Maybe N-3","Yes, 0 is a generator only if n = 1, 1 is a generator for all n when n > 1, 2 is a generator for all odd values of n > 3, N-1 is always a generator, there are probably a few others. Maybe N-","Yes, 0 is a generator only if n = 1, 1 is a generator for all n when n > 1, 2 is a generator for all odd values of n > 3, N-1 is always a generator, there are probably a few others. Maybe N","Yes, 0 is a generator only if n = 1, 1 is a generator for all n when n > 1, 2 is a generator for all odd values of n > 3, N-1 is always a generator, there are probably a few others. Maybe ","Yes, 0 is a generator only if n = 1, 1 is a generator for all n when n > 1, 2 is a generator for all odd values of  n > 3,  N-1 is always a generator, there are probably a few others. Maybe","Yes, 0 is a generator only if n = 1, 1 is a generator for all n when n > 1, 2 is a generator for all odd values of n > 3, N-1 is always a generator, there are probably a few others. Mayb","Yes, 0 is a generator only if n = 1, 1 is a generator for all n when n > 1, 2 is a generator for all odd values of n > 3, N-1 is always a generator, there are probably a few others. May","Yes, 0 is a generator only if n = 1, 1 is a generator for all n when n > 1, 2 is a generator for all odd values of n > 3, N-1 is always a generator, there are probably a few others. Ma","Yes, 0 is a generator only if n = 1, 1 is a generator for all n when n > 1, 2 is a generator for all odd values of n > 3, N-1 is always a generator, there are probably a few others. M","Yes, 0 is a generator only if n = 1, 1 is a generator for all n when n > 1, 2 is a generator for all odd values of n > 3, N-1 is always a generator, there are probably a f ew other s. ","Yes, 0 is a generator only if n = 1, 1 is a generator for all n when n > 1, 2 is a generator for all odd values of n > 3, N-1 is always a generator, there are probably a few others."],"rt":921339,"trial_type":"question","trial_index":0,"trial_index_global":65,"time_elapsed":2363121,"internal_chunk_id":"0-0.13-0"},{"question":"True or false: If x is an odd number, it must be a generator under +<sub>n</sub>.","response_type":"multi","response_choices":["True","False"],"correct_response":"False","response":"False","response_history":["False"],"rt":7256,"trial_type":"question","trial_index":0,"trial_index_global":66,"time_elapsed":2370382,"internal_chunk_id":"0-0.13-0"},{"question":"True or false: If x is an even number, it must not be a generator under +<sub>n</sub>.","response_type":"multi","response_choices":["True","False"],"correct_response":"False","response":"False","response_history":["False"],"rt":7920,"trial_type":"question","trial_index":0,"trial_index_global":67,"time_elapsed":2378304,"internal_chunk_id":"0-0.13-0"},{"question":"True or false: If x is not a generator under +<sub>n</sub>, x must divide n.","response_type":"multi","response_choices":["True","False"],"correct_response":"False","response":"True","response_history":["True"],"rt":9357,"trial_type":"question","trial_index":0,"trial_index_global":68,"time_elapsed":2387662,"internal_chunk_id":"0-0.13-0"},{"question":"True or false: If x is not a generator under +<sub>n</sub>, x must be a multiple of a divisor of n. Please explain in words why your answer is corret.","response_type":"free","response_choices":[],"correct_response":"True","response":"Because that is the only way to generate a cycle through the elements.","response_history":["Because that is the only ways to ","Because that is the only ways to","Because that is the only ways t","Because that is the only ways ","Because that is the only ways","Because that is the only way to generatea ","Because that is the only way to  generat ea","Because that is the only way to generate","Because that is the only way to generat","Because that is the only way to genera","Because that is the only way to gener","Because that is the only way to generate a cycle through the elements."],"rt":29681,"trial_type":"question","trial_index":0,"trial_index_global":69,"time_elapsed":2417345,"internal_chunk_id":"0-0.13-0"},{"question":"If an element x is a generator under +<sub>n</sub>, is its inverse a generator under +<sub>n</sub> always, sometimes, or never?","response_type":"multi","response_choices":["Always","Sometimes","Never"],"correct_response":"Always","response":"Always","response_history":["Always"],"rt":65471,"trial_type":"question","trial_index":0,"trial_index_global":70,"time_elapsed":2482820,"internal_chunk_id":"0-0.13-0"},{"question":"if an element x is a generator under +<sub>n</sub>, is x +<sub>n</sub> x a generator under +<sub>n</sub> always, sometimes, or never? Please explain in words why your answer is c orret.","response_type":"free","response_choices":[],"correct_response":"sometimes","response":"sometimes, 1 +4 1 = 2, 2 is not a generator when n = 4, 1 +3 1 = 2, 2 is a generator when n = 3","response_history":["not always, 1 + 1 ","not always, 1 + 1 = 2","not always, 1 + 1 = ","not always, 1 + 1 =","not always, 1 + 1 ","not always, 1 + 1","not always, 1 + ","not always, 1 +4 1+2","not always, 1 +4 1+","not always, 1 +4 1 = 2, t","not always, 1 +4 1 = 2, 2 is nu","not always, 1 +4 1 = 2, 2 is note  ","not always, 1 +4 1 = 2, 2 is note ","not always, 1 +4 1 = 2, 2 is note","not always, 1 +4 1 = 2, 2 is not a ger","not always, 1 +4 1 = 2, 2 is not a generator when n = 4, 1 +3 1 = 2, 2 is a gern","not always, 1 +4 1 = 2, 2 is not a generator when n = 4, 1 +3 1 = 2, 2 is a ger","not always, 1 +4 1 = 2, 2 is not a generator when n = 4, 1 +3 1 = 2, 2 is a gener","not always, 1 +4 1 = 2, 2 is not a generator when n = 4, 1 +3 1 = 2, 2 is a gene","not always, 1 +4 1 = 2, 2 is not a generat or when  n = 4, 1 +3 1 = 2, 2 is a generator when N","not always, 1 +4 1 = 2, 2 is not a generator when n = 4, 1 +3 1 = 2, 2 is a generator when n = 3","s, 1 +4 1 = 2, 2 is not a generator when n = 4, 1 +3 1 = 2, 2 is a generator when n = 3","so, 1 +4 1 = 2, 2 is not a generator when n = 4, 1 +3 1 = 2, 2 is a generator when n = 3","some, 1 +4 1 = 2, 2 is not a generator when n = 4, 1 +3 1 = 2, 2 is a generator when n = 3","somet, 1 +4 1 = 2, 2 is not a generator when n = 4, 1 +3 1 = 2, 2 is a generator when n = 3","sometim, 1 +4 1 = 2, 2 is not a generator when n = 4, 1 +3 1 = 2, 2 is a generator when n = 3","sometime, 1 +4 1 = 2, 2 is not a generator when n = 4, 1 +3 1 = 2, 2 is a generator when n = 3","sometimes, 1 +4 1 = 2, 2 is not a generator when n = 4, 1 +3 1 = 2, 2 is a generator when n = 3"],"rt":180311,"trial_type":"question","trial_index":0,"trial_index_global":71,"time_elapsed":2663132,"internal_chunk_id":"0-0.13-0"},{"question":"If an element x is not a generator under + <sub>n</ sub>, is x +<sub>n</sub> x a generator under +<sub>n</sub> always, sometimes, or never?","response_type":"multi","response_choices":["Always","Sometimes","Never"],"correct_response":"Never","response":"Sometimes","response_history":["Sometimes"],"rt":17099,"trial_type":"question","trial_index":0,"trial_index_global":72,"time_elapsed":2680234,"internal_chunk_id":"0-0.13-0"},{"instructions":"We would like to ask you some questions about your background. Please press \"Continue\" to continue.","rt":2078,"trial_type":"instructions","trial_index":0,"trial_index_global":73,"time_elapsed":2682313,"internal_chunk_id":"0-0.14-0"},{"question":"What is your age?","response_type":"free","response_choices":[],"correct_response":"","response":"39","response_history":["39"],"rt":6034,"trial_type":"question","trial_index":0,"trial_index_global":74,"time_elapsed":2688349,"internal_chunk_id":"0-0.14-0"},{"question":"What is your level of education?","response_type":"multi","response_choices":["Did no t graduate high school","High school diploma","Some college, no degree","Associates Degree","Bachelors Degree","Some graduate school, no degree","Masters Degree","Doctorate, M.D., etc."],"correct_response":"","response":"Doctorate, M.D., etc.","response_history":["Doctorate, M.D., etc."],"rt":3985,"trial_type":"question","trial_index":0,"trial_index_global":75,"time_elapsed":2692336,"internal_chunk_id":"0-0.14-0"},{"question":"What is the most advanced math class you've completed? If you have multiple classes and you're not sure which one is most advanced, please list them.","response_type":"free","response_choices":[],"correct_response":"","response":"Calc II, But I did take Symbolic logic I & II, Theory of Computation, Philosophy of Math,  and a Seminar on Inductive Bayesian Logic, as a Philosophy grad student.","response_history":["Cals","Calc II, but studying graduate level pho","Calc II, bu","Calc II, b","Calc II, Lo","Calc II, L","Calc II, Symbolic logis","Calc II, Sym bolic lo gic 1 ","Calc II, Symbolic logic 1","Calc II, Symbolic logic II, Thre","Calc II, Symbolic logic II, Thr","Calc II, Symbolic logic II, Theory of Computation, Philosophy of Math, Philosophy Seminar or ","Calc II, Symbolic logic II, Theory of Computation, Philosophy of Math, Philosophy Seminar or","Calc II, Symbolic logic II, Theory of Computation, Philosophy of Math, Philosophy Seminar ofn","Calc II, Symbolic logic II, Theory of Computation, Philosophy of Math, Philosophy Seminar of","Calc II, Symbolic logic II, Theory of Computation, Philosophy of Math, Philosophy Seminar on Inductive lo","Calc II, Symbolic logic II, Theory of Computation, Philosophy of Math, Philosophy Seminar on Inductive l","Calc II, Symbolic logic II, Theory of Computation, Philosophy of Math, Philosophy Seminar on Inductive L","Calc II, Symbolic logic II, Theory of Computation, Philosophy of Math, Philosophy Seminar on Inductive Basya","Calc II, Symbolic logic II, Theory of Computation, Philosophy of Mat h, Philo sophy Seminar on Inductive Basy","Calc II, Symbolic logic II, Theory of Computation, Philosophy of Math, Philosophy Seminar on Inductive Bas","Calc II, Symbolic logic II, Theory of Computation, Philosophy of Math, Philosophy Seminar on Inductive Baysian Loci","Calc II, Symbolic logic II, Theory of Computation, Philosophy of Math, Philosophy Seminar on Inductive Baysian Loc","Calc II, Symbolic logic II, Theory of Computation, Philosophy of Math, Philosophy Seminar on Inductive Baysian Logic.","Calc II, {Symbolic logic II, Theory of Computation, Philosophy of Math, Philosophy Seminar on Inductive Bayesian Logic.","Calc II, {tSymbolic logic II, Theory of Computation, Philosophy of Math, Philosophy Seminar on Inductive Bayesian Logic.","Calc II, {theSymbolic logic II, Theory of Computation, Philosophy of Math, Philosophy Seminar on Inductive Bayesian Logic.","Calc II, {the Symbolic logic II, Theory of Computation, Philosophy of Math, Philosophy Seminar on Inductive Bayesian Logi c.","Cal c II, {the fSymbolic logic II, Theory of Computation, Philosophy of Math, Philosophy Seminar on Inductive Bayesian Logic.","Calc II, {the foSymbolic logic II, Theory of Computation, Philosophy of Math, Philosophy Seminar on Inductive Bayesian Logic.","Calc II, {the folSymbolic logic II, Theory of Computation, Philosophy of Math, Philosophy Seminar on Inductive Bayesian Logic.","Calc II, {the follSymbolic logic II, Theory of Computation, Philosophy of Math, Philosophy Seminar on Inductive Bayesian Logic.","Calc II, {the folloSymbolic logic II, Theory of Computation, Philosophy of Math, Philosophy Seminar on Inductive Bayesian Logic.","Calc II, {the followSymbolic logic II, Theory of Computation, Philosophy of Math, Philosophy Seminar on Inductive Bayesian Logic.","Calc II, {the followinSymbolic logic II, Theory of Computation, Philosophy of Math, Philosophy Seminar on Inductive Bayesian Logic.","Calc II, {the followingSymbolic logic II, Theory of Computation, Philosophy of Ma th, Phil osophy Seminar on Inductive Bayesian Logic.","Calc II, {the following Symbolic logic II, Theory of Computation, Philosophy of Math, Philosophy Seminar on Inductive Bayesian Logic.","Calc II, {the following aSymbolic logic II, Theory of Computation, Philosophy of Math, Philosophy Seminar on Inductive Bayesian Logic.","Calc II, {the following areSymbolic logic II, Theory of Computation, Philosophy of Math, Philosophy Seminar on Inductive Bayesian Logic.","Calc II, {the following arenSymbolic logic II, Theory of Computation, Philosophy of Math, Philosophy Seminar on Inductive Bayesian Logic.","Calc II, {the following aren'tSymbolic logic II, Theory of Computation, Philosophy of Math, Philosophy Seminar on Inductive Bayesian Logic.","Calc II, {the following aren't Symbolic logic II, Theory of Computation, Philosophy of Math, Philosophy Seminar on Inductive Bayesian Logic.","Calc II, {the following aren't mSymbolic logic II, Theory of Computation, Philosophy of Math, Philosophy S eminar o n Inductive Bayesian Logic.","Calc II, {the following aren't maSymbolic logic II, Theory of Computation, Philosophy of Math, Philosophy Seminar on Inductive Bayesian Logic.","Calc II, {the following aren't matSymbolic logic II, Theory of Computation, Philosophy of Math, Philosophy Seminar on Inductive Bayesian Logic.","Calc II, {the following aren't mathSymbolic logic II, Theory of Computation, Philosophy of Math, Philosophy Seminar on Inductive Bayesian Logic.","Calc II, {the following aren't maSymbolic logic II, Theory of Computation, Philosophy of Math, Philosophy Seminar on Inductive Bayesian Logic.","Calc II, {tSymbolic logic II, Theory of Computation, Philosophy of Math, Philosophy Seminar on Inductive Bayesian Logic.","Calc II, {Symbolic logic II, Theory of Computation, Philosophy of Math, Philosophy Seminar on Inductive Bayesian Logic.","Calc II, Symbolic logic II, Theory of Computation, Philosophy of Math, Philosophy Seminar on Inductive Bayesian Logic.","Calc II,Sy mbolic l ogic II, Theory of Computation, Philosophy of Math, Philosophy Seminar on Inductive Bayesian Logic.","Calc II, Symbolic logic II, Theory of Computation, Philosophy of Math, Philosophy Seminar on Inductive Bayesian Logic.","Calc II, PSymbolic logic II, Theory of Computation, Philosophy of Math, Philosophy Seminar on Inductive Bayesian Logic.","Calc II, PhSymbolic logic II, Theory of Computation, Philosophy of Math, Philosophy Seminar on Inductive Bayesian Logic.","Calc II, PhiSymbolic logic II, Theory of Computation, Philosophy of Math, Philosophy Seminar on Inductive Bayesian Logic.","Calc II, PhilSymbolic logic II, Theory of Computation, Philosophy of Math, Philosophy Seminar on Inductive Bayesian Logic.","Calc II, PhiloSymbolic logic II, Theory of Computation, Philosophy of Math, Philosophy Seminar on Inductive Bayesian Logic.","Calc II, PhilSymbolic logic II, Theory of Computation, Philosophy of Math, Philosophy Seminar on Inductive Bayesian Logic.","Calc II, PhiSymbolic  logic II , Theory of Computation, Philosophy of Math, Philosophy Seminar on Inductive Bayesian Logic.","Calc II, PhSymbolic logic II, Theory of Computation, Philosophy of Math, Philosophy Seminar on Inductive Bayesian Logic.","Calc II, PSymbolic logic II, Theory of Computation, Philosophy of Math, Philosophy Seminar on Inductive Bayesian Logic.","Calc II, Symbolic logic II, Theory of Computation, Philosophy of Math, Philosophy Seminar on Inductive Bayesian Logic.","Calc II, BSymbolic logic II, Theory of Computation, Philosophy of Math, Philosophy Seminar on Inductive Bayesian Logic.","Calc II, BuSymbolic logic II, Theory of Computation, Philosophy of Math, Philosophy Seminar on Inductive Bayesian Logic.","Calc II, ButSymbolic logic II, Theory of Computation, Philosophy of Math, Philosophy Seminar on Inductive Bayesian Logic.","Calc II, But Symbolic logic II, Theory of Computation, Philosophy of Math, Philosophy Seminar on Inductive Bayesian Logic.","Calc II, But ISymbolic logic II, T heory of  Computation, Philosophy of Math, Philosophy Seminar on Inductive Bayesian Logic.","Calc II, But I Symbolic logic II, Theory of Computation, Philosophy of Math, Philosophy Seminar on Inductive Bayesian Logic.","Calc II, But I diSymbolic logic II, Theory of Computation, Philosophy of Math, Philosophy Seminar on Inductive Bayesian Logic.","Calc II, But I didSymbolic logic II, Theory of Computation, Philosophy of Math, Philosophy Seminar on Inductive Bayesian Logic.","Calc II, But I did Symbolic logic II, Theory of Computation, Philosophy of Math, Philosophy Seminar on Inductive Bayesian Logic.","Calc II, But I did taSymbolic logic II, Theory of Computation, Philosophy of Math, Philosophy Seminar on Inductive Bayesian Logic.","Calc II, But I did takeSymbolic logic II, Theory of Computation, Philosophy of Math, Philosophy Seminar on Inductive Bayesian Logic.","Calc II, But I did take Symbolic logic II, Theory of Computation, Philosophy of Math, Philosophy Seminar on Inductive Ba yesian L ogic.","Calc II, But I did take Symbolic logic II, Theory of Computation, Philosophy of Math, Philosophy Seminar on Inductive Bayesian Logic, as a Philosphy","Calc II, But I did take Symbolic logic II, Theory of Computation, Philosophy of Math, Philosophy Seminar on Inductive Bayesian Logic, as a Philosph","Calc II, But I did take Symbolic logic II, Theory of Computation, Philosophy of Math, Philosophy Seminar on Inductive Bayesian Logic, as a Philosp","Calc II, But I did take Symbolic logic II, Theory of Computation, Philosophy of Math, Philosophy Seminar on Inductive Bayesian Logic, as a Philosophy grad studet","Calc II, But I did take Symbolic logic II, Theory of Computation, Philosophy of Math, Philosophy Seminar on Inductive Bayesian Logic, as a Philosophy grad student.","Calc II, But I did take Symbolic logic III, Theory of Computation, Philosophy of Math, Philosophy Seminar on Inductive Bayesian Logic, as a Philosophy grad student.","Calc II, But I did take Symbolic l ogic I I I, Theory of Computation, Philosophy of Math, Philosophy Seminar on Inductive Bayesian Logic, as a Philosophy grad student.","Calc II, But I did take Symbolic logic I &II, Theory of Computation, Philosophy of Math, Philosophy Seminar on Inductive Bayesian Logic, as a Philosophy grad student.","Calc II, But I did take Symbolic logic I & II, Theory of Computation, Philosophy of Math, Philosophy Seminar on Inductive Bayesian Logic, as a Philosophy grad student.","Calc II, But I did take Symbolic logic I & II, Theory of Computation, Philosophy of Math,  Philosophy Seminar on Inductive Bayesian Logic, as a Philosophy grad student.","Calc II, But I did take Symbolic logic I & II, Theory of Computation, Philosophy of Math,  aPhilosophy Seminar on Inductive Bayesian Logic, as a Philosophy grad student.","Calc II, But I did take Symbolic logic I & II, Theory of Computation, Philosophy of Math,  anPhilosophy Seminar on Inductive Bayesian Logic, as a Philosophy grad student.","Calc II,  But I d id take Symbolic logic I & II, Theory of Computation, Philosophy of Math,  andPhilosophy Seminar on Inductive Bayesian Logic, as a Philosophy grad student.","Calc II, But I did take Symbolic logic I & II, Theory of Computation, Philosophy of Math,  and Philosophy Seminar on Inductive Bayesian Logic, as a Philosophy grad student.","Calc II, But I did take Symbolic logic I & II, Theory of Computation, Philosophy of Math,  and aPhilosophy Seminar on Inductive Bayesian Logic, as a Philosophy grad student.","Calc II, But I did take Symbolic logic I & II, Theory of Computation, Philosophy of Math,  and a Philosophy Seminar on Inductive Bayesian Logic, as a Philosophy grad student.","Calc II, But I did take Symbolic logic I & II, Theory of Computation, Philosophy of Math,  and a hilosophy Seminar on Inductive Bayesian Logic, as a Philosophy grad student.","Calc II, But I did take Symbolic logic I & II, Theory of Computation, Philosophy of Math,  and a ilosophy Seminar on Inductive  Bayesian  Logic, as a Philosophy grad student.","Calc II, But I did take Symbolic logic I & II, Theory of Computation, Philosophy of Math,  and a losophy Seminar on Inductive Bayesian Logic, as a Philosophy grad student.","Calc II, But I did take Symbolic logic I & II, Theory of Computation, Philosophy of Math,  and a osophy Seminar on Inductive Bayesian Logic, as a Philosophy grad student.","Calc II, But I did take Symbolic logic I & II, Theory of Computation, Philosophy of Math,  and a sophy Seminar on Inductive Bayesian Logic, as a Philosophy grad student.","Calc II, But I did take Symbolic logic I & II, Theory of Computation, Philosophy of Math,  and a ophy Seminar on Inductive Bayesian Logic, as a Philosophy grad student.","Calc II, But I did take Symbolic logic I & II, Theory of Computation, Philosophy of Math,  and a phy Seminar on Inductive Bayesian Logic, as a Philosophy grad student.","Calc II, But I did take Symbolic logic I & II, Theory of Computation, Philosophy of Math,   and a  hy Seminar on Inductive Bayesian Logic, as a Philosophy grad student.","Calc II, But I did take Symbolic logic I & II, Theory of Computation, Philosophy of Math,  and a y Seminar on Inductive Bayesian Logic, as a Philosophy grad student.","Calc II, But I did take Symbolic logic I & II, Theory of Computation, Philosophy of Math,  and a  Seminar on Inductive Bayesian Logic, as a Philosophy grad student.","Calc II, But I did take Symbolic logic I & II, Theory of Computation, Philosophy of Math,  and a Seminar on Inductive Bayesian Logic, as a Philosophy grad student."],"rt":161902,"trial_type":"question","trial_index":0,"trial_index_global":76,"time_elapsed":2854240,"internal_chunk_id":"0-0.14-0"},{"question":"How familiar are you with the concept of modular arithmetic?","response_type":"multi","response_choices":["1 - never heard of it","2 - heard of it but didn't know what it was","3 - seen it used or explained","4 - used it but not often or recently","5 - used it, remember a nd under stand it"],"correct_response":"1","response":"3 - seen it used or explained","response_history":["3 - seen it used or explained"],"rt":6963,"trial_type":"question","trial_index":0,"trial_index_global":77,"time_elapsed":2861207,"internal_chunk_id":"0-0.14-0"},{"question":"How familiar are you with the concept of a mathematical group?","response_type":"multi","response_choices":["1 - never heard of it","2 - heard of it but didn't know what it was","3 - seen it used or explained","4 - used it but not often or recently","5 - used it, remember and understand it"],"correct_response":"1","response":"3 - seen it used or explained","response_history":["3 - seen it used or explained"],"rt":7706,"trial_type":"question","trial_index":0,"trial_index_global":78,"time_elapsed":2868916,"internal_chunk_id":"0-0.14-0"},{"question":"Do you feel you learned something from this HIT?","response_type":"multi","response_choices":["1 - not at all","2 - somewhat","3 - definitely"],"correct_response":"1","response":"3 - definitely","response_history":["3 - definitely"],"rt":5524,"trial_type":"question","trial_index":0,"trial_index_global":79,"time_elapsed":2874441,"internal_chunk_id":"0-0.14-0"},{"question":"Do you feel you understood the concepts in this HIT?","response_type":"multi","response_choices":["1 - not at all","2 - somewhat","3 - definitely"],"correct_response":"1","response":"3 - definitely","response_history":["3 - definitely"],"rt":3824,"trial_type":"question","trial_index":0,"trial_index_global":80,"time_elapsed":2878267,"internal_chunk_id":"0-0.14-0"},{"question":"Did you enjoy this HIT?","response_type":"multi","response_choices":["1 - not at all","2 - somewhat","3 - definitely"],"correct_response":"1","response":"3 - definitely","response_history":["3 - definitely"],"rt":2363,"trial_type":"question","trial_index":0,"trial_index_global":81,"time_elapsed":2880631,"internal_chunk_id":"0-0.14-0"},{"question":"What is your gender?","response_type":"multi","response_choices":["Female","Male","Other"],"correct_response":"","response":"Male","response_history":["Male"],"rt":2271,"trial_type":"question","trial_index":0,"trial_index_global":82,"time_elapsed":2882904,"internal_chunk_id":"0-0.14-0"},{"question":"What is/are your native language(s)? (The languages spoken in your household when you were a child.)","response_type":"free","response_choices":[],"correct_response":"","response":"English","response_history":["English"],"rt":4570,"trial_type":"question","trial_index":0,"trial_index_global":83,"time_elapsed":2887474,"internal_chunk_id":"0-0.14-0"},{"question":"Did you use pen and paper at any point on this HIT?","response_type":"free","response_choices":[],"correct_response":"","response":"No","response_history":["No"],"rt":6808,"trial_type":"question","trial_index":0,"trial_index_global":84,"time_elapsed":2894283,"internal_chunk_id":"0-0.14-0"},{"question":"Do you have any comments on this HIT?","response_type":"free","response_choices":[],"correct_response":"","response":"Fun, enjoyed it, paid decently.","response_history":["Good suff","Good suf","Good su","Good stuff,","Good stuff, ","Good stuff,","Good stuff","Good stuf","Good stu","Good st","Good s","Good ","Good","Goo","Go","G","G","Fun, enjoyed it, well paying.","Fun, enjoyed it, paid decently."],"rt":32311,"trial_type":"question","trial_index":0,"trial_index_global":85,"time_elapsed":2926595,"internal_chunk_id":"0-0.14-0"}]