[{"nsides":6,"instructions":"Let's define a new operation <img src=\"./images/hexagon_symbol.png\" style=\"width:14px;height:14px\">. This operation will give us a way of combining two of the numbers 0, 1, 2, 3, 4, 5 to get another one of them back. Consider the hexagon at the right, where I've labeled each point with one of the numbers. To perform <img src=\"./images/hexagon_symbol.png\" style=\"width:14px;height:14px\">, you can use the interactive diagram on the right, or perform the operation in your mind. or perform the operation in your mind. Point the arrow at the first number on the hexagon, then move the arrow the second number of points clockwise around the hexagon. The number the arrow arrives at is your result. (The operation is called <img src=\"./images/hexagon_symbol.png\" style=\"width:14px;height:14px\"> because it uses the hexagon, which has 6 sides.) <br /><br />For example, 3 <img src=\"./images/hexagon_symbol.png\" style=\"width:14px;height:14px\"> 5 = 2,  because  5 steps clockwise from 3 on the hexagon brings us to 2. So 3 <img src=\"./images/hexagon_symbol.png\" style=\"width:14px;height:14px\"> 5 = 2.<br /><br />Similarly, 1 <img src=\"./images/hexagon_symbol.png\" style=\"width:14px;height:14px\"> 4 = 5, because 4 steps clockwise from 1 brings us to 5. <br /><br />Click \"Continue\" when you are ready to move on.","orientation_history":[0,[0,0,0,0,0,0,0,0,0,0,0,0,0,0]],"rt":199096,"trial_type":"polygon-arrow-instructions","trial_index":0,"trial_index_global":1,"time_elapsed":2264301,"internal_chunk_id":"0-0"},{"nsides":6,"question":"Now try one on your own! What is 4 <img src=\"./images/hexagon_symbol.png\" style=\"width:14px;height:14px\"> 5? <br /><br /> (Remember, to perform <img src=\"./images/hexagon_symbol.png\" style=\"width:14px;height:14px\">, you can use the interactive diagram on the right, or perform the operation in your mind. Point the arrow at the first number on the hexagon, then move the arrow the second number o f points  clockwise around the hexagon. The number the arrow arrives at is your result.)","response_type":"free","response_choices":[],"correct_response":"3","response":"3","orientation_history":[[0]],"response_history":["3"],"rt":26372,"trial_type":"polygon-arrow-question","trial_index":0,"trial_index_global":2,"time_elapsed":2290676,"internal_chunk_id":"0-0.2-0"},{"nsides":6,"feedback":"Correct! 4 <img src=\"./images/hexagon_symbol.png\" style=\"width:14px;height:14px\"> 5 = 3 because 5 steps clockwise on the hexagon from 4 brings us to 3","orientation_history":[0],"rt":2918,"trial_type":"polygon-arrow-feedback","trial_index":0,"trial_index_global":3,"time_elapsed":2293596,"internal_chunk_id":"0-0.2-0"},{"nsides":6,"question":"What is 3 <img src=\"./images/hexagon_symbol.png\" style=\"width:14px;height:14px\"> 2? <br /><br /> (Remember, to perform <img src=\"./images/hexagon_symbol.png\" style=\"width:14px;height:14px\">, you can use the interactive diagram on the right, or perform  the ope ration in your mind. Point the arrow at the first number on the hexagon, then move the arrow the second number of points clockwise around the hexagon. The number the arrow arrives at is your result.)","response_type":"free","response_choices":[],"correct_response":"5","response":"4","orientation_history":[[0]],"response_history":["4"],"rt":5685,"trial_type":"polygon-arrow-question","trial_index":0,"trial_index_global":4,"time_elapsed":2299282,"internal_chunk_id":"0-0.2-0"},{"nsides":6,"feedback":"Sorry, that was incorrect. 3 <img src=\"./images/hexagon_symbol.png\" style=\"width:14px;height:14px\"> 2 = 5 because 2 steps clockwise on the hexagon from 3 brings us to 5","orientation_history":[0],"rt":8122,"trial_type":"polygon-arrow-feedback","trial_index":0,"trial_index_global":5,"time_elapsed":2307405,"internal_chunk_id":"0-0.2-0"},{"nsides":6,"question":"What is 1 <img src=\"./images/hexagon_symbol.png\" style=\"width:14px;height:14px\"> 5? <br /><br /> (Remember, to perform  <img sr c=\"./images/hexagon_symbol.png\" style=\"width:14px;height:14px\">, you can use the interactive diagram on the right, or perform the operation in your mind. Point the arrow at the first number on the hexagon, then move the arrow the second number of points clockwise around the hexagon. The number the arrow arrives at is your result.)","response_type":"free","response_choices":[],"correct_response":"0","response":"0","orientation_history":[[0]],"response_history":["0"],"rt":9621,"trial_type":"polygon-arrow-question","trial_index":0,"trial_index_global":6,"time_elapsed":2317027,"internal_chunk_id":"0-0.2-0"},{"nsides":6,"feedback":"Correct! 1 <img src=\"./images/hexagon_symbol.png\" style=\"width:14px;height:14px\"> 5 = 0 because 5 steps clockwise on the hexagon from 1 brings us to 0","orientation_history":[0],"rt":2632,"trial_type":"polygon-arrow-feedback","trial_index":0,"trial_index_global":7,"time_elapsed":2319660,"internal_chunk_id":"0-0.2-0"},{"nsides":6,"question":"Wha t is 1 < img src=\"./images/hexagon_symbol.png\" style=\"width:14px;height:14px\"> 1? <br /><br /> (Remember, to perform <img src=\"./images/hexagon_symbol.png\" style=\"width:14px;height:14px\">, you can use the interactive diagram on the right, or perform the operation in your mind. Point the arrow at the first number on the hexagon, then move the arrow the second number of points clockwise around the hexagon. The number the arrow arrives at is your result.)","response_type":"free","response_choices":[],"correct_response":"2","response":"2","orientation_history":[[0]],"response_history":["2"],"rt":10336,"trial_type":"polygon-arrow-question","trial_index":0,"trial_index_global":8,"time_elapsed":2329997,"internal_chunk_id":"0-0.2-0"},{"nsides":6,"feedback":"Correct! 1 <img src=\"./images/hexagon_symbol.png\" style=\"width:14px;height:14px\"> 1 = 2 because 1 steps clockwise on the hexagon from 1 brings us to 2","orientation_history":[0],"rt":1746,"trial_type":"polygon-arrow-feedback","trial_index":0,"trial_index_global":9,"time_elapsed":2331744,"internal_chunk_id":"0-0.2-0"},{"nsides":6,"question":"What is 3 <img src=\"./images/hexagon_symbol.png\" style=\"width:14px;height:14px\"> 0? <br /><br /> (Remember, to perform <img src=\"./images/hexagon_symbol.png\" style=\"width:14px;height:14px\">, you can use the interactive diagram on the right, or perform the operation in your mind. Point the arrow at the first number on the hexagon, then move the arrow the second number of points clockwise around the hexagon. The number the arrow arrives at is your result.)","response_type":"free","response_choices":[],"correct_response":"3","response":"3","orientation_history":[[0]],"response_history":["3"],"rt":6859,"trial_type":"polygon-arrow-question","trial_index":0,"trial_index_global":10,"time_elapsed":2338604,"internal_chunk_id":"0-0.2-0"},{"nsides":6,"feedback":"Correct! 3 <img src=\"./images/hexagon_symbol.png\" style=\"width:14px;height:14px\"> 0 = 3 because 0 steps cl ockwise  on the hexagon from 3 brings us to 3","orientation_history":[0],"rt":2301,"trial_type":"polygon-arrow-feedback","trial_index":0,"trial_index_global":11,"time_elapsed":2340906,"internal_chunk_id":"0-0.2-0"},{"nsides":6,"question":"What is 4 <img src=\"./images/hexagon_symbol.png\" style=\"width:14px;height:14px\"> 4? <br /><br /> (Remember, to perform <img src=\"./images/hexagon_symbol.png\" style=\"width:14px;height:14px\">, you can use the interactive diagram on the right, or perform the operation in your mind. Point the arrow at the first number on the hexagon, then move the arrow the second number of points clockwise around the hexagon. The number the arrow arrives at is your result.)","response_type":"free","response_choices":[],"correct_response":"2","response":"2","orientation_history":[[0]],"response_history":["2"],"rt":5379,"trial_type":"polygon-arrow-question","trial_index":0,"trial_index_global":12,"time_elapsed":2346286,"internal_chunk_id":"0-0.2-0"},{"nsides":6,"feedback":"Correct! 4 <img src=\"./images/hexagon_symbol.png\" style=\"width:14px;height:14px\"> 4 = 2 because 4 steps clockwise on the hexagon from 4 brings us to 2","orientation_history":[0],"rt":1291,"trial_type":"polygon-arrow-feedback","trial_index":0,"trial_index_global":13,"time_elapsed":2347578,"internal_chunk_id":"0-0.2-0"},{"nsides":6,"question":"What is 1 <img src=\"./images/hexagon_symbol.png\" style=\"width:14px;height:14px\"> 3? <br /><br /> (Remember, to perform <img src=\"./images/hexagon_symbol.png\" style=\"width:14px;height:14px\">, you can use the interactive diagram on the right, or perform the operation in your mind. Point the arrow at the first number on the hexagon, then move the arrow the second number of points clockwise around the hexagon. The number the arrow arrives at is your result.)","response_type":"free","response_choices":[],"correct_response":"4","response":"4","orientation_history":[[0]],"response_history":["4"],"rt":7796,"trial_type":"polygon-ar row-ques tion","trial_index":0,"trial_index_global":14,"time_elapsed":2355374,"internal_chunk_id":"0-0.2-0"},{"nsides":6,"feedback":"Correct! 1 <img src=\"./images/hexagon_symbol.png\" style=\"width:14px;height:14px\"> 3 = 4 because 3 steps clockwise on the hexagon from 1 brings us to 4","orientation_history":[0],"rt":5273,"trial_type":"polygon-arrow-feedback","trial_index":0,"trial_index_global":15,"time_elapsed":2360647,"internal_chunk_id":"0-0.2-0"},{"nsides":6,"question":"What is 4 <img src=\"./images/hexagon_symbol.png\" style=\"width:14px;height:14px\"> 3? <br /><br /> (Remember, to perform <img src=\"./images/hexagon_symbol.png\" style=\"width:14px;height:14px\">, you can use the interactive diagram on the right, or perform the operation in your mind. Point the arrow at the first number on the hexagon, then move the arrow the second number of points clockwise around the hexagon. The number the arrow arrives at is your result.)","response_type":"free","response_choices":[],"correct_response":"1","response":"1","orientation_history":[[0]],"response_history":["1"],"rt":6380,"trial_type":"polygon-arrow-question","trial_index":0,"trial_index_global":16,"time_elapsed":2367028,"internal_chunk_id":"0-0.2-0"},{"nsides":6,"feedback":"Correct! 4 <img src=\"./images/hexagon_symbol.png\" style=\"width:14px;height:14px\"> 3 = 1 because 3 steps clockwise on the hexagon from 4 brings us to 1","orientation_history":[0],"rt":1867,"trial_type":"polygon-arrow-feedback","trial_index":0,"trial_index_global":17,"time_elapsed":2368896,"internal_chunk_id":"0-0.2-0"},{"nsides":6,"question":"What is 0 <img src=\"./images/hexagon_symbol.png\" style=\"width:14px;height:14px\"> 5? <br /><br /> (Remember, to perform <img src=\"./images/hexagon_symbol.png\" style=\"width:14px;height:14px\">, you can use the interactive diagram on the right, or perform the operation in your mind. Point the arrow at the first number on the hexagon, then move the arrow the second number of points clockwis e around  the hexagon. The number the arrow arrives at is your result.)","response_type":"free","response_choices":[],"correct_response":"5","response":"5","orientation_history":[[0]],"response_history":["5"],"rt":3702,"trial_type":"polygon-arrow-question","trial_index":0,"trial_index_global":18,"time_elapsed":2372599,"internal_chunk_id":"0-0.2-0"},{"nsides":6,"feedback":"Correct! 0 <img src=\"./images/hexagon_symbol.png\" style=\"width:14px;height:14px\"> 5 = 5 because 5 steps clockwise on the hexagon from 0 brings us to 5","orientation_history":[0],"rt":9729,"trial_type":"polygon-arrow-feedback","trial_index":0,"trial_index_global":19,"time_elapsed":2382329,"internal_chunk_id":"0-0.2-0"},{"nsides":6,"question":"What is 2 <img src=\"./images/hexagon_symbol.png\" style=\"width:14px;height:14px\"> 5? <br /><br /> (Remember, to perform <img src=\"./images/hexagon_symbol.png\" style=\"width:14px;height:14px\">, you can use the interactive diagram on the right, or perform the operation i n your m ind. Point the arrow at the first number on the hexagon, then move the arrow the second number of points clockwise around the hexagon. The number the arrow arrives at is your result.)","response_type":"free","response_choices":[],"correct_response":"1","response":"1","orientation_history":[[0]],"response_history":["1"],"rt":7173,"trial_type":"polygon-arrow-question","trial_index":0,"trial_index_global":20,"time_elapsed":2389503,"internal_chunk_id":"0-0.2-0"},{"nsides":6,"feedback":"Correct! 2 <img src=\"./images/hexagon_symbol.png\" style=\"width:14px;height:14px\"> 5 = 1 because 5 steps clockwise on the hexagon from 2 brings us to 1","orientation_history":[0],"rt":1280,"trial_type":"polygon-arrow-feedback","trial_index":0,"trial_index_global":21,"time_elapsed":2390785,"internal_chunk_id":"0-0.2-0"},{"nsides":6,"instructions":"Now we're going to discuss a couple special properties of this new operation, <img src=\"./images/hexagon_symbol.png\" style=\"width:14px;height:14px\"> that  we've learned. First, notice that the number 0 behaves in a special way under <img src=\"./images/hexagon_symbol.png\" style=\"width:14px;height:14px\">. Whenever we combine 0 with anything else, we get that same thing back. We'll say that 0 is the <i>identity</i> under <img src=\"./images/hexagon_symbol.png\" style=\"width:14px;height:14px\">, because when you combine it with something it gives you that identical thing back.","orientation_history":[0],"rt":91935,"trial_type":"polygon-arrow-instructions","trial_index":0,"trial_index_global":22,"time_elapsed":2482723,"internal_chunk_id":"0-0"},{"nsides":6,"instructions":"Now that we know 0 is the identity under <img src=\"./images/hexagon_symbol.png\" style=\"width:14px;height:14px\">, we're going to make a new definition. We'll say that the <i>inverse</i> of a number is the thing that you combine with it to produce the identity under our operation. For example, 5 <img src=\"./images/hexagon_symbol.png\" style=\"width:14px;height:14px\"> 1 = 0, so we say 1 is the inverse of 5 under <img src=\"./images/hexagon_symbol.png\" style=\"width:14px;height:14px\">, (remember 0 is the identity under <img src=\"./images/hexagon_symbol.png\" style=\"width:14px;height:14px\">). Similarly, 3 is its own inverse under <img src=\"./images/hexagon_symbol.png\" style=\"width:14px;height:14px\">, because 3 <img src=\"./images/hexagon_symbol.png\" style=\"width:14px;height:14px\"> 3 = 0.","orientation_history":[0],"rt":93551,"trial_type":"polygon-arrow-instructions","trial_index":0,"trial_index_global":23,"time_elapsed":2576276,"internal_chunk_id":"0-0"},{"nsides":6,"question":"Now you try! What is the inverse of 4 under <img src=\"./images/hexagon_symbol.png\" style=\"width:14px;height:14px\">? <br /><br /> (Remember, the inverse of an element is the thing which you combine with it to produce the identity.)","response_type":"free","response_choices":[],"correct_response":"2","response":"2","orientation_history":[[0]],"response_history":["2"],"rt":7228,"trial_type":"polygon-arrow-question","trial_index":0,"trial_index_global":24,"time_elapsed":2583505,"internal_chunk_id":"0-0.6-0"},{"nsides":6,"feedback":"Correct! The inverse of 4 under <img src=\"./images/hexagon_symbol.png\" style=\"width:14px;height:14px\"> is 2 because 2 steps clockwise on the hexagon from 4 brings us to 0, and 0 is the identity under <img src=\"./images/hexagon_symbol.png\" style=\"width:14px;height:14px\">.","orientation_history":[0],"rt":1582,"trial_type":"polygon-arrow-feedback","trial_index":0,"trial_index_global":25,"time_elapsed":2585088,"internal_chunk_id":"0-0.6-0"},{"nsides":6,"question":"What is the inverse of 1 under <img src=\"./images/hexagon_symbol.png\" style=\"width:14px;height:14px\">? <br /><br /> (Remember, the inverse of an element is the thing which you combine with it to produce the identity.)","response_type":"free","response_choices":[],"correct_response":"5","response":"5","orientation_history":[[0]],"response_history":["5"],"rt":9222,"trial_type":"polygon-arrow-question","trial_index":0,"trial_index_global":26,"time_elapsed":2594311,"internal_chunk_id":"0-0.6-0"},{"nsides":6,"feedback":"Correct! The inverse of 1 under <img src=\"./images/hexagon_symbol.png\" style=\"width:14px;height:14px\"> is 5 because 5 steps clockwise on the hexagon from 1 brings us to 0, and 0 is the identity under <img src=\"./images/hexagon_symbol.png\" style=\"width:14px;height:14px\">.","orientation_history":[0],"rt":1261,"trial_type":"polygon-arrow-feedback","trial_index":0,"trial_index_global":27,"time_elapsed":2595573,"internal_chunk_id":"0-0.6-0"},{"nsides":6,"question":"What is the inverse of 3 under <img src=\"./images/hexagon_symbol.png\" style=\"width:14px;height:14px\">? <br /><br /> (Remember, the inverse of an element is the thing which you combine with it to produce the identity.)","response_type":"free","response_choices":[],"correct_response":"3","response":"3","orientation_history":[[0]],"response_history":["3"],"rt":5757,"trial_type":"polygon-arrow-question","trial_index":0,"trial_index_global":28,"time_elapsed":2601330,"internal_chunk_id":"0-0.6-0"},{"nsides":6,"feedback":"Correct! The inverse of 3 under <img src=\"./images/hexagon_symbol.png\" style=\"width:14px;height:14px\"> is 3 because 3 steps clockwise on the hexagon from 3 brings us to 0, and 0 is the identity under <img src=\"./images/hexagon_symbol.png\" style=\"width:14px;height:14px\">.","orientation_history":[0],"rt":1277,"trial_type":"polygon-arrow-feedback","trial_index":0,"trial_index_global":29,"time_elapsed":2602608,"internal_chunk_id":"0-0.6-0"},{"nsides":6,"question":"What is the inverse of 2 under <img src=\"./images/hexagon_symbol.png\" style=\"width:14px;height:14px\">? <br /><br /> (Remember, the inverse of an element is the thing which you combine with it to produce the identity.)","response_type":"free","response_choices":[],"correct_response":"4","response":"4","orientation_history":[[0]],"response_history":["4"],"rt":5405,"trial_type":"polygon-arrow-question","trial_index":0,"trial_index_global":30,"time_elapsed":2608014,"internal_chunk_id":"0-0.6-0"},{"nsides":6,"feedback":"Correct! The inverse of 2 under <img src=\"./images/hexagon_symbol.png\" style=\"width:14px;height:14px\"> is 4 because 4 steps clockwise on the hexagon from 2 brings us to 0, and 0 is the identity under <img src=\"./images/hexagon_symbol.png\" style=\"width:14px;height:14px\">.","orientation_history":[0],"rt":1517,"trial_type":"polygon-arrow-feedback","trial_index":0,"trial_index_global":31,"time_elapsed":2609532,"internal_chunk_id":"0-0.6-0"},{"nsides":6,"question":"What is the inverse of 0 under <img src=\"./images/hexagon_symbol.png\" style=\"width:14px;height:14px\">? <br /><br /> (Remember, the inverse of an element is the thing which you combine with it to produce the identity.)","response_type":"free","response_choices":[],"correct_response":"0","response":"0","orientation_history":[[0]],"response_history":["0"],"rt":6053,"trial_type":"polygon-arrow-question","trial_index":0,"trial_index_global":32,"time_elapsed":2615586,"internal_chunk_id":"0-0.6-0"},{"nsides":6,"feedback":"Correct! The inverse of 0 under <img src=\"./images/hexagon_symbol.png\" style=\"width:14px;height:14px\"> is 0 because 0 steps clockwise on the hexagon from 0 brings us to 0, and 0 is the identity under <img src=\"./images/hexagon_symbol.png\" style=\"width:14px;height:14px\">.","orientation_history":[0],"rt":8440,"trial_type":"polygon-arrow-feedback","trial_index":0,"trial_index_global":33,"time_elapsed":2624027,"internal_chunk_id":"0-0.6-0"},{"nsides":6,"question":"Let's review: under <img src=\"./images/hexagon_symbol.png\" style=\"width:14px;height:14px\">, the inverse of 0 is 0, the inverse of 1 is 5 and the inverse of 5 is 1, the inverse of 2 is 4 and the inverse of 4 is 2, and finally the inverse of 3 is 3. Try playing with some of these pairs on the hexagon. Do you see a spatial relation ship bet ween an element and its inverse under <img src=\"./images/hexagon_symbol.png\" style=\"width:14px;height:14px\">?","response_type":"free","response_choices":[],"correct_response":"","response":"Essentailly, the numbers directly opposite each other are analogous to the inverse of that number. ","orientation_history":[[0]],"response_history":["The numbers to the le","The numbers to the","The numbers to th","The numbers to t","The numbers to directly opposite each ","The numbers to directly opposit","The numbers to the left or right which are directly opposite each other are analogous to that ","The numbers to the left or right which are directly opposite each other are analogous to that","The numbers to the left or right which are directly opposite each other are analogous to tha","The numbers to the left or right which are directly opposite each other are analogous to the inverse of that number. ","The numbersdirectly opposite each other are analogous to the inverse of that n umber. ","The numbers directly opposite each other are analogous to the inverse of that number. ","ESThe numbers directly opposite each other are analogous to the inverse of that number. ","ESseThe numbers directly opposite each other are analogous to the inverse of that number. ","ESsenThe numbers directly opposite each other are analogous to the inverse of that number. ","ESsentThe numbers directly opposite each other are analogous to the inverse of that number. ","ESsentaiThe numbers directly opposite each other are analogous to the inverse of that number. ","ESsentailThe numbers directly opposite each other are analogous to the inverse of that number. ","ESsentaillyThe numbers directly opposite each other are analogous to the inverse of that number. ","ESsentailly, The numbers directly opposite each other are analogous to the inverse of that number. ","ESsentailly, the numbers directly opposite each other are analogous to the inverse of that number. ","Essentailly, the numbers d irectly  opposite each other are analogous to the inverse of that number. "],"rt":141461,"trial_type":"polygon-arrow-question","trial_index":0,"trial_index_global":34,"time_elapsed":2765489,"internal_chunk_id":"0-0"},{"instructions":"It is also possible to successively apply <img src=\"./images/hexagon_symbol.png\" style=\"width:14px;height:14px\">, and the operation can simply be performed starting with the left-most pair. For example, 2 <img src=\"./images/hexagon_symbol.png\" style=\"width:14px;height:14px\"> 3 <img src=\"./images/hexagon_symbol.png\" style=\"width:14px;height:14px\"> 4 = 5 <img src=\"./images/hexagon_symbol.png\" style=\"width:14px;height:14px\"> 4 = 3.","rt":29024,"trial_type":"instructions","trial_index":0,"trial_index_global":35,"time_elapsed":2794533,"internal_chunk_id":"0-0"},{"nsides":6,"instructions":"We have one last definition to learn today. Let's start with an example. Under our operation <img src=\"./images/hexagon_symbol.png\" style=\"width:14px;height:14px\"> we can make every other number using just 1: 2 = 1 <img src=\"./images/hexagon_symbol.png\" style=\"width:14px;height:14px\"> 1, 3 = 1 <img src=\"./images/hexagon_symbol.png\" style=\"width:14px;height:14px\"> 1 <img src=\"./images/hexagon_symbol.png\" style=\"width:14px;height:14px\"> 1, 4 = 1 <img src=\"./images/hexagon_symbol.png\" style=\"width:14px;height:14px\"> 1 <img src=\"./images/hexagon_symbol.png\" style=\"width:14px;height:14px\"> 1 <img src=\"./images/hexagon_symbol.png\" style=\"width:14px;height:14px\"> 1, 5 = 1 <img src=\"./images/hexagon_symbol.png\" style=\"width:14px;height:14px\"> 1 <img src=\"./images/hexagon_symbol.png\" style=\"width:14px;height:14px\"> 1 <img src=\"./images/hexagon_symbol.png\" style=\"width:14px;height:14px\"> 1 <img src=\"./images/hexagon_symbol.png\" style=\"width:14px;height:14px\"> 1, and 0 = 1 <img src=\"./images/hexagon_symbol.png\" style=\"width:14px;height:14px\"> 1 <img src=\"./images/hexagon_symbol.png\" style=\"width:14px;height:14px\"> 1 <img src=\"./images/hexagon_symbol.png\" style=\"width:14px;height:14px\"> 1 <img src=\"./images/hexagon_symbol.png\" style=\"width:14px;height:14px\"> 1 <img src=\"./images/hexagon_symbol.png\" style=\"width:14px;height:14px\"> 1. Because 1 can make every other element under <img src=\"./images/hexagon_symbol.png\" style=\"width:14px;height:14px\">, we say that 1 is a <i>generator</i> under <img src=\"./images/hexagon_symbol.png\" style=\"width:14px;height:14px\">. <br /><br /> However, 2 is not a generator under <img src=\"./images/hexagon_symbol.png\" style=\"width:14px;height:14px\">, because 4 = 2 <img src=\"./images/hexagon_symbol.png\" style=\"width:14px;height:14px\"> 2, and 0 = 2 <img src=\"./images/hexagon_symbol.png\" style=\"width:14px;height:14px\"> 2 <img src=\"./images/hexagon_symbol.png\" style=\"width:14px;height:14px\"> 2, but there is no way to make 1, 3, or 5 using just 2.","orientation_history":[0],"rt":163541,"trial_type":"polygon-arrow-ins truction s","trial_index":0,"trial_index_global":36,"time_elapsed":2958076,"internal_chunk_id":"0-0"},{"nsides":6,"question":"Now you try! Is 3 a generator under <img src=\"./images/hexagon_symbol.png\" style=\"width:14px;height:14px\">? <br /><br /> (Remember, a generator is an element which can make every other element.)","response_type":"multi","response_choices":["Yes","No"],"correct_response":"No","response":"No","orientation_history":[[0]],"response_history":["No"],"rt":16132,"trial_type":"polygon-arrow-question","trial_index":0,"trial_index_global":37,"time_elapsed":2974209,"internal_chunk_id":"0-0.10-0"},{"nsides":6,"feedback":"Correct! 3 is not a generator under <img src=\"./images/hexagon_symbol.png\" style=\"width:14px;height:14px\">, because 3 = 3, 0 = 3 <img src=\"./images/hexagon_symbol.png\" style=\"width:14px;height:14px\"> 3, but there is no way to make 1, 2, 4, or 5 using just 3.","orientation_history":[0],"rt":8159,"trial_type":"polygon-arrow-feedback","trial_index":0,"trial_index_global":38,"time_elapsed":2982369,"internal_chunk_id":"0-0.10-0"},{"nsides":6,"question":"Is 5 a generator under <img src=\"./images/hexagon_symbol.png\" style=\"width:14px;height:14px\">? <br /><br /> (Remember, a generator is an element which can make every other element.)","response_type":"multi","response_choices":["Yes","No"],"correct_response":"Yes","response":"No","orientation_history":[[0]],"response_history":["No"],"rt":10812,"trial_type":"polygon-arrow-question","trial_index":0,"trial_index_global":39,"time_elapsed":2993182,"internal_chunk_id":"0-0.10-0"},{"nsides":6,"feedback":"Sorry, that's incorrect. 5 is a generator under <img src=\"./images/hexagon_symbol.png\" style=\"width:14px;height:14px\">, because 5 = 5, 4 = 5 <img src=\"./images/hexagon_symbol.png\" style=\"width:14px;height:14px\"> 5, 3 = 5 <img src=\"./images/hexagon_symbol.png\" style=\"width:14px;height:14px\"> 5 <img src=\"./images/hexagon_symbol.png\" style=\"width:14px;height:14px\"> 5,  2 = 5 <i mg src=\"./images/hexagon_symbol.png\" style=\"width:14px;height:14px\"> 5 <img src=\"./images/hexagon_symbol.png\" style=\"width:14px;height:14px\"> 5 <img src=\"./images/hexagon_symbol.png\" style=\"width:14px;height:14px\"> 5, 1 = 5 <img src=\"./images/hexagon_symbol.png\" style=\"width:14px;height:14px\"> 5 <img src=\"./images/hexagon_symbol.png\" style=\"width:14px;height:14px\"> 5 <img src=\"./images/hexagon_symbol.png\" style=\"width:14px;height:14px\"> 5 <img src=\"./images/hexagon_symbol.png\" style=\"width:14px;height:14px\"> 5, and 0 = 5 <img src=\"./images/hexagon_symbol.png\" style=\"width:14px;height:14px\"> 5 <img src=\"./images/hexagon_symbol.png\" style=\"width:14px;height:14px\"> 5 <img src=\"./images/hexagon_symbol.png\" style=\"width:14px;height:14px\"> 5 <img src=\"./images/hexagon_symbol.png\" style=\"width:14px;height:14px\"> 5 <img src=\"./images/hexagon_symbol.png\" style=\"width:14px;height:14px\"> 5, so you can make all of the numbers under <img sr c=\"./images/hexagon_symbol.png\" style=\"width:14px;height:14px\"> using 5","orientation_history":[0],"rt":11256,"trial_type":"polygon-arrow-feedback","trial_index":0,"trial_index_global":40,"time_elapsed":3004439,"internal_chunk_id":"0-0.10-0"},{"nsides":6,"question":"Is 4 a generator under <img src=\"./images/hexagon_symbol.png\" style=\"width:14px;height:14px\">? <br /><br /> (Remember, a generator is an element which can make every other element.)","response_type":"multi","response_choices":["Yes","No"],"correct_response":"No","response":"No","orientation_history":[[0]],"response_history":["No"],"rt":7886,"trial_type":"polygon-arrow-question","trial_index":0,"trial_index_global":41,"time_elapsed":3012326,"internal_chunk_id":"0-0.10-0"},{"nsides":6,"feedback":"Correct! 4 is not a generator under <img src=\"./images/hexagon_symbol.png\" style=\"width:14px;height:14px\">, because 4 = 4, 2 = 4 <img src=\"./images/hexagon_symbol.png\" style=\"width:14px;height:14px\"> 4, and 0 = 4 < img src= \"./images/hexagon_symbol.png\" style=\"width:14px;height:14px\"> 4 <img src=\"./images/hexagon_symbol.png\" style=\"width:14px;height:14px\"> 4, but there is no way to make 1, 3, or 5 using just 4.","orientation_history":[0],"rt":7449,"trial_type":"polygon-arrow-feedback","trial_index":0,"trial_index_global":42,"time_elapsed":3019776,"internal_chunk_id":"0-0.10-0"},{"nsides":6,"question":"Is 0 a generator under <img src=\"./images/hexagon_symbol.png\" style=\"width:14px;height:14px\">? <br /><br /> (Remember, a generator is an element which can make every other element.)","response_type":"multi","response_choices":["Yes","No"],"correct_response":"No","response":"No","orientation_history":[[0]],"response_history":["No"],"rt":7627,"trial_type":"polygon-arrow-question","trial_index":0,"trial_index_global":43,"time_elapsed":3027404,"internal_chunk_id":"0-0.10-0"},{"nsides":6,"feedback":"Correct! 0 is not a generator under <img src=\"./images/hexagon_symbol.png\" style=\"width:14px;height:14px\">, because 0 = 0, but there is no way to make 1, 2, 3, 4, or 5 using just 0.","orientation_history":[0],"rt":1795,"trial_type":"polygon-arrow-feedback","trial_index":0,"trial_index_global":44,"time_elapsed":3029200,"internal_chunk_id":"0-0.10-0"},{"nsides":6,"question":"Let's review: under <img src=\"./images/hexagon_symbol.png\" style=\"width:14px;height:14px\">, 1 and 5 are generators. However, 0, 2, 3 and 4 are not generators. Try playing with these non-generators on the hexagon and seeing which elements each of them does generate (i.e. which elements you can get by combining each non-generator with itself repeatedly). Do you see spatial relationships among particular subsets of the elements that are not generators under <img src=\"./images/hexagon_symbol.png\" style=\"width:14px;height:14px\">?","response_type":"free","response_choices":[],"correct_response":"","response":"To be completely honest, I am not sure that I am wholly understanding the generator concep t, or ev en the question above as it is phrased. But from what I *think* it means, and from viewing the spatial relationships, I believe that only the numbers directly opposite each other on the upper portion of the hexagon are generators, and that when combining the subsets of non-generators, with the exception of 0, you essentially get the number that is also directly opposite as a result? (i.e., 2 - 4, 4 - 2, 3 - 0). I am not entirely sure if that is correct, but that is my best guess (fyi -- I am terrible with numbers, and instructions involving numbers; I was actually amazed to have even grasped the first two concepts with ease). Where I got confused is at the instructions beginning with 1:2 = 1 <6 symbol> 1, 3 = 1 <---- I don't understand what the ratio symbol is intended to signify in the example. ","orientation_history":[[0]],"response_history":["I","Tob","To","T ","To be completely honest, I am not sure that I am understn","To be completely honest, I am not sure that I am un derstad","To be completely honest, I am not sure that I am understanding the generator concept. ","To be completely honest, I am not sure that I am counderstanding the generator concept. ","To be completely honest, I am not sure that I am comunderstanding the generator concept. ","To be completely honest, I am not sure that I am compunderstanding the generator concept. ","To be completely honest, I am not sure that I am comunderstanding the generator concept. ","To be completely honest, I am not sure that I am counderstanding the generator concept. ","To be completely honest, I am not sure that I am cunderstanding the generator concept. ","To be completely honest, I am not sure that I am understanding the generator concept. ","To be completely honest, I am not sure that I am whunderstanding the generator concept. ","To be completely honest, I am not sure that I am whounderstanding the generator concept. ","To be completely honest, I am not sure that I am wholunderstanding the genera tor conc ept. ","To be completely honest, I am not sure that I am whollyunderstanding the generator concept. ","To be completely honest, I am not sure that I am wholly understanding the generator concept. But, ","To be completely honest, I am not sure that I am wholly understanding the generator concept. But,","To be completely honest, I am not sure that I am wholly understanding the generator concept. But form ","To be completely honest, I am not sure that I am wholly understanding the generator concept. But form","To be completely honest, I am not sure that I am wholly understanding the generator concept. But for","To be completely honest, I am not sure that I am wholly understanding the generator concept. But fo","To be completely honest, I am not sure that I am wholly understanding the generator concept. But from what I *think* it means ","To be completely honest, I am not sure that I am wholly understanding the generator concept. But from what I *think* it means, is that only th e number  ","To be completely honest, I am not sure that I am wholly understanding the generator concept. But from what I *think* it means, is that only the numbers ni","To be completely honest, I am not sure that I am wholly understanding the generator concept. But from what I *think* it means, is that only the numbers n","To be completely honest, I am not sure that I am wholly understanding the generator concept. But from what I *think* it means, is that only the numbers directly opposite each other on the uppr ","To be completely honest, I am not sure that I am wholly understanding the generator concept. But from what I *think* it means, is that only the numbers directly opposite each other on the uppr","To be completely honest, I am not sure that I am wholly understanding the generator concept. But from what I *think* it means, is that only the numbers directly opposite each other on the upper portion of","To be completely honest, I am not sure that I am wholly understanding the  generato r concept. But from what I *think* it means, andis that only the numbers directly opposite each other on the upper portion of","To be completely honest, I am not sure that I am wholly understanding the generator concept. But from what I *think* it means, and is that only the numbers directly opposite each other on the upper portion of","To be completely honest, I am not sure that I am wholly understanding the generator concept. But from what I *think* it means, and fis that only the numbers directly opposite each other on the upper portion of","To be completely honest, I am not sure that I am wholly understanding the generator concept. But from what I *think* it means, and fromis that only the numbers directly opposite each other on the upper portion of","To be completely honest, I am not sure that I am wholly understanding the generator concept. But from what I *think* it means, and from is that only the numbers directly opposite each other on the upper portion of","To be c ompletel y honest, I am not sure that I am wholly understanding the generator concept. But from what I *think* it means, and from viis that only the numbers directly opposite each other on the upper portion of","To be completely honest, I am not sure that I am wholly understanding the generator concept. But from what I *think* it means, and from vieis that only the numbers directly opposite each other on the upper portion of","To be completely honest, I am not sure that I am wholly understanding the generator concept. But from what I *think* it means, and from viewis that only the numbers directly opposite each other on the upper portion of","To be completely honest, I am not sure that I am wholly understanding the generator concept. But from what I *think* it means, and from viewinis that only the numbers directly opposite each other on the upper portion of","To be completely honest, I am not sure that I am wholly understanding the generator concept. But from what I *think* it means , and fr om viewingis that only the numbers directly opposite each other on the upper portion of","To be completely honest, I am not sure that I am wholly understanding the generator concept. But from what I *think* it means, and from viewing is that only the numbers directly opposite each other on the upper portion of","To be completely honest, I am not sure that I am wholly understanding the generator concept. But from what I *think* it means, and from viewing tis that only the numbers directly opposite each other on the upper portion of","To be completely honest, I am not sure that I am wholly understanding the generator concept. But from what I *think* it means, and from viewing theis that only the numbers directly opposite each other on the upper portion of","To be completely honest, I am not sure that I am wholly understanding the generator concept. But from what I *think* it means, and from viewing the is that only the numbers directly opposite each other on the upper portion  of","To  be completely honest, I am not sure that I am wholly understanding the generator concept. But from what I *think* it means, and from viewing the spais that only the numbers directly opposite each other on the upper portion of","To be completely honest, I am not sure that I am wholly understanding the generator concept. But from what I *think* it means, and from viewing the spatiais that only the numbers directly opposite each other on the upper portion of","To be completely honest, I am not sure that I am wholly understanding the generator concept. But from what I *think* it means, and from viewing the spatial is that only the numbers directly opposite each other on the upper portion of","To be completely honest, I am not sure that I am wholly understanding the generator concept. But from what I *think* it means, and from viewing the spatial reis that only the numbers directly opposite each other on the upper portion of","To be completely honest, I am not sure that I am whol ly under standing the generator concept. But from what I *think* it means, and from viewing the spatial relis that only the numbers directly opposite each other on the upper portion of","To be completely honest, I am not sure that I am wholly understanding the generator concept. But from what I *think* it means, and from viewing the spatial relais that only the numbers directly opposite each other on the upper portion of","To be completely honest, I am not sure that I am wholly understanding the generator concept. But from what I *think* it means, and from viewing the spatial relatiis that only the numbers directly opposite each other on the upper portion of","To be completely honest, I am not sure that I am wholly understanding the generator concept. But from what I *think* it means, and from viewing the spatial relatiois that only the numbers directly opposite each other on the upper portion of","To be completely honest, I am not sure that I am wholly understanding the generator co ncept. B ut from what I *think* it means, and from viewing the spatial relationis that only the numbers directly opposite each other on the upper portion of","To be completely honest, I am not sure that I am wholly understanding the generator concept. But from what I *think* it means, and from viewing the spatial relationshiis that only the numbers directly opposite each other on the upper portion of","To be completely honest, I am not sure that I am wholly understanding the generator concept. But from what I *think* it means, and from viewing the spatial relationshipis that only the numbers directly opposite each other on the upper portion of","To be completely honest, I am not sure that I am wholly understanding the generator concept. But from what I *think* it means, and from viewing the spatial relationshipsis that only the numbers directly opposite each other on the upper portion of","To be completely honest, I am not sure that I am wholly understanding the generator concept. Bu t from w hat I *think* it means, and from viewing the spatial relationships, is that only the numbers directly opposite each other on the upper portion of","To be completely honest, I am not sure that I am wholly understanding the generator concept. But from what I *think* it means, and from viewing the spatial relationships, isIthat only the numbers directly opposite each other on the upper portion of","To be completely honest, I am not sure that I am wholly understanding the generator concept. But from what I *think* it means, and from viewing the spatial relationships, isI that only the numbers directly opposite each other on the upper portion of","To be completely honest, I am not sure that I am wholly understanding the generator concept. But from what I *think* it means, and from viewing the spatial relationships, isI bthat only the numbers directly opposite each other on the upper portion of","To be completely honest, I am not sure that I am wholly understanding the generator c oncept.  But from what I *think* it means, and from viewing the spatial relationships, isI belithat only the numbers directly opposite each other on the upper portion of","To be completely honest, I am not sure that I am wholly understanding the generator concept. But from what I *think* it means, and from viewing the spatial relationships, isI beliethat only the numbers directly opposite each other on the upper portion of","To be completely honest, I am not sure that I am wholly understanding the generator concept. But from what I *think* it means, and from viewing the spatial relationships, isI believthat only the numbers directly opposite each other on the upper portion of","To be completely honest, I am not sure that I am wholly understanding the generator concept. But from what I *think* it means, and from viewing the spatial relationships, isI believethat only the numbers directly opposite each other on the upper portion of","To be completely honest, I am not sure that I am who lly unde rstanding the generator concept. But from what I *think* it means, and from viewing the spatial relationships, isI believe that only the numbers directly opposite each other on the upper portion of the hexagon are generati","To be completely honest, I am not sure that I am wholly understanding the generator concept. But from what I *think* it means, and from viewing the spatial relationships, isI believe that only the numbers directly opposite each other on the upper portion of the hexagon are generators. ","To be completely honest, I am not sure that I am wholly understanding the generator concept, . But from what I *think* it means, and from viewing the spatial relationships, isI believe that only the numbers directly opposite each other on the upper portion of the hexagon are generators. ","To be completely honest, I am not sure that I am wholly understanding the generator concept, o. But from what I *think* it means, and from viewing the spatial relationships, isI believ e that o nly the numbers directly opposite each other on the upper portion of the hexagon are generators. ","To be completely honest, I am not sure that I am wholly understanding the generator concept, or. But from what I *think* it means, and from viewing the spatial relationships, isI believe that only the numbers directly opposite each other on the upper portion of the hexagon are generators. ","To be completely honest, I am not sure that I am wholly understanding the generator concept, or . But from what I *think* it means, and from viewing the spatial relationships, isI believe that only the numbers directly opposite each other on the upper portion of the hexagon are generators. ","To be completely honest, I am not sure that I am wholly understanding the generator concept, or e. But from what I *think* it means, and from viewing the spatial relationships, isI believe that only the numbers directly opposite each other on the upper portion of the hexagon are generators. ","To be c ompletel y honest, I am not sure that I am wholly understanding the generator concept, or ev. But from what I *think* it means, and from viewing the spatial relationships, isI believe that only the numbers directly opposite each other on the upper portion of the hexagon are generators. ","To be completely honest, I am not sure that I am wholly understanding the generator concept, or even . But from what I *think* it means, and from viewing the spatial relationships, isI believe that only the numbers directly opposite each other on the upper portion of the hexagon are generators. ","To be completely honest, I am not sure that I am wholly understanding the generator concept, or even the. But from what I *think* it means, and from viewing the spatial relationships, isI believe that only the numbers directly opposite each other on the upper portion of the hexagon are generators. ","To be completely honest, I am not sure that I am wholly understanding the generator concept, or even the .  But from  what I *think* it means, and from viewing the spatial relationships, isI believe that only the numbers directly opposite each other on the upper portion of the hexagon are generators. ","To be completely honest, I am not sure that I am wholly understanding the generator concept, or even the q. But from what I *think* it means, and from viewing the spatial relationships, isI believe that only the numbers directly opposite each other on the upper portion of the hexagon are generators. ","To be completely honest, I am not sure that I am wholly understanding the generator concept, or even the qu. But from what I *think* it means, and from viewing the spatial relationships, isI believe that only the numbers directly opposite each other on the upper portion of the hexagon are generators. ","To be completely honest, I am not sure that I am wholly understanding the generator concept, or even the ques. But from what I *think* it means, and from viewing the spatial relationships, isI  believe  that only the numbers directly opposite each other on the upper portion of the hexagon are generators. ","To be completely honest, I am not sure that I am wholly understanding the generator concept, or even the quesit. But from what I *think* it means, and from viewing the spatial relationships, isI believe that only the numbers directly opposite each other on the upper portion of the hexagon are generators. ","To be completely honest, I am not sure that I am wholly understanding the generator concept, or even the quesiton. But from what I *think* it means, and from viewing the spatial relationships, isI believe that only the numbers directly opposite each other on the upper portion of the hexagon are generators. ","To be completely honest, I am not sure that I am wholly understanding the generator concept, or even the quesiton . But from what I *think* it means, and from viewing the spatial relationships, isI believe that only the numbers directly opposite each other on th e upper  portion of the hexagon are generators. ","To be completely honest, I am not sure that I am wholly understanding the generator concept, or even the quesiton ab. But from what I *think* it means, and from viewing the spatial relationships, isI believe that only the numbers directly opposite each other on the upper portion of the hexagon are generators. ","To be completely honest, I am not sure that I am wholly understanding the generator concept, or even the quesiton abo. But from what I *think* it means, and from viewing the spatial relationships, isI believe that only the numbers directly opposite each other on the upper portion of the hexagon are generators. ","To be completely honest, I am not sure that I am wholly understanding the generator concept, or even the quesiton abov. But from what I *think* it means, and from viewing the spatial relationships, isI believe that only the numbers directly opposite each other on the upper portion of the hexagon are generators. ","To  be comp letely honest, I am not sure that I am wholly understanding the generator concept, or even the quesiton above. But from what I *think* it means, and from viewing the spatial relationships, isI believe that only the numbers directly opposite each other on the upper portion of the hexagon are generators. ","To be completely honest, I am not sure that I am wholly understanding the generator concept, or even the quesiton above . But from what I *think* it means, and from viewing the spatial relationships, isI believe that only the numbers directly opposite each other on the upper portion of the hexagon are generators. ","To be completely honest, I am not sure that I am wholly understanding the generator concept, or even the quesiton above as. But from what I *think* it means, and from viewing the spatial relationships, isI believe that only the numbers directly opposite each other on the upper portion of the hexagon are generators. ","To be completely honest, I am not sure that  I am who lly understanding the generator concept, or even the quesiton above as . But from what I *think* it means, and from viewing the spatial relationships, isI believe that only the numbers directly opposite each other on the upper portion of the hexagon are generators. ","To be completely honest, I am not sure that I am wholly understanding the generator concept, or even the quesiton above as it. But from what I *think* it means, and from viewing the spatial relationships, isI believe that only the numbers directly opposite each other on the upper portion of the hexagon are generators. ","To be completely honest, I am not sure that I am wholly understanding the generator concept, or even the quesiton above as it . But from what I *think* it means, and from viewing the spatial relationships, isI believe that only the numbers directly opposite each other on the upper portion of the hexagon are generators. ","To be completely honest, I am not sure that I am wholly understanding the  generat or concept, or even the quesiton above as it is. But from what I *think* it means, and from viewing the spatial relationships, isI believe that only the numbers directly opposite each other on the upper portion of the hexagon are generators. ","To be completely honest, I am not sure that I am wholly understanding the generator concept, or even the quesiton above as it is . But from what I *think* it means, and from viewing the spatial relationships, isI believe that only the numbers directly opposite each other on the upper portion of the hexagon are generators. ","To be completely honest, I am not sure that I am wholly understanding the generator concept, or even the quesiton above as it is p. But from what I *think* it means, and from viewing the spatial relationships, isI believe that only the numbers directly opposite each other on the upper portion of the hexagon are generators. ","To be completely honest, I am not sure that I am wholly understanding the generator conce pt, or e ven the quesiton above as it is phr. But from what I *think* it means, and from viewing the spatial relationships, isI believe that only the numbers directly opposite each other on the upper portion of the hexagon are generators. ","To be completely honest, I am not sure that I am wholly understanding the generator concept, or even the quesiton above as it is phra. But from what I *think* it means, and from viewing the spatial relationships, isI believe that only the numbers directly opposite each other on the upper portion of the hexagon are generators. ","To be completely honest, I am not sure that I am wholly understanding the generator concept, or even the quesiton above as it is phras. But from what I *think* it means, and from viewing the spatial relationships, isI believe that only the numbers directly opposite each other on the upper portion of the hexagon are generators. ","To be completely honest, I am not sure that I am wholly understanding the generator concept,  or even  the quesiton above as it is phrase. But from what I *think* it means, and from viewing the spatial relationships, isI believe that only the numbers directly opposite each other on the upper portion of the hexagon are generators. ","To be completely honest, I am not sure that I am wholly understanding the generator concept, or even the quesiton above as it is phrased. But from what I *think* it means, and from viewing the spatial relationships, isI believe that only the numbers directly opposite each other on the upper portion of the hexagon are generators. ","To be completely honest, I am not sure that I am wholly understanding the generator concept, or even the quesiton above as it is phrased. . But from what I *think* it means, and from viewing the spatial relationships, isI believe that only the numbers directly opposite each other on the upper portion of the hexagon are generators. ","To be completely honest, I am not sure that I am wholly understanding the generator con cept, or  even the quesiton above as it is phrased.. But from what I *think* it means, and from viewing the spatial relationships, isI believe that only the numbers directly opposite each other on the upper portion of the hexagon are generators. ","To be completely honest, I am not sure that I am wholly understanding the generator concept, or even the quesiton above as it is phrased. But from what I *think* it means, and from viewing the spatial relationships, isI believe that only the numbers directly opposite each other on the upper portion of the hexagon are generators. ","To be completely honest, I am not sure that I am wholly understanding the generator concept, or even the question above as it is phrased. But from what I *think* it means, and from viewing the spatial relationships, isI believe that only the numbers directly opposite each other on the upper portion of the hexagon are generators.","To be completely honest, I am not sure that I am wholly understanding the generato r concep t, or even the question above as it is phrased. But from what I *think* it means, and from viewing the spatial relationships, isI believe that only the numbers directly opposite each other on the upper portion of the hexagon are generators, and that ","To be completely honest, I am not sure that I am wholly understanding the generator concept, or even the question above as it is phrased. But from what I *think* it means, and from viewing the spatial relationships, isI believe that only the numbers directly opposite each other on the upper portion of the hexagon are generators, and that when combiinin","To be completely honest, I am not sure that I am wholly understanding the generator concept, or even the question above as it is phrased. But from what I *think* it means, and from viewing the spatial relationships, isI believe that only the numbers directly opposite each other on the upper portion of the hexagon are generators, and that when combiini","To be completely honest , I am n ot sure that I am wholly understanding the generator concept, or even the question above as it is phrased. But from what I *think* it means, and from viewing the spatial relationships, isI believe that only the numbers directly opposite each other on the upper portion of the hexagon are generators, and that when combiin","To be completely honest, I am not sure that I am wholly understanding the generator concept, or even the question above as it is phrased. But from what I *think* it means, and from viewing the spatial relationships, isI believe that only the numbers directly opposite each other on the upper portion of the hexagon are generators, and that when combii","To be completely honest, I am not sure that I am wholly understanding the generator concept, or even the question above as it is phrased. But from what I *think* it means, and from viewing the spatial relationships, isI believe that only the numbers directly opposite each other on the upper portion of the hexa gon are  generators, and that when combining the","To be completely honest, I am not sure that I am wholly understanding the generator concept, or even the question above as it is phrased. But from what I *think* it means, and from viewing the spatial relationships, isI believe that only the numbers directly opposite each other on the upper portion of the hexagon are generators, and that when combining th","To be completely honest, I am not sure that I am wholly understanding the generator concept, or even the question above as it is phrased. But from what I *think* it means, and from viewing the spatial relationships, isI believe that only the numbers directly opposite each other on the upper portion of the hexagon are generators, and that when combining t","To be completely honest, I am not sure that I am wholly understanding the generator concept, or even the question above as it is phrased. But from what I *think* it means, and from viewing the spatial relationships, isI believe  that onl y the numbers directly opposite each other on the upper portion of the hexagon are generators, and that when combining ","To be completely honest, I am not sure that I am wholly understanding the generator concept, or even the question above as it is phrased. But from what I *think* it means, and from viewing the spatial relationships, isI believe that only the numbers directly opposite each other on the upper portion of the hexagon are generators, and that when combining the subset ","To be completely honest, I am not sure that I am wholly understanding the generator concept, or even the question above as it is phrased. But from what I *think* it means, and from viewing the spatial relationships, isI believe that only the numbers directly opposite each other on the upper portion of the hexagon are generators, and that when combining the subsets of non-generators, you esss","To be completely honest, I am not sure that I am wholly understanding the generator concept, or even  the ques tion above as it is phrased. But from what I *think* it means, and from viewing the spatial relationships, isI believe that only the numbers directly opposite each other on the upper portion of the hexagon are generators, and that when combining the subsets of non-generators, you essentially get the number that is also directly oppostite","To be completely honest, I am not sure that I am wholly understanding the generator concept, or even the question above as it is phrased. But from what I *think* it means, and from viewing the spatial relationships, isI believe that only the numbers directly opposite each other on the upper portion of the hexagon are generators, and that when combining the subsets of non-generators, you essentially get the number that is also directly oppostit","To be completely honest, I am not sure that I am wholly understanding the generator concept, or even the question above as it is phrased. But from what I *think* it means, and from viewing the spat ial rela tionships, isI believe that only the numbers directly opposite each other on the upper portion of the hexagon are generators, and that when combining the subsets of non-generators, you essentially get the number that is also directly opposti","To be completely honest, I am not sure that I am wholly understanding the generator concept, or even the question above as it is phrased. But from what I *think* it means, and from viewing the spatial relationships, isI believe that only the numbers directly opposite each other on the upper portion of the hexagon are generators, and that when combining the subsets of non-generators, you essentially get the number that is also directly oppost","To be completely honest, I am not sure that I am wholly understanding the generator concept, or even the question above as it is phrased. But from what I *think* it means, and from viewing the spatial relationships, isI believe that only the numbers directly opposite each other on the upper porti on of th e hexagon are generators, and that when combining the subsets of non-generators, you essentially get the number that is also directly opposite as a result. ","To be completely honest, I am not sure that I am wholly understanding the generator concept, or even the question above as it is phrased. But from what I *think* it means, and from viewing the spatial relationships, isI believe that only the numbers directly opposite each other on the upper portion of the hexagon are generators, and that when combining the subsets of non-generators, you essentially get the number that is also directly opposite as a result.","To be completely honest, I am not sure that I am wholly understanding the generator concept, or even the question above as it is phrased. But from what I *think* it means, and from viewing the spatial relationships, isI believe that only the numbers directly opposite each other on the upper portion of the hexagon are generators, and that when combining the subsets  of non-g enerators, you essentially get the number that is also directly opposite as a result (i.e., 2","To be completely honest, I am not sure that I am wholly understanding the generator concept, or even the question above as it is phrased. But from what I *think* it means, and from viewing the spatial relationships, isI believe that only the numbers directly opposite each other on the upper portion of the hexagon are generators, and that when combining the subsets of non-generators, you essentially get the number that is also directly opposite as a result? (i.e., 2 -4 ","To be completely honest, I am not sure that I am wholly understanding the generator concept, or even the question above as it is phrased. But from what I *think* it means, and from viewing the spatial relationships, isI believe that only the numbers directly opposite each other on the upper portion of the hexagon are generators, and that when combining the subsets of non-generators, you essentially get the number  that is  also directly opposite as a result? (i.e., 2 -4","To be completely honest, I am not sure that I am wholly understanding the generator concept, or even the question above as it is phrased. But from what I *think* it means, and from viewing the spatial relationships, isI believe that only the numbers directly opposite each other on the upper portion of the hexagon are generators, and that when combining the subsets of non-generators, you essentially get the number that is also directly opposite as a result? (i.e., 2 - 4, 4-","To be completely honest, I am not sure that I am wholly understanding the generator concept, or even the question above as it is phrased. But from what I *think* it means, and from viewing the spatial relationships, isI believe that only the numbers directly opposite each other on the upper portion of the hexagon are generators, and that when combining the subsets of non-generators, you essentially get the number that is also directly opposite as a result ? (i.e.,  2 - 4, 4 0","To be completely honest, I am not sure that I am wholly understanding the generator concept, or even the question above as it is phrased. But from what I *think* it means, and from viewing the spatial relationships, isI believe that only the numbers directly opposite each other on the upper portion of the hexagon are generators, and that when combining the subsets of non-generators, you essentially get the number that is also directly opposite as a result? (i.e., 2 - 4, 4 -","To be completely honest, I am not sure that I am wholly understanding the generator concept, or even the question above as it is phrased. But from what I *think* it means, and from viewing the spatial relationships, isI believe that only the numbers directly opposite each other on the upper portion of the hexagon are generators, and that when combining the subsets of non-generators, you essentially get the number that is also directly opposite as a result? (i.e., 2 - 4, 4 -  ","To be compl etely ho nest, I am not sure that I am wholly understanding the generator concept, or even the question above as it is phrased. But from what I *think* it means, and from viewing the spatial relationships, isI believe that only the numbers directly opposite each other on the upper portion of the hexagon are generators, and that when combining the subsets of non-generators, you essentially get the number that is also directly opposite as a result? (i.e., 2 - 4, 4 - 2 ","To be completely honest, I am not sure that I am wholly understanding the generator concept, or even the question above as it is phrased. But from what I *think* it means, and from viewing the spatial relationships, isI believe that only the numbers directly opposite each other on the upper portion of the hexagon are generators, and that when combining the subsets of non-generators, you essentially get the number that is also directly opposite as a result? (i.e., 2 - 4, 4 - 2 ,","To be completely honest, I am not sure  that I a m wholly understanding the generator concept, or even the question above as it is phrased. But from what I *think* it means, and from viewing the spatial relationships, isI believe that only the numbers directly opposite each other on the upper portion of the hexagon are generators, and that when combining the subsets of non-generators, you essentially get the number that is also directly opposite as a result? (i.e., 2 - 4, 4 - 2 ","To be completely honest, I am not sure that I am wholly understanding the generator concept, or even the question above as it is phrased. But from what I *think* it means, and from viewing the spatial relationships, isI believe that only the numbers directly opposite each other on the upper portion of the hexagon are generators, and that when combining the subsets of non-generators, you essentially get the number that is also directly opposite as a result? (i.e., 2 - 4, 4 - 2, ","To be completely honest, I am not sure that I am wholly understandi ng the g enerator concept, or even the question above as it is phrased. But from what I *think* it means, and from viewing the spatial relationships, isI believe that only the numbers directly opposite each other on the upper portion of the hexagon are generators, and that when combining the subsets of non-generators, you essentially get the number that is also directly opposite as a result? (i.e., 2 - 4, 4 - 2, 3 - 0","To be completely honest, I am not sure that I am wholly understanding the generator concept, or even the question above as it is phrased. But from what I *think* it means, and from viewing the spatial relationships, isI believe that only the numbers directly opposite each other on the upper portion of the hexagon are generators, and that when combining the subsets of non-generators, you essentially get the number that is also directly opposite as a result? (i.e., 2 - 4, 4 - 2, 3 - ","To be completely honest, I am not sure that I am wholly understanding the generator c oncept,  or even the question above as it is phrased. But from what I *think* it means, and from viewing the spatial relationships, isI believe that only the numbers directly opposite each other on the upper portion of the hexagon are generators, and that when combining the subsets of non-generators, you essentially get the number that is also directly opposite as a result? (i.e., 2 - 4, 4 - 2, 3 -","To be completely honest, I am not sure that I am wholly understanding the generator concept, or even the question above as it is phrased. But from what I *think* it means, and from viewing the spatial relationships, isI believe that only the numbers directly opposite each other on the upper portion of the hexagon are generators, and that when combining the subsets of non-generators, you essentially get the number that is also directly opposite as a result? (i.e., 2 - 4, 4 - 2, 3 - 0)","To be completely honest, I am not sure that I am wholly understanding the generator concept, or even th e questi on above as it is phrased. But from what I *think* it means, and from viewing the spatial relationships, isI believe that only the numbers directly opposite each other on the upper portion of the hexagon are generators, and that when combining the subsets of non-generators, wityou essentially get the number that is also directly opposite as a result? (i.e., 2 - 4, 4 - 2, 3 - 0)","To be completely honest, I am not sure that I am wholly understanding the generator concept, or even the question above as it is phrased. But from what I *think* it means, and from viewing the spatial relationships, isI believe that only the numbers directly opposite each other on the upper portion of the hexagon are generators, and that when combining the subsets of non-generators, withyou essentially get the number that is also directly opposite as a result? (i.e., 2 - 4, 4 - 2, 3 - 0)","To be completely honest, I am not sure that I am wholly understanding the generator concept, or even the questi on above  as it is phrased. But from what I *think* it means, and from viewing the spatial relationships, isI believe that only the numbers directly opposite each other on the upper portion of the hexagon are generators, and that when combining the subsets of non-generators, with you essentially get the number that is also directly opposite as a result? (i.e., 2 - 4, 4 - 2, 3 - 0)","To be completely honest, I am not sure that I am wholly understanding the generator concept, or even the question above as it is phrased. But from what I *think* it means, and from viewing the spatial relationships, isI believe that only the numbers directly opposite each other on the upper portion of the hexagon are generators, and that when combining the subsets of non-generators, with tyou essentially get the number that is also directly opposite as a result? (i.e., 2 - 4, 4 - 2, 3 - 0)","To be completely honest, I am not sure that I am wholly understanding the generator concept, or even the question a bove as  it is phrased. But from what I *think* it means, and from viewing the spatial relationships, isI believe that only the numbers directly opposite each other on the upper portion of the hexagon are generators, and that when combining the subsets of non-generators, with theyou essentially get the number that is also directly opposite as a result? (i.e., 2 - 4, 4 - 2, 3 - 0)","To be completely honest, I am not sure that I am wholly understanding the generator concept, or even the question above as it is phrased. But from what I *think* it means, and from viewing the spatial relationships, isI believe that only the numbers directly opposite each other on the upper portion of the hexagon are generators, and that when combining the subsets of non-generators, with the you essentially get the number that is also directly opposite as a result? (i.e., 2 - 4, 4 - 2, 3 - 0)","To be completely honest, I am not sure that I am wholly understanding the generator concept, or even the question  above a s it is phrased. But from what I *think* it means, and from viewing the spatial relationships, isI believe that only the numbers directly opposite each other on the upper portion of the hexagon are generators, and that when combining the subsets of non-generators, with the eyou essentially get the number that is also directly opposite as a result? (i.e., 2 - 4, 4 - 2, 3 - 0)","To be completely honest, I am not sure that I am wholly understanding the generator concept, or even the question above as it is phrased. But from what I *think* it means, and from viewing the spatial relationships, isI believe that only the numbers directly opposite each other on the upper portion of the hexagon are generators, and that when combining the subsets of non-generators, with the expyou essentially get the number that is also directly opposite as a result? (i.e., 2 - 4, 4 - 2, 3 - 0)","To be completely honest, I am not sure that I am wholly understanding the generator concept, or even the q uestion  above as it is phrased. But from what I *think* it means, and from viewing the spatial relationships, isI believe that only the numbers directly opposite each other on the upper portion of the hexagon are generators, and that when combining the subsets of non-generators, with the expeyou essentially get the number that is also directly opposite as a result? (i.e., 2 - 4, 4 - 2, 3 - 0)","To be completely honest, I am not sure that I am wholly understanding the generator concept, or even the question above as it is phrased. But from what I *think* it means, and from viewing the spatial relationships, isI believe that only the numbers directly opposite each other on the upper portion of the hexagon are generators, and that when combining the subsets of non-generators, with the expyou essentially get the number that is also directly opposite as a result? (i.e., 2 - 4, 4 - 2, 3 - 0)","To be completely honest, I am not sure that I am wholly understanding the generator concept, or  even the  question above as it is phrased. But from what I *think* it means, and from viewing the spatial relationships, isI believe that only the numbers directly opposite each other on the upper portion of the hexagon are generators, and that when combining the subsets of non-generators, with the exyou essentially get the number that is also directly opposite as a result? (i.e., 2 - 4, 4 - 2, 3 - 0)","To be completely honest, I am not sure that I am wholly understanding the generator concept, or even the question above as it is phrased. But from what I *think* it means, and from viewing the spatial relationships, isI believe that only the numbers directly opposite each other on the upper portion of the hexagon are generators, and that when combining the subsets of non-generators, with the exceyou essentially get the number that is also directly opposite as a result? (i.e., 2 - 4, 4 - 2, 3 - 0)","To be completely honest, I am not sure that I am wholly understanding the generator con cept, or  even the question above as it is phrased. But from what I *think* it means, and from viewing the spatial relationships, isI believe that only the numbers directly opposite each other on the upper portion of the hexagon are generators, and that when combining the subsets of non-generators, with the exceptyou essentially get the number that is also directly opposite as a result? (i.e., 2 - 4, 4 - 2, 3 - 0)","To be completely honest, I am not sure that I am wholly understanding the generator concept, or even the question above as it is phrased. But from what I *think* it means, and from viewing the spatial relationships, isI believe that only the numbers directly opposite each other on the upper portion of the hexagon are generators, and that when combining the subsets of non-generators, with the exceptiyou essentially get the number that is also directly opposite as a result? (i.e., 2 - 4, 4 - 2, 3 - 0)","To be completely honest, I am not sure that I am wholly understanding t he gener ator concept, or even the question above as it is phrased. But from what I *think* it means, and from viewing the spatial relationships, isI believe that only the numbers directly opposite each other on the upper portion of the hexagon are generators, and that when combining the subsets of non-generators, with the exceptionyou essentially get the number that is also directly opposite as a result? (i.e., 2 - 4, 4 - 2, 3 - 0)","To be completely honest, I am not sure that I am wholly understanding the generator concept, or even the question above as it is phrased. But from what I *think* it means, and from viewing the spatial relationships, isI believe that only the numbers directly opposite each other on the upper portion of the hexagon are generators, and that when combining the subsets of non-generators, with the exception you essentially get the number that is also directly opposite as a result? (i.e., 2 - 4, 4 - 2, 3 - 0)","To be completely honest, I am not sure that I am  wholly u nderstanding the generator concept, or even the question above as it is phrased. But from what I *think* it means, and from viewing the spatial relationships, isI believe that only the numbers directly opposite each other on the upper portion of the hexagon are generators, and that when combining the subsets of non-generators, with the exception o you essentially get the number that is also directly opposite as a result? (i.e., 2 - 4, 4 - 2, 3 - 0)","To be completely honest, I am not sure that I am wholly understanding the generator concept, or even the question above as it is phrased. But from what I *think* it means, and from viewing the spatial relationships, isI believe that only the numbers directly opposite each other on the upper portion of the hexagon are generators, and that when combining the subsets of non-generators, with the exception oyou essentially get the number that is also directly opposite as a result? (i.e., 2 - 4, 4 - 2, 3 - 0)","To be completely honest , I am n ot sure that I am wholly understanding the generator concept, or even the question above as it is phrased. But from what I *think* it means, and from viewing the spatial relationships, isI believe that only the numbers directly opposite each other on the upper portion of the hexagon are generators, and that when combining the subsets of non-generators, with the exception of you essentially get the number that is also directly opposite as a result? (i.e., 2 - 4, 4 - 2, 3 - 0)","To be completely honest, I am not sure that I am wholly understanding the generator concept, or even the question above as it is phrased. But from what I *think* it means, and from viewing the spatial relationships, isI believe that only the numbers directly opposite each other on the upper portion of the hexagon are generators, and that when combining the subsets of non-generators, with the exception of 0 you essentially get the number that is also directly opposite as a result? (i.e., 2 - 4, 4 - 2, 3  - 0). I  am not entirely sure t","To be completely honest, I am not sure that I am wholly understanding the generator concept, or even the question above as it is phrased. But from what I *think* it means, and from viewing the spatial relationships, isI believe that only the numbers directly opposite each other on the upper portion of the hexagon are generators, and that when combining the subsets of non-generators, with the exception of 0 you essentially get the number that is also directly opposite as a result? (i.e., 2 - 4, 4 - 2, 3 - 0). I am not entirely sure if that is correct. ","To be completely honest, I am not sure that I am wholly understanding the generator concept, or even the question above as it is phrased. But from what I *think* it means, and from viewing the spatial relationships, isI believe that only the numbers directly opposite each other on the upper portion of the hexagon are generators, and that when combining the subsets of non-generators, with the exceptio n of 0 y ou essentially get the number that is also directly opposite as a result? (i.e., 2 - 4, 4 - 2, 3 - 0). I am not entirely sure if that is correct.","To be completely honest, I am not sure that I am wholly understanding the generator concept, or even the question above as it is phrased. But from what I *think* it means, and from viewing the spatial relationships, isI believe that only the numbers directly opposite each other on the upper portion of the hexagon are generators, and that when combining the subsets of non-generators, with the exception of 0 you essentially get the number that is also directly opposite as a result? (i.e., 2 - 4, 4 - 2, 3 - 0). I am not entirely sure if that is correct, but that is my best guess. ","To be completely honest, I am not sure that I am wholly understanding the generator concept, or even the question above as it is phrased. But from what I *think* it means, and from viewing the spatial relationships, isI believe that only the numbers dire ctly opp osite each other on the upper portion of the hexagon are generators, and that when combining the subsets of non-generators, with the exception of 0 you essentially get the number that is also directly opposite as a result? (i.e., 2 - 4, 4 - 2, 3 - 0). I am not entirely sure if that is correct, but that is my best guess . ","To be completely honest, I am not sure that I am wholly understanding the generator concept, or even the question above as it is phrased. But from what I *think* it means, and from viewing the spatial relationships, isI believe that only the numbers directly opposite each other on the upper portion of the hexagon are generators, and that when combining the subsets of non-generators, with the exception of 0 you essentially get the number that is also directly opposite as a result? (i.e., 2 - 4, 4 - 2, 3 - 0). I am not entirely sure if that is correct, but that is my best guess (. ","To be completely honest, I am not sure that I am wholly understanding the  generato r concept, or even the question above as it is phrased. But from what I *think* it means, and from viewing the spatial relationships, isI believe that only the numbers directly opposite each other on the upper portion of the hexagon are generators, and that when combining the subsets of non-generators, with the exception of 0 you essentially get the number that is also directly opposite as a result? (i.e., 2 - 4, 4 - 2, 3 - 0). I am not entirely sure if that is correct, but that is my best guess (fy. ","To be completely honest, I am not sure that I am wholly understanding the generator concept, or even the question above as it is phrased. But from what I *think* it means, and from viewing the spatial relationships, isI believe that only the numbers directly opposite each other on the upper portion of the hexagon are generators, and that when combining the subsets of non-generators, with the exception of 0 you essentially get the number that is also directly opposite as a res ult? (i. e., 2 - 4, 4 - 2, 3 - 0). I am not entirely sure if that is correct, but that is my best guess (fyi. ","To be completely honest, I am not sure that I am wholly understanding the generator concept, or even the question above as it is phrased. But from what I *think* it means, and from viewing the spatial relationships, isI believe that only the numbers directly opposite each other on the upper portion of the hexagon are generators, and that when combining the subsets of non-generators, with the exception of 0 you essentially get the number that is also directly opposite as a result? (i.e., 2 - 4, 4 - 2, 3 - 0). I am not entirely sure if that is correct, but that is my best guess (fyi . ","To be completely honest, I am not sure that I am wholly understanding the generator concept, or even the question above as it is phrased. But from what I *think* it means, and from viewing the spatial relationships, isI believe that only the numbers directly opposite each other on the upper  portion  of the hexagon are generators, and that when combining the subsets of non-generators, with the exception of 0 you essentially get the number that is also directly opposite as a result? (i.e., 2 - 4, 4 - 2, 3 - 0). I am not entirely sure if that is correct, but that is my best guess (fyi -. ","To be completely honest, I am not sure that I am wholly understanding the generator concept, or even the question above as it is phrased. But from what I *think* it means, and from viewing the spatial relationships, isI believe that only the numbers directly opposite each other on the upper portion of the hexagon are generators, and that when combining the subsets of non-generators, with the exception of 0 you essentially get the number that is also directly opposite as a result? (i.e., 2 - 4, 4 - 2, 3 - 0). I am not entirely sure if that is correct, but that is my best guess (fyi --. ","To be completely honest, I am not sure that I am wholly understanding the generator concept, or even  the que stion above as it is phrased. But from what I *think* it means, and from viewing the spatial relationships, isI believe that only the numbers directly opposite each other on the upper portion of the hexagon are generators, and that when combining the subsets of non-generators, with the exception of 0 you essentially get the number that is also directly opposite as a result? (i.e., 2 - 4, 4 - 2, 3 - 0). I am not entirely sure if that is correct, but that is my best guess (fyi -- . ","To be completely honest, I am not sure that I am wholly understanding the generator concept, or even the question above as it is phrased. But from what I *think* it means, and from viewing the spatial relationships, isI believe that only the numbers directly opposite each other on the upper portion of the hexagon are generators, and that when combining the subsets of non-generators, with the exception of 0 you essentially get the number that is also directly opposite as a result? (i.e., 2 - 4, 4  - 2, 3 -  0). I am not entirely sure if that is correct, but that is my best guess (fyi -- I . ","To be completely honest, I am not sure that I am wholly understanding the generator concept, or even the question above as it is phrased. But from what I *think* it means, and from viewing the spatial relationships, isI believe that only the numbers directly opposite each other on the upper portion of the hexagon are generators, and that when combining the subsets of non-generators, with the exception of 0 you essentially get the number that is also directly opposite as a result? (i.e., 2 - 4, 4 - 2, 3 - 0). I am not entirely sure if that is correct, but that is my best guess (fyi -- I a. ","To be completely honest, I am not sure that I am wholly understanding the generator concept, or even the question above as it is phrased. But from what I *think* it means, and from viewing the spatial relationships, isI believe that only the numbers directly opposite each other on the upper portion o f the he xagon are generators, and that when combining the subsets of non-generators, with the exception of 0 you essentially get the number that is also directly opposite as a result? (i.e., 2 - 4, 4 - 2, 3 - 0). I am not entirely sure if that is correct, but that is my best guess (fyi -- I am . ","To be completely honest, I am not sure that I am wholly understanding the generator concept, or even the question above as it is phrased. But from what I *think* it means, and from viewing the spatial relationships, isI believe that only the numbers directly opposite each other on the upper portion of the hexagon are generators, and that when combining the subsets of non-generators, with the exception of 0 you essentially get the number that is also directly opposite as a result? (i.e., 2 - 4, 4 - 2, 3 - 0). I am not entirely sure if that is correct, but that is my best guess (fyi -- I am r. ","To be completely honest, I am not sure that I am wholly understanding the generator concept, or  even th e question above as it is phrased. But from what I *think* it means, and from viewing the spatial relationships, isI believe that only the numbers directly opposite each other on the upper portion of the hexagon are generators, and that when combining the subsets of non-generators, with the exception of 0 you essentially get the number that is also directly opposite as a result? (i.e., 2 - 4, 4 - 2, 3 - 0). I am not entirely sure if that is correct, but that is my best guess (fyi -- I am t. ","To be completely honest, I am not sure that I am wholly understanding the generator concept, or even the question above as it is phrased. But from what I *think* it means, and from viewing the spatial relationships, isI believe that only the numbers directly opposite each other on the upper portion of the hexagon are generators, and that when combining the subsets of non-generators, with the exception of 0 you essentially get the number that is also directly opposite as a result? (i.e. , 2 - 4,  4 - 2, 3 - 0). I am not entirely sure if that is correct, but that is my best guess (fyi -- I am te. ","To be completely honest, I am not sure that I am wholly understanding the generator concept, or even the question above as it is phrased. But from what I *think* it means, and from viewing the spatial relationships, isI believe that only the numbers directly opposite each other on the upper portion of the hexagon are generators, and that when combining the subsets of non-generators, with the exception of 0 you essentially get the number that is also directly opposite as a result? (i.e., 2 - 4, 4 - 2, 3 - 0). I am not entirely sure if that is correct, but that is my best guess (fyi -- I am teer. ","To be completely honest, I am not sure that I am wholly understanding the generator concept, or even the question above as it is phrased. But from what I *think* it means, and from viewing the spatial relationships, isI believe that only the numbers directly opposite each other  on the u pper portion of the hexagon are generators, and that when combining the subsets of non-generators, with the exception of 0 you essentially get the number that is also directly opposite as a result? (i.e., 2 - 4, 4 - 2, 3 - 0). I am not entirely sure if that is correct, but that is my best guess (fyi -- I am teerr. ","To be completely honest, I am not sure that I am wholly understanding the generator concept, or even the question above as it is phrased. But from what I *think* it means, and from viewing the spatial relationships, isI believe that only the numbers directly opposite each other on the upper portion of the hexagon are generators, and that when combining the subsets of non-generators, with the exception of 0 you essentially get the number that is also directly opposite as a result? (i.e., 2 - 4, 4 - 2, 3 - 0). I am not entirely sure if that is correct, but that is my best guess (fyi -- I am teer. ","To be completely honest, I am not sure that I am wholly understan ding the  generator concept, or even the question above as it is phrased. But from what I *think* it means, and from viewing the spatial relationships, isI believe that only the numbers directly opposite each other on the upper portion of the hexagon are generators, and that when combining the subsets of non-generators, with the exception of 0 you essentially get the number that is also directly opposite as a result? (i.e., 2 - 4, 4 - 2, 3 - 0). I am not entirely sure if that is correct, but that is my best guess (fyi -- I am tee. ","To be completely honest, I am not sure that I am wholly understanding the generator concept, or even the question above as it is phrased. But from what I *think* it means, and from viewing the spatial relationships, isI believe that only the numbers directly opposite each other on the upper portion of the hexagon are generators, and that when combining the subsets of non-generators, with the exception of 0 you essentially get the number that is also dire ctly opp osite as a result? (i.e., 2 - 4, 4 - 2, 3 - 0). I am not entirely sure if that is correct, but that is my best guess (fyi -- I am te. ","To be completely honest, I am not sure that I am wholly understanding the generator concept, or even the question above as it is phrased. But from what I *think* it means, and from viewing the spatial relationships, isI believe that only the numbers directly opposite each other on the upper portion of the hexagon are generators, and that when combining the subsets of non-generators, with the exception of 0 you essentially get the number that is also directly opposite as a result? (i.e., 2 - 4, 4 - 2, 3 - 0). I am not entirely sure if that is correct, but that is my best guess (fyi -- I am ter. ","To be completely honest, I am not sure that I am wholly understanding the generator concept, or even the question above as it is phrased. But from what I *think* it means, and from viewing the spatial relationships, isI believe that only the number s direct ly opposite each other on the upper portion of the hexagon are generators, and that when combining the subsets of non-generators, with the exception of 0 you essentially get the number that is also directly opposite as a result? (i.e., 2 - 4, 4 - 2, 3 - 0). I am not entirely sure if that is correct, but that is my best guess (fyi -- I am terri. ","To be completely honest, I am not sure that I am wholly understanding the generator concept, or even the question above as it is phrased. But from what I *think* it means, and from viewing the spatial relationships, isI believe that only the numbers directly opposite each other on the upper portion of the hexagon are generators, and that when combining the subsets of non-generators, with the exception of 0 you essentially get the number that is also directly opposite as a result? (i.e., 2 - 4, 4 - 2, 3 - 0). I am not entirely sure if that is correct, but that is my best guess (fyi -- I am terrib. ","To be completely honest, I am no t sure t hat I am wholly understanding the generator concept, or even the question above as it is phrased. But from what I *think* it means, and from viewing the spatial relationships, isI believe that only the numbers directly opposite each other on the upper portion of the hexagon are generators, and that when combining the subsets of non-generators, with the exception of 0 you essentially get the number that is also directly opposite as a result? (i.e., 2 - 4, 4 - 2, 3 - 0). I am not entirely sure if that is correct, but that is my best guess (fyi -- I am terribl. ","To be completely honest, I am not sure that I am wholly understanding the generator concept, or even the question above as it is phrased. But from what I *think* it means, and from viewing the spatial relationships, isI believe that only the numbers directly opposite each other on the upper portion of the hexagon are generators, and that when combining the subsets of non-generators, with the exception of 0 you essenti ally get  the number that is also directly opposite as a result? (i.e., 2 - 4, 4 - 2, 3 - 0). I am not entirely sure if that is correct, but that is my best guess (fyi -- I am terribly . ","To be completely honest, I am not sure that I am wholly understanding the generator concept, or even the question above as it is phrased. But from what I *think* it means, and from viewing the spatial relationships, isI believe that only the numbers directly opposite each other on the upper portion of the hexagon are generators, and that when combining the subsets of non-generators, with the exception of 0 you essentially get the number that is also directly opposite as a result? (i.e., 2 - 4, 4 - 2, 3 - 0). I am not entirely sure if that is correct, but that is my best guess (fyi -- I am terribly. ","To be completely honest, I am not sure that I am wholly understanding the generator concept, or even the question above as it is phrased. But from what I *think* it means, and from viewing the spatia l relati onships, isI believe that only the numbers directly opposite each other on the upper portion of the hexagon are generators, and that when combining the subsets of non-generators, with the exception of 0 you essentially get the number that is also directly opposite as a result? (i.e., 2 - 4, 4 - 2, 3 - 0). I am not entirely sure if that is correct, but that is my best guess (fyi -- I am terrible. ","To be completely honest, I am not sure that I am wholly understanding the generator concept, or even the question above as it is phrased. But from what I *think* it means, and from viewing the spatial relationships, isI believe that only the numbers directly opposite each other on the upper portion of the hexagon are generators, and that when combining the subsets of non-generators, with the exception of 0 you essentially get the number that is also directly opposite as a result? (i.e., 2 - 4, 4 - 2, 3 - 0). I am not entirely sure if that is correct, but that is my best guess (fyi  -- I am  terrible . ","To be completely honest, I am not sure that I am wholly understanding the generator concept, or even the question above as it is phrased. But from what I *think* it means, and from viewing the spatial relationships, isI believe that only the numbers directly opposite each other on the upper portion of the hexagon are generators, and that when combining the subsets of non-generators, with the exception of 0 you essentially get the number that is also directly opposite as a result? (i.e., 2 - 4, 4 - 2, 3 - 0). I am not entirely sure if that is correct, but that is my best guess (fyi -- I am terrible with. ","To be completely honest, I am not sure that I am wholly understanding the generator concept, or even the question above as it is phrased. But from what I *think* it means, and from viewing the spatial relationships, isI believe that only the numbers directly opposite each other on the upper portion of the hexagon are generators, and that when combining the s ubsets o f non-generators, with the exception of 0 you essentially get the number that is also directly opposite as a result? (i.e., 2 - 4, 4 - 2, 3 - 0). I am not entirely sure if that is correct, but that is my best guess (fyi -- I am terrible with . ","To be completely honest, I am not sure that I am wholly understanding the generator concept, or even the question above as it is phrased. But from what I *think* it means, and from viewing the spatial relationships, isI believe that only the numbers directly opposite each other on the upper portion of the hexagon are generators, and that when combining the subsets of non-generators, with the exception of 0 you essentially get the number that is also directly opposite as a result? (i.e., 2 - 4, 4 - 2, 3 - 0). I am not entirely sure if that is correct, but that is my best guess (fyi -- I am terrible with nu. ","To be completely honest, I am not sure that I am wholly understanding the generator concept, or even the question above as it  is phra sed. But from what I *think* it means, and from viewing the spatial relationships, isI believe that only the numbers directly opposite each other on the upper portion of the hexagon are generators, and that when combining the subsets of non-generators, with the exception of 0 you essentially get the number that is also directly opposite as a result? (i.e., 2 - 4, 4 - 2, 3 - 0). I am not entirely sure if that is correct, but that is my best guess (fyi -- I am terrible with num. ","To be completely honest, I am not sure that I am wholly understanding the generator concept, or even the question above as it is phrased. But from what I *think* it means, and from viewing the spatial relationships, isI believe that only the numbers directly opposite each other on the upper portion of the hexagon are generators, and that when combining the subsets of non-generators, with the exception of 0 you essentially get the number that is also directly opposite as a result? (i.e., 2 - 4, 4 - 2 , 3 - 0) . I am not entirely sure if that is correct, but that is my best guess (fyi -- I am terrible with numbe. ","To be completely hone