[{"instructions":"Let's define a new operation +<sub>6</sub>. This operation will give us a way of combining two of the numbers 0, 1, 2, 3, 4, 5 to get another one of them back. To perform +<sub>6</sub>, you start with the first number, and then add the second one to it. If the sum is smaller than 6, that's your result. If the sum is 6 or bigger, you subtract 6 to get your result. (That's why the operation is called +<sub>6</sub>.) <br /><br />For example, 3 +<sub>6</sub> 5 = 2, because 3 + 5 = 8, and 8 is bigger than 6, so we subtract 6, and 8 - 6 = 2. So 3 +<sub>6</sub> 5 = 2.<br /><br />Similarly, 1 +<sub>6</sub> 4 = 5, because 1 + 4 = 5, and 5 is less than 6 so we leave it alone. <br /><br />Click \"Continue\" when you're ready to move on.","rt":70172,"trial_type":"instructions","trial_index":0,"trial_index_global":1,"time_elapsed":366194,"internal_chunk_id":"0-0"},{"question":"Now try one on your own! What is 4 +<sub>6</sub> 5? <br /><br /> (Remember, to perform +<sub>6< /sub>, y ou start with the first number, and then add the second one to it. If the sum is smaller than 6, that's your result. If the sum is 6 or bigger, you subtract 6 to get your result.)","response_type":"free","response_choices":[],"correct_response":"3","response":"3","response_history":["3"],"rt":8151,"trial_type":"question","trial_index":0,"trial_index_global":2,"time_elapsed":374349,"internal_chunk_id":"0-0.2-0"},{"feedback":"Correct! 4 +<sub>6</sub> 5 = 3 because 4 + 5 = 9 and 9 - 6 = 3.","rt":2617,"trial_type":"feedback","trial_index":0,"trial_index_global":3,"time_elapsed":376970,"internal_chunk_id":"0-0.2-0"},{"question":"What is 3 +<sub>6</sub> 2? <br /><br /> (Remember, to perform +<sub>6</sub>, you start with the first number, and then add the second one to it. If the sum is smaller than 6, that's your result. If the sum is 6 or bigger, you subtract 6 to get your result.)","response_type":"free","response_choices":[],"correct_response":"5","response":"5","response_history":["5"],"rt":6764,"trial_type":"question","trial_index":0,"trial_index_global":4,"time_elapsed":383738,"internal_chunk_id":"0-0.2-0"},{"feedback":"Correct! 3 +<sub>6</sub> 2 = 5 because 3 + 2 = 5 and 5 is less than 6.","rt":1886,"trial_type":"feedback","trial_index":0,"trial_index_global":5,"time_elapsed":385630,"internal_chunk_id":"0-0.2-0"},{"question":"What is 1 +<sub>6</sub> 5? <br /><br /> (Remember, to perform +<sub>6</sub>, you start with the first number, and then add the second one to it. If the sum is smaller than 6, that's your result. If the sum is 6 or bigger, you subtract 6 to get your result.)","response_type":"free","response_choices":[],"correct_response":"0","response":"0","response_history":["0"],"rt":6933,"trial_type":"question","trial_index":0,"trial_index_global":6,"time_elapsed":392566,"internal_chunk_id":"0-0.2-0"},{"feedback":"Correct! 1 +<sub>6</sub> 5 = 0 because 1 + 5 = 6 and 6 - 6 = 0.","rt":3673,"trial_type":"feedback","trial_index":0,"trial_index_global":7,"time_elapsed":396244,"internal_chunk_id":"0-0.2-0"},{"question":"What is 1 +<sub>6</sub> 1? <br /><br /> (Remember, to perform +<sub>6</sub>, you start with the first number, and then add the second one to it. If the sum is smaller than 6, that's your result. If the sum is 6 or bigger, you subtract 6 to get your result.)","response_type":"free","response_choices":[],"correct_response":"2","response":"2","response_history":["2"],"rt":4406,"trial_type":"question","trial_index":0,"trial_index_global":8,"time_elapsed":400653,"internal_chunk_id":"0-0.2-0"},{"feedback":"Correct! 1 +<sub>6</sub> 1 = 2 because 1 + 1 = 2 and 2 is less than 6.","rt":1550,"trial_type":"feedback","trial_index":0,"trial_index_global":9,"time_elapsed":402207,"internal_chunk_id":"0-0.2-0"},{"question":"What is 3 +<sub>6</sub> 0? <br /><br /> (Remember, to perform +<sub>6</sub>, you start with the first number, and then add the second one to it. If the sum is smaller than 6, that's your result. If the sum i s 6 or b igger, you subtract 6 to get your result.)","response_type":"free","response_choices":[],"correct_response":"3","response":"3","response_history":["3"],"rt":5257,"trial_type":"question","trial_index":0,"trial_index_global":10,"time_elapsed":407469,"internal_chunk_id":"0-0.2-0"},{"feedback":"Correct! 3 +<sub>6</sub> 0 = 3 because 3 + 0 = 3 and 3 is less than 6.","rt":1867,"trial_type":"feedback","trial_index":0,"trial_index_global":11,"time_elapsed":409339,"internal_chunk_id":"0-0.2-0"},{"question":"What is 4 +<sub>6</sub> 4? <br /><br /> (Remember, to perform +<sub>6</sub>, you start with the first number, and then add the second one to it. If the sum is smaller than 6, that's your result. If the sum is 6 or bigger, you subtract 6 to get your result.)","response_type":"free","response_choices":[],"correct_response":"2","response":"2","response_history":["2"],"rt":5070,"trial_type":"question","trial_index":0,"trial_index_global":12,"time_elapsed":414413,"internal_chunk_id":"0 -0.2-0"},{"feedback":"Correct! 4 +<sub>6</sub> 4 = 2 because 4 + 4 = 8 and 8 - 6 = 2.","rt":1353,"trial_type":"feedback","trial_index":0,"trial_index_global":13,"time_elapsed":415770,"internal_chunk_id":"0-0.2-0"},{"question":"What is 1 +<sub>6</sub> 3? <br /><br /> (Remember, to perform +<sub>6</sub>, you start with the first number, and then add the second one to it. If the sum is smaller than 6, that's your result. If the sum is 6 or bigger, you subtract 6 to get your result.)","response_type":"free","response_choices":[],"correct_response":"4","response":"4","response_history":["4"],"rt":3269,"trial_type":"question","trial_index":0,"trial_index_global":14,"time_elapsed":419043,"internal_chunk_id":"0-0.2-0"},{"feedback":"Correct! 1 +<sub>6</sub> 3 = 4 because 1 + 3 = 4 and 4 is less than 6.","rt":1572,"trial_type":"feedback","trial_index":0,"trial_index_global":15,"time_elapsed":420619,"internal_chunk_id":"0-0.2-0"},{"question":"What is 4 +<sub>6</sub> 3? <br /><br /> (Remember,  to perfo rm +<sub>6</sub>, you start with the first number, and then add the second one to it. If the sum is smaller than 6, that's your result. If the sum is 6 or bigger, you subtract 6 to get your result.)","response_type":"free","response_choices":[],"correct_response":"1","response":"1","response_history":["1"],"rt":3678,"trial_type":"question","trial_index":0,"trial_index_global":16,"time_elapsed":424302,"internal_chunk_id":"0-0.2-0"},{"feedback":"Correct! 4 +<sub>6</sub> 3 = 1 because 4 + 3 = 7 and 7 - 6 = 1.","rt":2687,"trial_type":"feedback","trial_index":0,"trial_index_global":17,"time_elapsed":426994,"internal_chunk_id":"0-0.2-0"},{"question":"What is 0 +<sub>6</sub> 5? <br /><br /> (Remember, to perform +<sub>6</sub>, you start with the first number, and then add the second one to it. If the sum is smaller than 6, that's your result. If the sum is 6 or bigger, you subtract 6 to get your result.)","response_type":"free","response_choices":[],"correct_response":"5","response":"5","response_history":["5"],"rt":3863,"trial_type":"question","trial_index":0,"trial_index_global":18,"time_elapsed":430860,"internal_chunk_id":"0-0.2-0"},{"feedback":"Correct! 0 +<sub>6</sub> 5 = 5 because 0 + 5 = 5 and 5 is less than 6.","rt":2528,"trial_type":"feedback","trial_index":0,"trial_index_global":19,"time_elapsed":433392,"internal_chunk_id":"0-0.2-0"},{"question":"What is 2 +<sub>6</sub> 5? <br /><br /> (Remember, to perform +<sub>6</sub>, you start with the first number, and then add the second one to it. If the sum is smaller than 6, that's your result. If the sum is 6 or bigger, you subtract 6 to get your result.)","response_type":"free","response_choices":[],"correct_response":"1","response":"1","response_history":["1"],"rt":3214,"trial_type":"question","trial_index":0,"trial_index_global":20,"time_elapsed":436611,"internal_chunk_id":"0-0.2-0"},{"feedback":"Correct! 2 +<sub>6</sub> 5 = 1 because 2 + 5 = 7 and 7 - 6 = 1.","rt":1416,"trial_type":"feedback","trial_index":0,"trial_index_global":21,"time_elapsed":438030,"internal_chunk_id":"0-0.2-0"},{"instructions":"Now we're going to discuss a couple special properties of this new operation, +<sub>6</sub> that we've learned. First, notice that the number 0 behaves in a special way under +<sub>6</sub>. Whenever we combine 0 with anything else, we get that same thing back. We'll say that 0 is the <i>identity</i> under +<sub>6</sub>, because when you combine it with something it gives you that identical thing back.","rt":52680,"trial_type":"instructions","trial_index":0,"trial_index_global":22,"time_elapsed":490714,"internal_chunk_id":"0-0"},{"instructions":"Now that we know 0 is the identity under +<sub>6</sub>, we're going to make a new definition. We'll say that the <i>inverse</i> of a number is the thing that you combine with it to produce the identity. For example, 5 +<sub>6</sub> 1 = 0, so we say 1 is the inverse of 5 under +<sub>6</sub>, (remember 0 is the identity under +<sub>6</sub>). Si milarly,  3 is its own inverse under +<sub>6</sub>, because 3 +<sub>6</sub> 3 = 0.","rt":53156,"trial_type":"instructions","trial_index":0,"trial_index_global":23,"time_elapsed":543874,"internal_chunk_id":"0-0"},{"question":"Now you try! What is the inverse of 4 under +<sub>6</sub>? <br /><br /> (Remember, the inverse of an element is the thing which you combine with it to produce the identity.)","response_type":"free","response_choices":[],"correct_response":"2","response":"2","response_history":["2"],"rt":13935,"trial_type":"question","trial_index":0,"trial_index_global":24,"time_elapsed":557813,"internal_chunk_id":"0-0.6-0"},{"feedback":"Correct! The inverse of 4 under +<sub>6</sub> is 2 because 4 +<sub>6</sub> 2 = 0, and 0 is the identity under +<sub>6</sub>.","rt":1847,"trial_type":"feedback","trial_index":0,"trial_index_global":25,"time_elapsed":559663,"internal_chunk_id":"0-0.6-0"},{"question":"What is the inverse of 1 under +<sub>6</sub>? <br /><br /> (Remember, the inverse o f an ele ment is the thing which you combine with it to produce the identity.)","response_type":"free","response_choices":[],"correct_response":"5","response":"5","response_history":["5"],"rt":6894,"trial_type":"question","trial_index":0,"trial_index_global":26,"time_elapsed":566561,"internal_chunk_id":"0-0.6-0"},{"feedback":"Correct! The inverse of 1 under +<sub>6</sub> is 5 because 1 +<sub>6</sub> 5 = 0, and 0 is the identity under +<sub>6</sub>.","rt":1945,"trial_type":"feedback","trial_index":0,"trial_index_global":27,"time_elapsed":568509,"internal_chunk_id":"0-0.6-0"},{"question":"What is the inverse of 3 under +<sub>6</sub>? <br /><br /> (Remember, the inverse of an element is the thing which you combine with it to produce the identity.)","response_type":"free","response_choices":[],"correct_response":"3","response":"3","response_history":["3"],"rt":5307,"trial_type":"question","trial_index":0,"trial_index_global":28,"time_elapsed":573820,"internal_chunk_id":"0-0.6-0"},{"feedback":"Co rrect! The inverse of 3 under +<sub>6</sub> is 3 because 3 +<sub>6</sub> 3 = 0, and 0 is the identity under +<sub>6</sub>.","rt":1855,"trial_type":"feedback","trial_index":0,"trial_index_global":29,"time_elapsed":575679,"internal_chunk_id":"0-0.6-0"},{"question":"What is the inverse of 2 under +<sub>6</sub>? <br /><br /> (Remember, the inverse of an element is the thing which you combine with it to produce the identity.)","response_type":"free","response_choices":[],"correct_response":"4","response":"4","response_history":["4"],"rt":3791,"trial_type":"question","trial_index":0,"trial_index_global":30,"time_elapsed":579475,"internal_chunk_id":"0-0.6-0"},{"feedback":"Correct! The inverse of 2 under +<sub>6</sub> is 4 because 2 +<sub>6</sub> 4 = 0, and 0 is the identity under +<sub>6</sub>.","rt":1682,"trial_type":"feedback","trial_index":0,"trial_index_global":31,"time_elapsed":581161,"internal_chunk_id":"0-0.6-0"},{"question":"What is the inverse of 0 under +<sub>6</sub>? <br  /><br / > (Remember, the inverse of an element is the thing which you combine with it to produce the identity.)","response_type":"free","response_choices":[],"correct_response":"0","response":"0","response_history":["6","0"],"rt":23611,"trial_type":"question","trial_index":0,"trial_index_global":32,"time_elapsed":604778,"internal_chunk_id":"0-0.6-0"},{"feedback":"Correct! The inverse of 0 under +<sub>6</sub> is 0 because 0 +<sub>6</sub> 0 = 0, and 0 is the identity under +<sub>6</sub>.","rt":1940,"trial_type":"feedback","trial_index":0,"trial_index_global":33,"time_elapsed":606721,"internal_chunk_id":"0-0.6-0"},{"instructions":"It is also possible to successively apply +<sub>6</sub>, and the operation can simply be performed starting with the left-most pair. For example, 2 +<sub>6</sub> 3 +<sub>6</sub> 4 = 5 +<sub>6</sub> 4 = 3.","rt":94589,"trial_type":"instructions","trial_index":0,"trial_index_global":34,"time_elapsed":701313,"internal_chunk_id":"0-0"},{"instructions":"We have on e last d efinition to learn today, using the successive operations we just learned. Let's start with an example. Under our operation +<sub>6</sub> we can make every other number using just 1: 2 = 1 +<sub>6</sub> 1, 3 = 1 +<sub>6</sub> 1 +<sub>6</sub> 1, 4 = 1 +<sub>6</sub> 1 +<sub>6</sub> 1 +<sub>6</sub> 1, 5 = 1 +<sub>6</sub> 1 +<sub>6</sub> 1 +<sub>6</sub> 1 +<sub>6</sub> 1, and 0 = 1 +<sub>6</sub> 1 +<sub>6</sub> 1 +<sub>6</sub> 1 +<sub>6</sub> 1 +<sub>6</sub> 1. Because of this, we say that 1 is a <i>generator</i> under +<sub>6</sub>. <br /><br /> However, 2 is not a generator under +<sub>6</sub>, because 4 = 2 +<sub>6</sub> 2, and 0 = 2 +<sub>6</sub> 2 +<sub>6</sub> 2, but there is no way to make 1, 3, or 5 using just 2.","rt":135901,"trial_type":"instructions","trial_index":0,"trial_index_global":35,"time_elapsed":837219,"internal_chunk_id":"0-0"},{"question":"Now you try! Is 3 a generator under +<sub>6</sub>? <br /><br /> (Remember, a generator is an element which can make eve ry other  element.)","response_type":"multi","response_choices":["Yes","No"],"correct_response":"No","response":"No","response_history":["No"],"rt":29000,"trial_type":"question","trial_index":0,"trial_index_global":36,"time_elapsed":866223,"internal_chunk_id":"0-0.9-0"},{"feedback":"Correct! 3 is not a generator under +<sub>6</sub>, because 3 = 3, 0 = 3 +<sub>6</sub> 3, but there is no way to make 1, 2, 4, or 5 using just 3.","rt":5033,"trial_type":"feedback","trial_index":0,"trial_index_global":37,"time_elapsed":871259,"internal_chunk_id":"0-0.9-0"},{"question":"Is 5 a generator under +<sub>6</sub>? <br /><br /> (Remember, a generator is an element which can make every other element.)","response_type":"multi","response_choices":["Yes","No"],"correct_response":"Yes","response":"Yes","response_history":["No","Yes"],"rt":34543,"trial_type":"question","trial_index":0,"trial_index_global":38,"time_elapsed":905807,"internal_chunk_id":"0-0.9-0"},{"feedback":"Correct! 5 is a generator under  +<sub>6 </sub>, because 5 = 5, 4 = 5 +<sub>6</sub> 5, 3 = 5 +<sub>6</sub> 5 +<sub>6</sub> 5, 2 = 5 +<sub>6</sub> 5 +<sub>6</sub> 5 +<sub>6</sub> 5, 1 = 5 +<sub>6</sub> 5 +<sub>6</sub> 5 +<sub>6</sub> 5 +<sub>6</sub> 5, and 0 = 5 +<sub>6</sub> 5 +<sub>6</sub> 5 +<sub>6</sub> 5 +<sub>6</sub> 5 +<sub>6</sub> 5, so you can make all of the numbers under +<sub>6</sub> using 5","rt":16673,"trial_type":"feedback","trial_index":0,"trial_index_global":39,"time_elapsed":922485,"internal_chunk_id":"0-0.9-0"},{"question":"Is 4 a generator under +<sub>6</sub>? <br /><br /> (Remember, a generator is an element which can make every other element.)","response_type":"multi","response_choices":["Yes","No"],"correct_response":"No","response":"No","response_history":["No"],"rt":12996,"trial_type":"question","trial_index":0,"trial_index_global":40,"time_elapsed":935485,"internal_chunk_id":"0-0.9-0"},{"feedback":"Correct! 4 is not a generator under +<sub>6</sub>, because 4 = 4, 2 = 4 +<sub>6</sub> 4, and  0 = 4 +< sub>6</sub> 4 +<sub>6</sub> 4, but there is no way to make 1, 3, or 5 using just 4.","rt":2530,"trial_type":"feedback","trial_index":0,"trial_index_global":41,"time_elapsed":938018,"internal_chunk_id":"0-0.9-0"},{"question":"Is 0 a generator under +<sub>6</sub>? <br /><br /> (Remember, a generator is an element which can make every other element.)","response_type":"multi","response_choices":["Yes","No"],"correct_response":"No","response":"Yes","response_history":["Yes"],"rt":9853,"trial_type":"question","trial_index":0,"trial_index_global":42,"time_elapsed":947876,"internal_chunk_id":"0-0.9-0"},{"feedback":"Sorry, that's incorrect. 0 is not a generator under +<sub>6</sub>, because 0 = 0, but there is no way to make 1, 2, 3, 4, or 5 using just 0.","rt":8138,"trial_type":"feedback","trial_index":0,"trial_index_global":43,"time_elapsed":956017,"internal_chunk_id":"0-0.9-0"},{"instructions":"Now we are going to ask you some questions about a new operation, +<sub>9</sub>, on the  numbers  0, 1, 2, 3, 4, 5, 6, 7, 8. It works exactly like +<sub>6</sub>, except now after adding the two numbers you subtract 9 if your result is 9 or greater. <br /><br />We'll give you one practice question with feedback to make sure you understand the new operation. After that, try to complete the remaining questions as accurately as possible.","rt":17496,"trial_type":"instructions","trial_index":0,"trial_index_global":44,"time_elapsed":973517,"internal_chunk_id":"0-0"},{"question":"Practice: What is 5 +<sub>9</sub> 5?","response_type":"free","response_choices":[],"correct_response":"1","response":"1","response_history":["1"],"rt":5542,"trial_type":"question","trial_index":0,"trial_index_global":45,"time_elapsed":979063,"internal_chunk_id":"0-0.11-0"},{"feedback":"Correct! 5 +<sub>9</sub> 5 = 1 because 5 + 5 = 10 and 10 - 9 = 1.","rt":1505,"trial_type":"feedback","trial_index":0,"trial_index_global":46,"time_elapsed":980571,"internal_chunk_id":"0-0.11-0"},{"question":"What is 3 +< sub>9</s ub> 3?","response_type":"free","response_choices":[],"correct_response":"6","response":"6","response_history":["6"],"rt":4729,"trial_type":"question","trial_index":0,"trial_index_global":47,"time_elapsed":985303,"internal_chunk_id":"0-0.11-0"},{"question":"What is 7 +<sub>9</sub> 4?","response_type":"free","response_choices":[],"correct_response":"2","response":"2","response_history":["2"],"rt":3601,"trial_type":"question","trial_index":0,"trial_index_global":48,"time_elapsed":988909,"internal_chunk_id":"0-0.11-0"},{"question":"What is 1 +<sub>9</sub> 8?","response_type":"free","response_choices":[],"correct_response":"0","response":"0","response_history":["0"],"rt":3721,"trial_type":"question","trial_index":0,"trial_index_global":49,"time_elapsed":992633,"internal_chunk_id":"0-0.11-0"},{"question":"What is 5 +<sub>9</sub> 4?","response_type":"free","response_choices":[],"correct_response":"0","response":"0","response_history":["0"],"rt":3290,"trial_type":"question","trial_index":0,"trial_index_global":50,"time_elapsed":995927,"internal_chunk_id":"0-0.11-0"},{"question":"What is 6 +<sub>9</sub> 6?","response_type":"free","response_choices":[],"correct_response":"3","response":"3","response_history":["3"],"rt":3778,"trial_type":"question","trial_index":0,"trial_index_global":51,"time_elapsed":999710,"internal_chunk_id":"0-0.11-0"},{"question":"What is 4 +<sub>9</sub> 1? Please explain in words how you got your answer.","response_type":"free","response_choices":[],"correct_response":"","response":"5.Add four plus one and you get five, which is less than nine so it is the answer. ","response_history":["Add 4 plus on","Add 4 plus o","Add 4 plus ","Add 4 plus","Add 4 plu","Add 4 pl","Add 4 p","Add 4 ","Add 4","Add four plus one and you get five, which is less than nine do","Add four plus one and you get five, which is less than nine d","Add four plus one and you get five, which is less than nine os ","Add four plus one and you get five, which is less than n ine os","Add four plus one and you get five, which is less than nine o","Add four plus one and you get five, which is less than nine so it is the answer. ","5Add four plus one and you get five, which is less than nine so it is the answer. ","5.Add four plus one and you get five, which is less than nine so it is the answer. "],"rt":62263,"trial_type":"question","trial_index":0,"trial_index_global":52,"time_elapsed":1061978,"internal_chunk_id":"0-0.11-0"},{"question":"What is 8 +<sub>9</sub> 4? Please explain in words how you got your answer.","response_type":"free","response_choices":[],"correct_response":"","response":"3.Add eight plus four and you get twelve, this is greater than nine, so you must subtract nine from twelve and you get three.","response_history":["3.Add eight plus four and you get twelve, this is gra","3.Add eight plus four and you get twelve, this is greater than non","3.Add eight plus four and you get twelve, this is greater than no","3.Add eight plus four and you  get twe lve, this is greater than nine, so m","3.Add eight plus four and you get twelve, this is greater than nine, so you must subtract nine from twelve and you get three."],"rt":68922,"trial_type":"question","trial_index":0,"trial_index_global":53,"time_elapsed":1130904,"internal_chunk_id":"0-0.11-0"},{"question":"What is the identity under +<sub>9</sub>? Please explain in words how you got your answer.","response_type":"free","response_choices":[],"correct_response":"0","response":"zero, if you add zero to any other number you will get that number.","response_history":["zero ","zero, if youo ","zero, if youo","zero, if you","zero, if yo","zero, if you add zer o","zero, if you add zer ","zero, if you add zero to any other number you will get that number."],"rt":44103,"trial_type":"question","trial_index":0,"trial_index_global":54,"time_elapsed":1175013,"internal_chunk_id":"0-0.11-0"},{"question":"What is the inverse of 5 under +<sub>9</sub>?","response_type":"free","response_choices":[],"correct_response":"4","response":"4","response_history":["4"],"rt":8826,"trial_type":"question","trial_index":0,"trial_index_global":55,"time_elapsed":1183843,"internal_chunk_id":"0-0.11-0"},{"question":"What is the inverse of 2 under +<sub>9</sub>?","response_type":"free","response_choices":[],"correct_response":"7","response":"7","response_history":["7"],"rt":5516,"trial_type":"question","trial_index":0,"trial_index_global":56,"time_elapsed":1189362,"internal_chunk_id":"0-0.11-0"},{"question":"What is the inverse of 3 under +<sub>9</sub>? Please explain in words how you got your answer.","response_type":"free","response_choices":[],"correct_response":"","response":"6.If you subtract three from nine you get six, which would add up to nine, so you would have to subtract nine and get zero the identity.","response_history":["6.If y9ou ","6.If y9ou","6.If y9o","6.If y9","6.If you subtract three from nine you gr","6.If you subtract three from nine you get six  ","6.If you subtra ct three  from nine you get six , ","6.If you subtract three from nine you get six ,","6.If you subtract three from nine you get six ","6.If you subtract three from nine you get six, which would add up to nine, so you would have to subtract nine to","6.If you subtract three from nine you get six, which would add up to nine, so you would have to subtract nine t","6.If you subtract three from nine you get six, which would add up to nine, so you would have to subtract nine and t","6.If you subtract three from nine you get six, which would add up to nine, so you would have to subtract nine and get zero the idenr","6.If you subtract three from nine you get six, which would add up to nine, so you would have to subtract nine and get zero the identity."],"rt":72582,"trial_type":"question","trial_index":0,"trial_index_global":57,"time_elapsed":1261948,"internal_chunk_id":"0-0.11-0"},{"question":"Is 2 a generator under +<sub>9</sub>? Please explain in words how you got your answer.","response_type":"f ree","response_choices":[],"correct_response":"","response":"yes, if you add two plus zero it is two, if you add two plus one it is three, if you add two plus two it is four, if you add two plus three it is five, if you add two plus four it is six, if you add two plus five, you get seven,if you add two plus six it is eight, if you add two plus seven it is nine,if you add two plus eight it is ten, you must remove nine from and get one. You can get all other numbers. ","response_history":["yes, if you add te","yes, if you add two pu","yes, if you add two plus zeri","yes, if you add two plus zero it is two, if you add two plus one it is three, if you add two plus two it is four, if you add two plus hr","yes, if you add two plus zero it is two, if you add two plus one it is three, if you add two plus two it is four, if you add two plus h","yes, if you add two plus zero it is two, if you add two plus one it is three, if you add two plus two it is four, if you add two plus three i  is ","y es, if you add two plus zero it is two, if you add two plus one it is three, if you add two plus two it is four, if you add two plus three i is","yes, if you add two plus zero it is two, if you add two plus one it is three, if you add two plus two it is four, if you add two plus three i i","yes, if you add two plus zero it is two, if you add two plus one it is three, if you add two plus two it is four, if you add two plus three i ","yes, if you add two plus zero it is two, if you add two plus one it is three, if you add two plus two it is four, if you add two plus three it is five, if you add two plus four it is six, if you add two plus t","yes, if you add two plus zero it is two, if you add two plus one it is three, if you add two plus two it is four, if you add two plus three it is five, if you add two plus four it is six, if you add two plus five, it is seven, if you add to","yes, if you add two plus zero it is two, if you add two plus one it is three, if you add two plus  two it  is four, if you add two plus three it is five, if you add two plus four it is six, if you add two plus five, it is seven, if you add two plus eight is","yes, if you add two plus zero it is two, if you add two plus one it is three, if you add two plus two it is four, if you add two plus three it is five, if you add two plus four it is six, if you add two plus five, it is seven, if you add two plus eight it is ten, yo","yes, if you add two plus zero it is two, if you add two plus one it is three, if you add two plus two it is four, if you add two plus three it is five, if you add two plus four it is six, if you add two plus five, it is seven, if you add two plus eight it is ten, y","yes, if you add two plus zero it is two, if you add two plus one it is three, if you add two plus two it is four, if you add two plus three it is five, if you add two plus four it is six, if you add two plus five, it is seven, if you add two plus eight it is ten, ","yes, if you add two plus zero it  is two,  if you add two plus one it is three, if you add two plus two it is four, if you add two plus three it is five, if you add two plus four it is six, if you add two plus five, it is seven, if you add two plus eight it is ten, you musr","yes, if you add two plus zero it is two, if you add two plus one it is three, if you add two plus two it is four, if you add two plus three it is five, if you add two plus four it is six, if you add two plus five, it is seven, if you add two plus eight it is ten, you must remove nine fo","yes, if you add two plus zero it is two, if you add two plus one it is three, if you add two plus two it is four, if you add two plus three it is five, if you add two plus four it is six, if you add two plus five, it is seven, if you add two plus eight it is ten, you must remove nine from and get one. ","yes, if you add two plus zero it is two, if you add two plus one it is three, if you add two plus two it is four, if you add two plus three it is five, if you  add two  plus four it is six, if you add two plus five, iit is seven, if you add two plus eight it is ten, you must remove nine from and get one. ","yes, if you add two plus zero it is two, if you add two plus one it is three, if you add two plus two it is four, if you add two plus three it is five, if you add two plus four it is six, if you add two plus five, ifit is seven, if you add two plus eight it is ten, you must remove nine from and get one. ","yes, if you add two plus zero it is two, if you add two plus one it is three, if you add two plus two it is four, if you add two plus three it is five, if you add two plus four it is six, if you add two plus five, if it is seven, if you add two plus eight it is ten, you must remove nine from and get one. ","yes, if you add two plus zero it is two, if you add two plus one it is three, if you add two plus two it is four, if you add two plus three it is five, if you add two plus four it is six, if you add two plus five, if yit is seven,  if you a dd two plus eight it is ten, you must remove nine from and get one. ","yes, if you add two plus zero it is two, if you add two plus one it is three, if you add two plus two it is four, if you add two plus three it is five, if you add two plus four it is six, if you add two plus five, if youit is seven, if you add two plus eight it is ten, you must remove nine from and get one. ","yes, if you add two plus zero it is two, if you add two plus one it is three, if you add two plus two it is four, if you add two plus three it is five, if you add two plus four it is six, if you add two plus five, if you it is seven, if you add two plus eight it is ten, you must remove nine from and get one. ","yes, if you add two plus zero it is two, if you add two plus one it is three, if you add two plus two it is four, if you add two plus three it is five, if you add two plus four it is six, if you add two plus five, if you ait is seven, if you add two plus eight it is ten, you must remove nine  from and  get one. ","yes, if you add two plus zero it is two, if you add two plus one it is three, if you add two plus two it is four, if you add two plus three it is five, if you add two plus four it is six, if you add two plus five, if you adit is seven, if you add two plus eight it is ten, you must remove nine from and get one. ","yes, if you add two plus zero it is two, if you add two plus one it is three, if you add two plus two it is four, if you add two plus three it is five, if you add two plus four it is six, if you add two plus five, if you addit is seven, if you add two plus eight it is ten, you must remove nine from and get one. ","yes, if you add two plus zero it is two, if you add two plus one it is three, if you add two plus two it is four, if you add two plus three it is five, if you add two plus four it is six, if you add two plus five, if you add it is seven, if you add two plus eight it is ten, you must remove nine from and get one. ","yes, if you add two plus zer o it is  two, if you add two plus one it is three, if you add two plus two it is four, if you add two plus three it is five, if you add two plus four it is six, if you add two plus five, if you add tit is seven, if you add two plus eight it is ten, you must remove nine from and get one. ","yes, if you add two plus zero it is two, if you add two plus one it is three, if you add two plus two it is four, if you add two plus three it is five, if you add two plus four it is six, if you add two plus five, if you add twit is seven, if you add two plus eight it is ten, you must remove nine from and get one. ","yes, if you add two plus zero it is two, if you add two plus one it is three, if you add two plus two it is four, if you add two plus three it is five, if you add two plus four it is six, if you add two plus five, if you add twoit is seven, if you add two plus eight it is ten, you must remove nine from and get one. ","yes, if you add two plus zero it is two, if you add two plus one it  is three , if you add two plus two it is four, if you add two plus three it is five, if you add two plus four it is six, if you add two plus five, if you add two it is seven, if you add two plus eight it is ten, you must remove nine from and get one. ","yes, if you add two plus zero it is two, if you add two plus one it is three, if you add two plus two it is four, if you add two plus three it is five, if you add two plus four it is six, if you add two plus five, if you add two pit is seven, if you add two plus eight it is ten, you must remove nine from and get one. ","yes, if you add two plus zero it is two, if you add two plus one it is three, if you add two plus two it is four, if you add two plus three it is five, if you add two plus four it is six, if you add two plus five, if you add two plit is seven, if you add two plus eight it is ten, you must remove nine from and get one. ","yes, if you add two plus zero it is two, if you add two plus one it is three, if you add two plus t wo it is  four, if you add two plus three it is five, if you add two plus four it is six, if you add two plus five, if you add two pluit is seven, if you add two plus eight it is ten, you must remove nine from and get one. ","yes, if you add two plus zero it is two, if you add two plus one it is three, if you add two plus two it is four, if you add two plus three it is five, if you add two plus four it is six, if you add two plus five, if you add two plusit is seven, if you add two plus eight it is ten, you must remove nine from and get one. ","yes, if you add two plus zero it is two, if you add two plus one it is three, if you add two plus two it is four, if you add two plus three it is five, if you add two plus four it is six, if you add two plus five, if you add two plus it is seven, if you add two plus eight it is ten, you must remove nine from and get one. ","yes, if you add two plus zero it is two, if you add two plus one it is three, if you add two plus two it is four, if you  add two  plus three it is five, if you add two plus four it is six, if you add two plus five, if you add two plus sit is seven, if you add two plus eight it is ten, you must remove nine from and get one. ","yes, if you add two plus zero it is two, if you add two plus one it is three, if you add two plus two it is four, if you add two plus three it is five, if you add two plus four it is six, if you add two plus five, if you add two plus siit is seven, if you add two plus eight it is ten, you must remove nine from and get one. ","yes, if you add two plus zero it is two, if you add two plus one it is three, if you add two plus two it is four, if you add two plus three it is five, if you add two plus four it is six, if you add two plus five, if you add two plus sixit is seven, if you add two plus eight it is ten, you must remove nine from and get one. ","yes, if you add two plus zero it is two, if you add two plus one it is three, if you add two plus two it is four, if you add two plus  three it  is five, if you add two plus four it is six, if you add two plus five, if you add two plus six it is seven, if you add two plus eight it is ten, you must remove nine from and get one. ","yes, if you add two plus zero it is two, if you add two plus one it is three, if you add two plus two it is four, if you add two plus three it is five, if you add two plus four it is six, if you add two plus five, if you add two plus six yit is seven, if you add two plus eight it is ten, you must remove nine from and get one. ","yes, if you add two plus zero it is two, if you add two plus one it is three, if you add two plus two it is four, if you add two plus three it is five, if you add two plus four it is six, if you add two plus five, if you add two plus six it is seven, if you add two plus eight it is ten, you must remove nine from and get one. ","yes, if you add two plus zero it is two, if you add two plus one it is three, if you add two plus two it is four, if you add two plus three  it is fi ve, if you add two plus four it is six, if you add two plus five, if you add two plus six iit is seven, if you add two plus eight it is ten, you must remove nine from and get one. ","yes, if you add two plus zero it is two, if you add two plus one it is three, if you add two plus two it is four, if you add two plus three it is five, if you add two plus four it is six, if you add two plus five, if you add two plus six it it is seven, if you add two plus eight it is ten, you must remove nine from and get one. ","yes, if you add two plus zero it is two, if you add two plus one it is three, if you add two plus two it is four, if you add two plus three it is five, if you add two plus four it is six, if you add two plus five, if you add two plus six it iit is seven, if you add two plus eight it is ten, you must remove nine from and get one. ","yes, if you add two plus zero it is two, if you add two plus one it is three, if you add two plus two it is four, if you add two plus three  it is f ive, if you add two plus four it is six, if you add two plus five, if you add two plus six it isit is seven, if you add two plus eight it is ten, you must remove nine from and get one. ","yes, if you add two plus zero it is two, if you add two plus one it is three, if you add two plus two it is four, if you add two plus three it is five, if you add two plus four it is six, if you add two plus five, if you add two plus six it is it is seven, if you add two plus eight it is ten, you must remove nine from and get one. ","yes, if you add two plus zero it is two, if you add two plus one it is three, if you add two plus two it is four, if you add two plus three it is five, if you add two plus four it is six, if you add two plus five, yif you add two plus six it is it is seven, if you add two plus eight it is ten, you must remove nine from and get one. ","yes, if you add two plus zero it is two, if you add two plus one it is three, if you add two plus two it is four, if you add two  plus th ree it is five, if you add two plus four it is six, if you add two plus five, youif you add two plus six it is it is seven, if you add two plus eight it is ten, you must remove nine from and get one. ","yes, if you add two plus zero it is two, if you add two plus one it is three, if you add two plus two it is four, if you add two plus three it is five, if you add two plus four it is six, if you add two plus five, you if you add two plus six it is it is seven, if you add two plus eight it is ten, you must remove nine from and get one. ","yes, if you add two plus zero it is two, if you add two plus one it is three, if you add two plus two it is four, if you add two plus three it is five, if you add two plus four it is six, if you add two plus five, you gif you add two plus six it is it is seven, if you add two plus eight it is ten, you must remove nine from and get one. ","yes, if you add two plus zero it is two, if you add two plus one it is three, if you add two plus two it  is four,  if you add two plus three it is five, if you add two plus four it is six, if you add two plus five, you geif you add two plus six it is it is seven, if you add two plus eight it is ten, you must remove nine from and get one. ","yes, if you add two plus zero it is two, if you add two plus one it is three, if you add two plus two it is four, if you add two plus three it is five, if you add two plus four it is six, if you add two plus five, you getif you add two plus six it is it is seven, if you add two plus eight it is ten, you must remove nine from and get one. ","yes, if you add two plus zero it is two, if you add two plus one it is three, if you add two plus two it is four, if you add two plus three it is five, if you add two plus four it is six, if you add two plus five, you get if you add two plus six it is it is seven, if you add two plus eight it is ten, you must remove nine from and get one. ","yes, if you add two plus zero it is two, if you add two plus one it is th ree, if  you add two plus two it is four, if you add two plus three it is five, if you add two plus four it is six, if you add two plus five, you get sif you add two plus six it is it is seven, if you add two plus eight it is ten, you must remove nine from and get one. ","yes, if you add two plus zero it is two, if you add two plus one it is three, if you add two plus two it is four, if you add two plus three it is five, if you add two plus four it is six, if you add two plus five, you get seif you add two plus six it is it is seven, if you add two plus eight it is ten, you must remove nine from and get one. ","yes, if you add two plus zero it is two, if you add two plus one it is three, if you add two plus two it is four, if you add two plus three it is five, if you add two plus four it is six, if you add two plus five, you get sevif you add two plus six it is it is seven, if you add two plus eight it is ten, you must remove nine from and get one. ","yes, if you add two plus zero it  is two,  if you add two plus one it is three, if you add two plus two it is four, if you add two plus three it is five, if you add two plus four it is six, if you add two plus five, you get seveif you add two plus six it is it is seven, if you add two plus eight it is ten, you must remove nine from and get one. ","yes, if you add two plus zero it is two, if you add two plus one it is three, if you add two plus two it is four, if you add two plus three it is five, if you add two plus four it is six, if you add two plus five, you get sevenif you add two plus six it is it is seven, if you add two plus eight it is ten, you must remove nine from and get one. ","yes, if you add two plus zero it is two, if you add two plus one it is three, if you add two plus two it is four, if you add two plus three it is five, if you add two plus four it is six, if you add two plus five, you get seven,if you add two plus six it is it is seven, if you add two plus eight it is ten, you must remove nine fro m and ge t one. ","yes, if you add two plus zero it is two, if you add two plus one it is three, if you add two plus two it is four, if you add two plus three it is five, if you add two plus four it is six, if you add two plus five, you get seven,if you add two plus six it is eit is seven, if you add two plus eight it is ten, you must remove nine from and get one. ","yes, if you add two plus zero it is two, if you add two plus one it is three, if you add two plus two it is four, if you add two plus three it is five, if you add two plus four it is six, if you add two plus five, you get seven,if you add two plus six it is eiit is seven, if you add two plus eight it is ten, you must remove nine from and get one. ","yes, if you add two plus zero it is two, if you add two plus one it is three, if you add two plus two it is four, if you add two plus three it is five, if you add two plus four it is six, if you add two plus five, you get seven,if you add two plus six it is eigit is seven, if  you add  two plus eight it is ten, you must remove nine from and get one. ","yes, if you add two plus zero it is two, if you add two plus one it is three, if you add two plus two it is four, if you add two plus three it is five, if you add two plus four it is six, if you add two plus five, you get seven,if you add two plus six it is eighit is seven, if you add two plus eight it is ten, you must remove nine from and get one. ","yes, if you add two plus zero it is two, if you add two plus one it is three, if you add two plus two it is four, if you add two plus three it is five, if you add two plus four it is six, if you add two plus five, you get seven,if you add two plus six it is eightit is seven, if you add two plus eight it is ten, you must remove nine from and get one. ","yes, if you add two plus zero it is two, if you add two plus one it is three, if you add two plus two it is four, if you add two plus three it is five, if you add two plus four it is six, if you add two plus fiv e, you g et seven,if you add two plus six it is eight,it is seven, if you add two plus eight it is ten, you must remove nine from and get one. ","yes, if you add two plus zero it is two, if you add two plus one it is three, if you add two plus two it is four, if you add two plus three it is five, if you add two plus four it is six, if you add two plus five, you get seven,if you add two plus six it is eight,t is seven, if you add two plus eight it is ten, you must remove nine from and get one. ","yes, if you add two plus zero it is two, if you add two plus one it is three, if you add two plus two it is four, if you add two plus three it is five, if you add two plus four it is six, if you add two plus five, you get seven,if you add two plus six it is eight, is seven, if you add two plus eight it is ten, you must remove nine from and get one. ","yes, if you add two plus zero it is two, if you add two plus one it is three, if you add two plus two it is four, if you add two plus three it  is five,  if you add two plus four it is six, if you add two plus five, you get seven,if you add two plus six it is eight,is seven, if you add two plus eight it is ten, you must remove nine from and get one. ","yes, if you add two plus zero it is two, if you add two plus one it is three, if you add two plus two it is four, if you add two plus three it is five, if you add two plus four it is six, if you add two plus five, you get seven,if you add two plus six it is eight,s seven, if you add two plus eight it is ten, you must remove nine from and get one. ","yes, if you add two plus zero it is two, if you add two plus one it is three, if you add two plus two it is four, if you add two plus three it is five, if you add two plus four it is six, if you add two plus five, you get seven,if you add two plus six it is eight, seven, if you add two plus eight it is ten, you must remove nine from and get one. ","yes, if you add two plus zero it is two, if you add two plus one it is three, if you  add two  plus two it is four, if you add two plus three it is five, if you add two plus four it is six, if you add two plus five, you get seven,if you add two plus six it is eight,seven, if you add two plus eight it is ten, you must remove nine from and get one. ","yes, if you add two plus zero it is two, if you add two plus one it is three, if you add two plus two it is four, if you add two plus three it is five, if you add two plus four it is six, if you add two plus five, you get seven,if you add two plus six it is eight,even, if you add two plus eight it is ten, you must remove nine from and get one. ","yes, if you add two plus zero it is two, if you add two plus one it is three, if you add two plus two it is four, if you add two plus three it is five, if you add two plus four it is six, if you add two plus five, you get seven,if you add two plus six it is eight,ven, if you add two plus eight it is ten, you must remove nine from and get one. ","yes, if you add two plus zero it i s two, i f you add two plus one it is three, if you add two plus two it is four, if you add two plus three it is five, if you add two plus four it is six, if you add two plus five, you get seven,if you add two plus six it is eight,en, if you add two plus eight it is ten, you must remove nine from and get one. ","yes, if you add two plus zero it is two, if you add two plus one it is three, if you add two plus two it is four, if you add two plus three it is five, if you add two plus four it is six, if you add two plus five, you get seven,if you add two plus six it is eight,ou add two plus eight it is ten, you must remove nine from and get one. ","yes, if you add two plus zero it is two, if you add two plus one it is three, if you add two plus two it is four, if you add two plus three it is five, if you add two plus four it is six, if you add two plus five, you get seven,if you add two plus six it is eight,u add two plus eight it is ten, you must remove nine from and get one. ","yes, if  you add  two plus zero it is two, if you add two plus one it is three, if you add two plus two it is four, if you add two plus three it is five, if you add two plus four it is six, if you add two plus five, you get seven,if you add two plus six it is eight, add two plus eight it is ten, you must remove nine from and get one. ","yes, if you add two plus zero it is two, if you add two plus one it is three, if you add two plus two it is four, if you add two plus three it is five, if you add two plus four it is six, if you add two plus five, you get seven,if you add two plus six it is eight,i add two plus eight it is ten, you must remove nine from and get one. ","yes, if you add two plus zero it is two, if you add two plus one it is three, if you add two plus two it is four, if you add two plus three it is five, if you add two plus four it is six, if you add two plus five, you get seven,if you add two plus six it is eight,if add two plus eight it is ten, you must remove nine from and ge t one. ","yes, if you add two plus zero it is two, if you add two plus one it is three, if you add two plus two it is four, if you add two plus three it is five, if you add two plus four it is six, if you add two plus five, you get seven,if you add two plus six it is eight,if  add two plus eight it is ten, you must remove nine from and get one. ","yes, if you add two plus zero it is two, if you add two plus one it is three, if you add two plus two it is four, if you add two plus three it is five, if you add two plus four it is six, if you add two plus five, you get seven,if you add two plus six it is eight,if y add two plus eight it is ten, you must remove nine from and get one. ","yes, if you add two plus zero it is two, if you add two plus one it is three, if you add two plus two it is four, if you add two plus three it is five, if you add two plus four it is six, if you add two plus five, you get seven,if you add two plus six it is eight,if you add two plus eight it is ten, you m ust remo ve nine from and get one. ","yes, if you add two plus zero it is two, if you add two plus one it is three, if you add two plus two it is four, if you add two plus three it is five, if you add two plus four it is six, if you add two plus five, you get seven,if you add two plus six it is eight,if yo add two plus eight it is ten, you must remove nine from and get one. ","yes, if you add two plus zero it is two, if you add two plus one it is three, if you add two plus two it is four, if you add two plus three it is five, if you add two plus four it is six, if you add two plus five, you get seven,if you add two plus six it is eight,if y add two plus eight it is ten, you must remove nine from and get one. ","yes, if you add two plus zero it is two, if you add two plus one it is three, if you add two plus two it is four, if you add two plus three it is five, if you add two plus four it is six, if you add two plus five, you get seven,if you add two plus six it is eight,if  add two p lus eigh t it is ten, you must remove nine from and get one. ","yes, if you add two plus zero it is two, if you add two plus one it is three, if you add two plus two it is four, if you add two plus three it is five, if you add two plus four it is six, if you add two plus five, you get seven,if you add two plus six it is eight,if add two plus eight it is ten, you must remove nine from and get one. ","yes, if you add two plus zero it is two, if you add two plus one it is three, if you add two plus two it is four, if you add two plus three it is five, if you add two plus four it is six, if you add two plus five, you get seven,if you add two plus six it is eight,i add two plus eight it is ten, you must remove nine from and get one. ","yes, if you add two plus zero it is two, if you add two plus one it is three, if you add two plus two it is four, if you add two plus three it is five, if you add two plus four it is six, if you add two plus five, you get seven,if you add two plus six it is  eight,  add two plus eight it is ten, you must remove nine from and get one. ","yes, if you add two plus zero it is two, if you add two plus one it is three, if you add two plus two it is four, if you add two plus three it is five, if you add two plus four it is six, if you add two plus five, you get seven,if you add two plus six it is eight,  add two plus eight it is ten, you must remove nine from and get one. ","yes, if you add two plus zero it is two, if you add two plus one it is three, if you add two plus two it is four, if you add two plus three it is five, if you add two plus four it is six, if you add two plus five, you get seven,if you add two plus six it is eight, i add two plus eight it is ten, you must remove nine from and get one. ","yes, if you add two plus zero it is two, if you add two plus one it is three, if you add two plus two it is four, if you add two plus three it is five, if you add two plus four it is six, if you add two plus five, you get seven,if you add t wo plus  six it is eight, if add two plus eight it is ten, you must remove nine from and get one. ","yes, if you add two plus zero it is two, if you add two plus one it is three, if you add two plus two it is four, if you add two plus three it is five, if you add two plus four it is six, if you add two plus five, you get seven,if you add two plus six it is eight, if y add two plus eight it is ten, you must remove nine from and get one. ","yes, if you add two plus zero it is two, if you add two plus one it is three, if you add two plus two it is four, if you add two plus three it is five, if you add two plus four it is six, if you add two plus five, you get seven,if you add two plus six it is eight, if you add two plus eight it is ten, you must remove nine from and get one. ","yes, if you add two plus zero it is two, if you add two plus one it is three, if you add two plus two it is four, if you add two plus three it is five, if you add two plus four it is six, if you add two plus fiv e, you g et seven,if you add two plus six it is eight, if you  add two plus eight it is ten, you must remove nine from and get one. ","yes, if you add two plus zero it is two, if you add two plus one it is three, if you add two plus two it is four, if you add two plus three it is five, if you add two plus four it is six, if you add two plus five, you get seven,if you add two plus six it is eight, if you a add two plus eight it is ten, you must remove nine from and get one. ","yes, if you add two plus zero it is two, if you add two plus one it is three, if you add two plus two it is four, if you add two plus three it is five, if you add two plus four it is six, if you add two plus five, you get seven,if you add two plus six it is eight, if you ad add two plus eight it is ten, you must remove nine from and get one. ","yes, if you add two plus zero it is two, if you add two plus one it is three, if you add two plus two it is four, if you add two plus three it is five, if you add two plu s four i t is six, if you add two plus five, you get seven,if you add two plus six it is eight, if you add add two plus eight it is ten, you must remove nine from and get one. ","yes, if you add two plus zero it is two, if you add two plus one it is three, if you add two plus two it is four, if you add two plus three it is five, if you add two plus four it is six, if you add two plus five, you get seven,if you add two plus six it is eight, if you add  add two plus eight it is ten, you must remove nine from and get one. ","yes, if you add two plus zero it is two, if you add two plus one it is three, if you add two plus two it is four, if you add two plus three it is five, if you add two plus four it is six, if you add two plus five, you get seven,if you add two plus six it is eight, if you add t add two plus eight it is ten, you must remove nine from and get one. ","yes, if you add two plus zero it is two, if you add two plus one it is three, if you add two plus two it is four, if you  add two  plus three it is five, if you add two plus four it is six, if you add two plus five, you get seven,if you add two plus six it is eight, if you add tw add two plus eight it is ten, you must remove nine from and get one. ","yes, if you add two plus zero it is two, if you add two plus one it is three, if you add two plus two it is four, if you add two plus three it is five, if you add two plus four it is six, if you add two plus five, you get seven,if you add two plus six it is eight, if you add two add two plus eight it is ten, you must remove nine from and get one. ","yes, if you add two plus zero it is two, if you add two plus one it is three, if you add two plus two it is four, if you add two plus three it is five, if you add two plus four it is six, if you add two plus five, you get seven,if you add two plus six it is eight, if you add two  add two plus eight it is ten, you must remove nine from and get one. ","yes, if you add two plus zero it is two, if you add two plus  one it i s three, if you add two plus two it is four, if you add two plus three it is five, if you add two plus four it is six, if you add two plus five, you get seven,if you add two plus six it is eight, if you add two p add two plus eight it is ten, you must remove nine from and get one. ","yes, if you add two plus zero it is two, if you add two plus one it is three, if you add two plus two it is four, if you add two plus three it is five, if you add two plus four it is six, if you add two plus five, you get seven,if you add two plus six it is eight, if you add two pl add two plus eight it is ten, you must remove nine from and get one. ","yes, if you add two plus zero it is two, if you add two plus one it is three, if you add two plus two it is four, if you add two plus three it is five, if you add two plus four it is six, if you add two plus five, you get seven,if you add two plus six it is eight, if you add two plu add two plus eight it is ten, you must remove nine from and get o ne. ","y es, if you add two plus zero it is two, if you add two plus one it is three, if you add two plus two it is four, if you add two plus three it is five, if you add two plus four it is six, if you add two plus five, you get seven,if you add two plus six it is eight, if you add two plus add two plus eight it is ten, you must remove nine from and get one. ","yes, if you add two plus zero it is two, if you add two plus one it is three, if you add two plus two it is four, if you add two plus three it is five, if you add two plus four it is six, if you add two plus five, you get seven,if you add two plus six it is eight, if you add two plus  add two plus eight it is ten, you must remove nine from and get one. ","yes, if you add two plus zero it is two, if you add two plus one it is three, if you add two plus two it is four, if you add two plus three it is five, if you add two plus four it is six, if you add two plus five, you get seven,if you add two plus six it is eight, if you add  two plu s n add two plus eight it is ten, you must remove nine from and get one. ","yes, if you add two plus zero it is two, if you add two plus one it is three, if you add two plus two it is four, if you add two plus three it is five, if you add two plus four it is six, if you add two plus five, you get seven,if you add two plus six it is eight, if you add two plus no add two plus eight it is ten, you must remove nine from and get one. ","yes, if you add two plus zero it is two, if you add two plus one it is three, if you add two plus two it is four, if you add two plus three it is five, if you add two plus four it is six, if you add two plus five, you get seven,if you add two plus six it is eight, if you add two plus n add two plus eight it is ten, you must remove nine from and get one. ","yes, if you add two plus zero it is two, if you add two plus one it is three, if you add two plus two it is four, if you add two plus three it is five, if you add two plus four it is six, if you  add two  plus five, you get seven,if you add two plus six it is eight, if you add two plus  add two plus eight it is ten, you must remove nine from and get one. ","yes, if you add two plus zero it is two, if you add two plus one it is three, if you add two plus two it is four, if you add two plus three it is five, if you add two plus four it is six, if you add two plus five, you get seven,if you add two plus six it is eight, if you add two plus s add two plus eight it is ten, you must remove nine from and get one. ","yes, if you add two plus zero it is two, if you add two plus one it is three, if you add two plus two it is four, if you add two plus three it is five, if you add two plus four it is six, if you add two plus five, you get seven,if you add two plus six it is eight, if you add two plus se add two plus eight it is ten, you must remove nine from and get one. ","yes, if you add two plus zero it is two, if you add two plus one it is three, if you add two plus two it is four,  if you a dd two plus three it is five, if you add two plus four it is six, if you add two plus five, you get seven,if you add two plus six it is eight, if you add two plus sev add two plus eight it is ten, you must remove nine from and get one. ","yes, if you add two plus zero it is two, if you add two plus one it is three, if you add two plus two it is four, if you add two plus three it is five, if you add two plus four it is six, if you add two plus five, you get seven,if you add two plus six it is eight, if you add two plus seven add two plus eight it is ten, you must remove nine from and get one. ","yes, if you add two plus zero it is two, if you add two plus one it is three, if you add two plus two it is four, if you add two plus three it is five, if you add two plus four it is six, if you add two plus five, you get seven,if you add two plus six it is eight, if you add two plus seven  add two plus eight it is ten, you must remove nine from and get one. ","yes, if you add two plu s zero i t is two, if you add two plus one it is three, if you add two plus two it is four, if you add two plus three it is five, if you add two plus four it is six, if you add two plus five, you get seven,if you add two plus six it is eight, if you add two plus seven i add two plus eight it is ten, you must remove nine from and get one. ","yes, if you add two plus zero it is two, if you add two plus one it is three, if you add two plus two it is four, if you add two plus three it is five, if you add two plus four it is six, if you add two plus five, you get seven,if you add two plus six it is eight, if you add two plus seven it add two plus eight it is ten, you must remove nine from and get one. ","yes, if you add two plus zero it is two, if you add two plus one it is three, if you add two plus two it is four, if you add two plus three it is five, if you add two plus four it is six, if you add two plus five, you get seven,if you add two plus six it is eight, if you add two plus seve n it  ad d two plus eight it is ten, you must remove nine from and get one. ","yes, if you add two plus zero it is two, if you add two plus one it is three, if you add two plus two it is four, if you add two plus three it is five, if you add two plus four it is six, if you add two plus five, you get seven,if you add two plus six it is eight, if you add two plus seven it i add two plus eight it is ten, you must remove nine from and get one. ","yes, if you add two plus zero it is two, if you add two plus one it is three, if you add two plus two it is four, if you add two plus three it is five, if you add two plus four it is six, if you add two plus five, you get seven,if you add two plus six it is eight, if you add two plus seven it is add two plus eight it is ten, you must remove nine from and get one. ","yes, if you add two plus zero it is two, if you add two plus one it is three, if you add two plus two it is four, if you add two plus three it is five, if you add two plus four it is  six, if  you add two plus five, you get seven,if you add two plus six it is eight, if you add two plus seven it is  add two plus eight it is ten, you must remove nine from and get one. ","yes, if you add two plus zero it is two, if you add two plus one it is three, if you add two plus two it is four, if you add two plus three it is five, if you add two plus four it is six, if you add two plus five, you get seven,if you add two plus six it is eight, if you add two plus seven it is n add two plus eight it is ten, you must remove nine from and get one. ","yes, if you add two plus zero it is two, if you add two plus one it is three, if you add two plus two it is four, if you add two plus three it is five, if you add two plus four it is six, if you add two plus five, you get seven,if you add two plus six it is eight, if you add two plus seven it is nin add two plus eight it is ten, you must remove nine from and get one. ","yes, if you add two plus zero it is two, if you add two plus one  it is th ree, if you add two plus two it is four, if you add two plus three it is five, if you add two plus four it is six, if you add two plus five, you get seven,if you add two plus six it is eight, if you add two plus seven it is nine add two plus eight it is ten, you must remove nine from and get one. ","yes, if you add two plus zero it is two, if you add two plus one it is three, if you add two plus two it is four, if you add two plus three it is five, if you add two plus four it is six, if you add two plus five, you get seven,if you add two plus six it is eight, if you add two plus seven it is nine, add two plus eight it is ten, you must remove nine from and get one. ","yes, if you add two plus zero it is two, if you add two plus one it is three, if you add two plus two it is four, if you add two plus three it is five, if you add two plus four it is six, if you add two plus five, you get seven,if you add two plus six it is eight, if you add two plus seven it is nine,i add two p lus eigh t it is ten, you must remove nine from and get one. ","yes, if you add two plus zero it is two, if you add two plus one it is three, if you add two plus two it is four, if you add two plus three it is five, if you add two plus four it is six, if you add two plus five, you get seven,if you add two plus six it is eight, if you add two plus seven it is nine,if add two plus eight it is ten, you must remove nine from and get one. ","yes, if you add two plus zero it is two, if you add two plus one it is three, if you add two plus two it is four, if you add two plus three it is five, if you add two plus four it is six, if you add two plus five, you get seven,if you add two plus six it is eight, if you add two plus seven it is nine,if  add two plus eight it is ten, you must remove nine from and get one. ","yes, if you add two plus zero it is two, if you add two plus one it is three, if you add two plus two it is four, if you add two plus three it is five, if you add two plus four it  is six,  if you add two plus five, you get seven,if you add two plus six it is eight, if you add two plus seven it is nine,if y add two plus eight it is ten, you must remove nine from and get one. ","yes, if you add two plus zero it is two, if you add two plus one it is three, if you add two plus two it is four, if you add two plus three it is five, if you add two plus four it is six, if you add two plus five, you get seven,if you add two plus six it is eight, if you add two plus seven it is nine,if you add two plus eight it is ten, you must remove nine from and get one. YOu ","yes, if you add two plus zero it is two, if you add two plus one it is three, if you add two plus two it is four, if you add two plus three it is five, if you add two plus four it is six, if you add two plus five, you get seven,if you add two plus six it is eight, if you add two plus seven it is nine,if you add two plus eight it is ten, you must remove nine from and get one. YOu","yes, if you add two plus zer o it is  two, if you add two plus one it is three, if you add two plus two it is four, if you add two plus three it is five, if you add two plus four it is six, if you add two plus five, you get seven,if you add two plus six it is eight, if you add two plus seven it is nine,if you add two plus eight it is ten, you must remove nine from and get one. YO","yes, if you add two plus zero it is two, if you add two plus one it is three, if you add two plus two it is four, if you add two plus three it is five, if you add two plus four it is six, if you add two plus five, you get seven,if you add two plus six it is eight, if you add two plus seven it is nine,if you add two plus eight it is ten, you must remove nine from and get one. You can get all other numbers. "],"rt":421605,"trial_type":"question","trial_index":0,"trial_index_global":58,"time_elapsed":1683559,"internal_chunk_id":"0-0.11-0"},{"question":"Is 3 a generator under +<sub>9</sub>? Please explain in words how you got your answer. ","response_type":"free","response_choices":[],"correct_response":"","response":"3,4,5,6,7,8,9(0),10(3),11(8)","response_history":["3,4,5,6,7,8,9(0),10(3),11(8)"],"rt":93316,"trial_type":"question","trial_index":0,"trial_index_global":59,"time_elapsed":1776878,"internal_chunk_id":"0-0.11-0"},{"question":"Is 5 a generator under +<sub>9</sub>? Please explain in words how you got your answer.","response_type":"free","response_choices":[],"correct_response":"","response":"No, you cannot get four from it. I add 0-8 to five for each and subtract nine from any sums of nine or over, four is not possible. ","response_history":["5,6,7,8,0,1,2,3,8","No ","No, you ann","No, you an","No, you a","No, you cannot get four from it. I add 0-8 to five for each and n","No, you cannot get four from it. I add 0-8 to five for each and subtract nine from ove","No, you cannot get four from it. I add 0-8 to five for each and subtract nine from ov","No, you cannot get four from it. I add 0-8 to five for each  and subt ract nine from o","No, you cannot get four from it. I add 0-8 to five for each and subtract nine from any sums ov","No, you cannot get four from it. I add 0-8 to five for each and subtract nine from any sums o","No, you cannot get four from it. I add 0-8 to five for each and subtract nine from any sums of nine or a","No, you cannot get four from it. I add 0-8 to five for each and subtract nine from any sums of nine or over, four in ","No, you cannot get four from it. I add 0-8 to five for each and subtract nine from any sums of nine or over, four in","No, you cannot get four from it. I add 0-8 to five for each and subtract nine from any sums of nine or over, four is not possible. "],"rt":114419,"trial_type":"question","trial_index":0,"trial_index_global":60,"time_elapsed":1891303,"internal_chunk_id":"0-0.11-0"},{"question":"Is 6 a generator under +<sub>9</sub>? Please explain in words how you got your answer.","response_type":"free","response_choices":[],"correct_response":" ","response":"No, you cannot get five by adding 0-8 to it after subtracting nine from any sums of nine or above. ","response_history":["6,7,8,0,1,2,3,4,8","No, you a","No, you ccann","No, you ccan","No, you cca","No, you cc","No, you cannot get five by adding 0-8 to it after subtracting nine r","No, you cannot get five by adding 0-8 to it after subtracting nine from any sums of i","No, you cannot get five by adding 0-8 to it after subtracting nine from any sums of nine or above. "],"rt":89162,"trial_type":"question","trial_index":0,"trial_index_global":61,"time_elapsed":1980468,"internal_chunk_id":"0-0.11-0"},{"instructions":"Now we'd like to ask you some questions about +<sub>n</sub>, where n could be any postive counting number. For example, n could be 3, or n could be any other counting number you can think of. If you need to write the operation, you can use \"+_n\", and your answers can include n to stand in for the arbitrary value if necessary.","rt":26291,"trial_type":"instr uctions","trial_index":0,"trial_index_global":62,"time_elapsed":2006763,"internal_chunk_id":"0-0"},{"question":"What is the formula for the inverse of 1 under +<sub>n</sub>?","response_type":"free","response_choices":[],"correct_response":"n-1","response":"1+n=n-1","response_history":["1+n+","1+n=n-1"],"rt":42752,"trial_type":"question","trial_index":0,"trial_index_global":63,"time_elapsed":2049518,"internal_chunk_id":"0-0.13-0"},{"question":"What is the formula for the inverse of an element x under +<sub>n</sub>? Please explain in words how you got your answer.","response_type":"free","response_choices":[],"correct_response":"n-x","response":"x inverse=n-1.I would subtract x from n to come up with inverse of x. ","response_history":["I would subtrcuc","I would subtrcu","I would subtrc","I would subtract x from ","iI would subtract x from ","inI would subtract x from ","iI would subtract x from ","I would subtract x from ","xI would subtract x from ","x=I would subtract x from ","x= nI would  subtract x from ","x=n-I would subtract x from ","x=n-1I would subtract x from ","x=n-1.I would subtract x from ","x =n-1.I would subtract x from ","x i=n-1.I would subtract x from ","x in=n-1.I would subtract x from ","x inv=n-1.I would subtract x from ","x inve=n-1.I would subtract x from ","x inver=n-1.I would subtract x from ","x invers=n-1.I would subtract x from ","x inverse=n-1.I would subtract x from n to om","x inverse=n-1.I would subtract x from n to o","x inverse=n-1.I would subtract x from n to come up with inverse of x. "],"rt":83504,"trial_type":"question","trial_index":0,"trial_index_global":64,"time_elapsed":2133029,"internal_chunk_id":"0-0.13-0"},{"question":"Is there a pattern to which elements are generators? How can you know if an element x is a generator under +<sub>n</sub> without seeing whether it can make all the elements?.","response_type":"free","response_choices":[],"correct_response":"","response":"off numbers are generators of even numbered +n a nd vice  versa.","response_history":["off numbered ","off numbered","off numbere","off numbers are generators of even unb","off numbers are generators of even un","off numbers are generators of even u","off numbers are generators of even nub","off numbers are generators of even numbered \"","offnumbersaregeneratorsofevennumbered+nandviceversa."],"rt":76681,"trial_type":"question","trial_index":0,"trial_index_global":65,"time_elapsed":2209713,"internal_chunk_id":"0-0.13-0"},{"question":"Trueorfalse:Ifxisanoddnumber,itmustbeageneratorunder+<sub>n</sub>.","response_type":"multi","response_choices":["True","False"],"correct_response":"False","response":"False","response_history":["True","False"],"rt":8205,"trial_type":"question","trial_index":0,"trial_index_global":66,"time_elapsed":2217922,"internal_chunk_id":"0-0.13-0"},{"question":"Trueorfalse:Ifxisanevennumber,itmustnotbeageneratorunder+<sub>n</sub>.","response_type":"multi","response_choices" :["True" ,"False"],"correct_response":"False","response":"False","response_history":["False"],"rt":16806,"trial_type":"question","trial_index":0,"trial_index_global":67,"time_elapsed":2234733,"internal_chunk_id":"0-0.13-0"},{"question":"Trueorfalse:Ifxisnotageneratorunder+<sub>n</sub>,xmustdividen.","response_type":"multi","response_choices":["True","False"],"correct_response":"False","response":"False","response_history":["False"],"rt":14194,"trial_type":"question","trial_index":0,"trial_index_global":68,"time_elapsed":2248932,"internal_chunk_id":"0-0.13-0"},{"question":"Trueorfalse:Ifxisnotageneratorunder+<sub>n</sub>,xmustbeamultipleofadivisorofn.Pleaseexplaininwordswhyyouransweriscorret.","response_type":"free","response_choices":[],"correct_response":"True","response":"False.Ithinkthiswouldhaveexceptions.","response_history":["Iamgoin","Iamgoi","Iamgo","Iamg","Iam","Iam","Iam","Ia","Ithinkthiswouldhaveexceptions.","FIthinkthiswouldhaveexceptions.","FlIthinkthiswouldhaveexceptions.","FlasIthinkthiswouldhaveexceptions.","FlaIthinkthiswouldhaveexceptions.","FlIthinkthiswouldhaveexceptions.","FIthinkthiswouldhaveexceptions.","FaIthinkthiswouldhaveexceptions.","FalIthinkthiswouldhaveexceptions.","FalsIthinkthiswouldhaveexceptions.","FalseIthinkthiswouldhaveexceptions.","False.Ithinkthiswouldhaveexceptions."],"rt":44057,"trial_type":"question","trial_index":0,"trial_index_global":69,"time_elapsed":2292992,"internal_chunk_id":"0-0.13-0"},{"question":"Ifanelementxisageneratorunder+<sub>n</sub>,isitsinverseageneratorunder+<sub>n</sub>always,sometimes,ornever?","response_type":"multi","response_choices":["Always","Sometimes","Never"],"correct_response":"Always","response":"Sometimes","response_history":["Sometimes"],"rt":18101,"trial_type":"question","trial_index":0,"trial_index_global":70,"time_elapsed":2311098,"internal_chunk_id":"0-0.13-0"},{"question":"ifanelementxisageneratorunder+<sub>n</sub>,isx+<sub>n</sub>xageneratorunder+<sub>n</sub>always,sometimes,ornever?Pleaseexplaininwordswhyyouransweriscorret.","response_type":"free","response_choices":[],"correct_response":"sometimes","response":"Sometimes.Ithinktherewouldalwaysbeexceptionsuchashow+6and+9haddifferentgenerators.","response_history":["Sometimes.Ithinktherewouldalwaysbeexceptionsuchashow=6a","Sometimes.Ithinktherewouldalwaysbeexceptionsuchashow=6","Sometimes.Ithinktherewouldalwaysbeexceptionsuchashow=6","Sometimes.Ithinktherewouldalwaysbeexceptionsuchashow=","Sometimes.Ithinktherewouldalwaysbeexceptionsuchashow+6and+9haddifferentgenerators."],"rt":54736,"trial_type":"question","trial_index":0,"trial_index_global":71,"time_elapsed":2365838,"internal_chunk_id":"0-0.13-0"},{"question":"Ifanelementxisnotageneratorunder+<sub>n</sub>,isx+<sub>n</sub>xageneratorunder+<sub>n</sub>always,sometimes,ornever?","response_type":"multi","response_choices":["Always","Sometimes","Never"],"correct_response":"Never","response":"Sometimes","response_history":["Sometimes"],"rt":6463,"trial_type":"question","trial_index":0,"trial_index_global":72,"time_elapsed":2372306,"internal_chunk_id":"0-0.13-0"},{"instructions":"Wewouldliketoaskyousomequestionsaboutyourbackground.Pleasepress\"Continue\"tocontinue.","rt":3306,"trial_type":"instructions","trial_index":0,"trial_index_global":73,"time_elapsed":2375615,"internal_chunk_id":"0-0.14-0"},{"question":"Whatisyourage?","response_type":"free","response_choices":[],"correct_response":"","response":"44","response_history":["44"],"rt":3889,"trial_type":"question","trial_index":0,"trial_index_global":74,"time_elapsed":2379508,"internal_chunk_id":"0-0.14-0"},{"question":"Whatisyourlevelofeducation?","response_type":"multi","response_choices":["Didnotgraduatehighschool","Highschooldiploma","Somecollege,nodegree","AssociatesDegree","BachelorsDegree","Somegraduateschool,nodegree","MastersDegree","Doctorate,M.D.,etc."],"correct_response":"","response":"Somecollege,nodegree","response_history":["Somecollege,nodegree"],"rt":4778,"trial_type":"question","trial_index":0,"trial_index_global":75,"time_elapsed":2384291,"internal_chunk_id":"0-0.14-0"},{"question":"Whatisthemostadvancedmathclassyou'vecompleted?Ifyouhavemultipleclassesandyou'renotsurewhichoneismostadvanced,pleaselistthem.","response_type":"free","response_choices":[],"correct_response":"","response":"calculus,physics","response_history":["calculus,physics"],"rt":16733,"trial_type":"question","trial_index":0,"trial_index_global":76,"time_elapsed":2401028,"internal_chunk_id":"0-0.14-0"},{"question":"Howfamiliarareyouwiththeconceptofmodulararithmetic?","response_type":"multi","response_choices":["1-neverheardofit","2-heardofitbutdidn'tknowwhatitwas","3-seenitusedorexplained","4-useditbutnotoftenorrecently","5-usedit,rememberandunderstandit"],"correct_response":"1","response":"2-heardofitbutdidn'tknowwhatitwas","response_history":["2-heardofitbutdidn'tknowwhatitwas"],"rt":5121,"trial_type":"question","trial_index":0,"trial_index_global":77,"time_elapsed":2406154,"internal_chunk_id":"0-0.14-0"},{"question":"Howfamiliarareyouwiththeconceptofamathematicalgroup?","response_type":"multi","response_choices":["1-neverheardofit","2-heardofitbutdidn'tknowwhatitwas","3-seenitusedorexplained","4-useditbutnotoftenorrecently","5-usedit,rememberandunderstandit"],"correct_response":"1","response":"3-seenitusedorexplained","response_history":["2-heardofitbutdidn'tknowwhatitwas","3-seenitusedorexplained"],"rt":9739,"trial_type":"question","trial_index":0,"trial_index_global":78,"time_elapsed":2415900,"internal_chunk_id":"0-0.14-0"},{"question":"DoyoufeelyoulearnedsomethingfromthisHIT?","response_type":"multi","response_choices":["1-notatall","2-somewhat","3-definitely"],"correct_response":"1","response":"2-somewhat","response_history":["2-somewhat"],"rt":4455,"trial_type":"question","trial_index":0,"trial_index_global":79,"time_elapsed":2420359,"internal_chunk_id":"0-0.14-0"},{"question":"DoyoufeelyouunderstoodtheconceptsinthisHIT?","response_type":"multi","response_choices":["1-notatall","2-somewhat","3-definitely"],"correct_response":"1","response":"2-somewhat","response_history":["2-somewhat"],"rt":3539,"trial_type":"question","trial_index":0,"trial_index_global":80,"time_elapsed":2423903,"internal_chunk_id":"0-0.14-0"},{"question":"DidyouenjoythisHIT?","response_type":"multi","response_choices":["1-notatall","2-somewhat","3-definitely"],"correct_response":"1","response":"3-definitely","response_history":["3-definitely"],"rt":3527,"trial_type":"question","trial_index":0,"trial_index_global":81,"time_elapsed":2427434,"internal_chunk_id":"0-0.14-0"},{"question":"Whatisyourgender?","response_type":"multi","response_choices":["Female","Male","Other"],"correct_response":"","response":"Female","response_history":["Female"],"rt":2698,"trial_type":"question","trial_index":0,"trial_index_global":82,"time_elapsed":2430136,"internal_chunk_id":"0-0.14-0"},{"question":"Whatis/areyournativelanguage(s)?(Thelanguagesspokeninyourhouseholdwhenyouwereachild.)","response_type":"free","response_choices":[],"correct_response":"","response":"english","response_history":["english"],"rt":10688,"trial_type":"question","trial_index":0,"trial_index_global":83,"time_elapsed":2440828,"internal_chunk_id":"0-0.14-0"},{"question":"DidyouusepenandpaperatanypointonthisHIT?","response_type":"free","response_choices":[],"correct_response":"","response":"no","response_history":["no"],"rt":3803,"trial_type":"question","trial_index":0,"trial_index_global":84,"time_elapsed":2444635,"internal_chunk_id":"0-0.14-0"},{"question":"DoyouhaveanycommentsonthisHIT?","response_type":"free","response_choices":[],"correct_response":"","response":"no","response_history":["no"],"rt":4032,"trial_type":"question","trial_index":0,"trial_index_global":85,"time_elapsed":2448671,"internal_chunk_id":"0-0.14-0"}]