[{"nsides":6,"instructions":"Let's define a new operation <img src=\"./images/hexagon_symbol.png\" style=\"width:14px;height:14px\">. This operation will give us a way of combining two of the numbers 0, 1, 2, 3, 4, 5 to get another one of them back. Consider the hexagon at the right, where I've labeled each point with one of the numbers. To perform <img src=\"./images/hexagon_symbol.png\" style=\"width:14px;height:14px\">, you can use the interactive diagram on the right, or perform the operation in your mind. or perform the operation in your mind. Point the arrow at the first number on the hexagon, then move the arrow the second number of points clockwise around the hexagon. The number the arrow arrives at is your result. (The operation is called <img src=\"./images/hexagon_symbol.png\" style=\"width:14px;height:14px\"> because it uses the hexagon, which has 6 sides.) <br /><br />For example, 3 <img src=\"./images/hexagon_symbol.png\" style=\"width:14px;height:14px\"> 5 = 2,  because  5 steps clockwise from 3 on the hexagon brings us to 2. So 3 <img src=\"./images/hexagon_symbol.png\" style=\"width:14px;height:14px\"> 5 = 2.<br /><br />Similarly, 1 <img src=\"./images/hexagon_symbol.png\" style=\"width:14px;height:14px\"> 4 = 5, because 4 steps clockwise from 1 brings us to 5. <br /><br />Click \"Continue\" when you are ready to move on.","orientation_history":[0],"rt":111707,"trial_type":"polygon-arrow-instructions","trial_index":0,"trial_index_global":1,"time_elapsed":149616,"internal_chunk_id":"0-0"},{"nsides":6,"question":"Now try one on your own! What is 4 <img src=\"./images/hexagon_symbol.png\" style=\"width:14px;height:14px\"> 5? <br /><br /> (Remember, to perform <img src=\"./images/hexagon_symbol.png\" style=\"width:14px;height:14px\">, you can use the interactive diagram on the right, or perform the operation in your mind. Point the arrow at the first number on the hexagon, then move the arrow the second number of points clockwise around the h exagon.  The number the arrow arrives at is your result.)","response_type":"free","response_choices":[],"correct_response":"3","response":"3","orientation_history":[[0]],"response_history":["3"],"rt":15089,"trial_type":"polygon-arrow-question","trial_index":0,"trial_index_global":2,"time_elapsed":164713,"internal_chunk_id":"0-0.2-0"},{"nsides":6,"feedback":"Correct! 4 <img src=\"./images/hexagon_symbol.png\" style=\"width:14px;height:14px\"> 5 = 3 because 5 steps clockwise on the hexagon from 4 brings us to 3","orientation_history":[0],"rt":2757,"trial_type":"polygon-arrow-feedback","trial_index":0,"trial_index_global":3,"time_elapsed":167478,"internal_chunk_id":"0-0.2-0"},{"nsides":6,"question":"What is 3 <img src=\"./images/hexagon_symbol.png\" style=\"width:14px;height:14px\"> 2? <br /><br /> (Remember, to perform <img src=\"./images/hexagon_symbol.png\" style=\"width:14px;height:14px\">, you can use the interactive diagram on the right, or perform the operation in your mind. Poin t the ar row at the first number on the hexagon, then move the arrow the second number of points clockwise around the hexagon. The number the arrow arrives at is your result.)","response_type":"free","response_choices":[],"correct_response":"5","response":"5","orientation_history":[[0]],"response_history":["5"],"rt":8155,"trial_type":"polygon-arrow-question","trial_index":0,"trial_index_global":4,"time_elapsed":175633,"internal_chunk_id":"0-0.2-0"},{"nsides":6,"feedback":"Correct! 3 <img src=\"./images/hexagon_symbol.png\" style=\"width:14px;height:14px\"> 2 = 5 because 2 steps clockwise on the hexagon from 3 brings us to 5","orientation_history":[0],"rt":1480,"trial_type":"polygon-arrow-feedback","trial_index":0,"trial_index_global":5,"time_elapsed":177117,"internal_chunk_id":"0-0.2-0"},{"nsides":6,"question":"What is 1 <img src=\"./images/hexagon_symbol.png\" style=\"width:14px;height:14px\"> 5? <br /><br /> (Remember, to perform <img src=\"./images/hexagon_symbol.png\" style=\"width:14px;height:14px\">, you can use the interactive diagram on the right, or perform the operation in your mind. Point the arrow at the first number on the hexagon, then move the arrow the second number of points clockwise around the hexagon. The number the arrow arrives at is your result.)","response_type":"free","response_choices":[],"correct_response":"0","response":"0","orientation_history":[[0]],"response_history":["0"],"rt":8139,"trial_type":"polygon-arrow-question","trial_index":0,"trial_index_global":6,"time_elapsed":185256,"internal_chunk_id":"0-0.2-0"},{"nsides":6,"feedback":"Correct! 1 <img src=\"./images/hexagon_symbol.png\" style=\"width:14px;height:14px\"> 5 = 0 because 5 steps clockwise on the hexagon from 1 brings us to 0","orientation_history":[0],"rt":1504,"trial_type":"polygon-arrow-feedback","trial_index":0,"trial_index_global":7,"time_elapsed":186760,"internal_chunk_id":"0-0.2-0"},{"nsides":6,"question":"What is 1 <img src=\"./images/hexagon_symbol.png\" style=\"width:14px;height:14px\"> 1? <br /><br /> (Remember, to perform <img src=\"./images/hexagon_symbol.png\" style=\"width:14px;height:14px\">, you can use the interactive diagram on the right, or perform the operation in your mind. Point the arrow at the first number on the hexagon, then move the arrow the second number of points clockwise around the hexagon. The number the arrow arrives at is your result.)","response_type":"free","response_choices":[],"correct_response":"2","response":"2","orientation_history":[[0]],"response_history":["2"],"rt":4834,"trial_type":"polygon-arrow-question","trial_index":0,"trial_index_global":8,"time_elapsed":191594,"internal_chunk_id":"0-0.2-0"},{"nsides":6,"feedback":"Correct! 1 <img src=\"./images/hexagon_symbol.png\" style=\"width:14px;height:14px\"> 1 = 2 because 1 steps clockwise on the hexagon from 1 brings us to 2","orientation_history":[0],"rt":1876,"trial_type":"polygon-arrow-feedback","trial_index":0,"trial_index_global":9,"time_elapsed":193470,"internal_chunk_id":"0-0.2-0"},{"nsides":6,"question":"What is 3 <img src=\"./images/hexagon_symbol.png\" style=\"width:14px;height:14px\"> 0? <br /><br /> (Remember, to perform <img src=\"./images/hexagon_symbol.png\" style=\"width:14px;height:14px\">, you can use the interactive diagram on the right, or perform the operation in your mind. Point the arrow at the first number on the hexagon, then move the arrow the second number of points clockwise around the hexagon. The number the arrow arrives at is your result.)","response_type":"free","response_choices":[],"correct_response":"3","response":"3","orientation_history":[[0]],"response_history":["3"],"rt":4723,"trial_type":"polygon-arrow-question","trial_index":0,"trial_index_global":10,"time_elapsed":198193,"internal_chunk_id":"0-0.2-0"},{"nsides":6,"feedback":"Correct! 3 <img src=\"./images/hexagon_symbol.png\" style=\"width:14px;height:14px\"> 0 = 3 because 0 steps clockwise on the hexagon from 3 brings us to 3","orientation_history":[0],"rt":1664,"trial_type":"polygon-arrow-feedback","trial_index":0,"trial_index_global":11,"time_elapsed":199861,"internal_chunk_id":"0-0.2-0"},{"nsides":6,"question":"What is 4 <img src=\"./images/hexagon_symbol.png\" style=\"width:14px;height:14px\"> 4? <br /><br /> (Remember, to perform <img src=\"./images/hexagon_symbol.png\" style=\"width:14px;height:14px\">, you can use the interactive diagram on the right, or perform the operation in your mind. Point the arrow at the first number on the hexagon, then move the arrow the second number of points clockwise around the hexagon. The number the arrow arrives at is your result.)","response_type":"free","response_choices":[],"correct_response":"2","response":"2","orientation_history":[[0]],"response_history":["2"],"rt":5666,"trial_type":"polygon-arrow-question","trial_index":0,"trial_index_global":12,"time_elapsed":205527,"internal_chunk_id":"0-0.2-0"},{"nsides":6,"feedback":"Correct! 4 <img src=\"./images/hexagon_symbol.png\" style= \"width:14px;height:14px\"> 4 = 2 because 4 steps clockwise on the hexagon from 4 brings us to 2","orientation_history":[0],"rt":1805,"trial_type":"polygon-arrow-feedback","trial_index":0,"trial_index_global":13,"time_elapsed":207332,"internal_chunk_id":"0-0.2-0"},{"nsides":6,"question":"What is 1 <img src=\"./images/hexagon_symbol.png\" style=\"width:14px;height:14px\"> 3? <br /><br /> (Remember, to perform <img src=\"./images/hexagon_symbol.png\" style=\"width:14px;height:14px\">, you can use the interactive diagram on the right, or perform the operation in your mind. Point the arrow at the first number on the hexagon, then move the arrow the second number of points clockwise around the hexagon. The number the arrow arrives at is your result.)","response_type":"free","response_choices":[],"correct_response":"4","response":"4","orientation_history":[[0]],"response_history":["4"],"rt":5582,"trial_type":"polygon-arrow-question","trial_index":0,"trial_index_global":14,"time_elapsed":212918,"internal_chunk_id":"0-0.2-0"},{"nsides":6,"feedback":"Correct! 1 <img src=\"./images/hexagon_symbol.png\" style=\"width:14px;height:14px\"> 3 = 4 because 3 steps clockwise on the hexagon from 1 brings us to 4","orientation_history":[0],"rt":1532,"trial_type":"polygon-arrow-feedback","trial_index":0,"trial_index_global":15,"time_elapsed":214454,"internal_chunk_id":"0-0.2-0"},{"nsides":6,"question":"What is 4 <img src=\"./images/hexagon_symbol.png\" style=\"width:14px;height:14px\"> 3? <br /><br /> (Remember, to perform <img src=\"./images/hexagon_symbol.png\" style=\"width:14px;height:14px\">, you can use the interactive diagram on the right, or perform the operation in your mind. Point the arrow at the first number on the hexagon, then move the arrow the second number of points clockwise around the hexagon. The number the arrow arrives at is your result.)","response_type":"free","response_choices":[],"correct_response":"1","response":"1","orientation_history":[[0]],"response_history":["1"],"rt":5430,"trial_type":"polygon-arrow-question","trial_index":0,"trial_index_global":16,"time_elapsed":219888,"internal_chunk_id":"0-0.2-0"},{"nsides":6,"feedback":"Correct! 4 <img src=\"./images/hexagon_symbol.png\" style=\"width:14px;height:14px\"> 3 = 1 because 3 steps clockwise on the hexagon from 4 brings us to 1","orientation_history":[0],"rt":1824,"trial_type":"polygon-arrow-feedback","trial_index":0,"trial_index_global":17,"time_elapsed":221716,"internal_chunk_id":"0-0.2-0"},{"nsides":6,"question":"What is 0 <img src=\"./images/hexagon_symbol.png\" style=\"width:14px;height:14px\"> 5? <br /><br /> (Remember, to perform <img src=\"./images/hexagon_symbol.png\" style=\"width:14px;height:14px\">, you can use the interactive diagram on the right, or perform the operation in your mind. Point the arrow at the first number on the hexagon, then move the arrow the second number of points clockwise around the hexagon. The number the arrow arrives at is your resu lt.)","response_type":"free","response_choices":[],"correct_response":"5","response":"5","orientation_history":[[0]],"response_history":["5"],"rt":5814,"trial_type":"polygon-arrow-question","trial_index":0,"trial_index_global":18,"time_elapsed":227534,"internal_chunk_id":"0-0.2-0"},{"nsides":6,"feedback":"Correct! 0 <img src=\"./images/hexagon_symbol.png\" style=\"width:14px;height:14px\"> 5 = 5 because 5 steps clockwise on the hexagon from 0 brings us to 5","orientation_history":[0],"rt":1361,"trial_type":"polygon-arrow-feedback","trial_index":0,"trial_index_global":19,"time_elapsed":228899,"internal_chunk_id":"0-0.2-0"},{"nsides":6,"question":"What is 2 <img src=\"./images/hexagon_symbol.png\" style=\"width:14px;height:14px\"> 5? <br /><br /> (Remember, to perform <img src=\"./images/hexagon_symbol.png\" style=\"width:14px;height:14px\">, you can use the interactive diagram on the right, or perform the operation in your mind. Point the arrow at the first number on the hexagon, the n move t he arrow the second number of points clockwise around the hexagon. The number the arrow arrives at is your result.)","response_type":"free","response_choices":[],"correct_response":"1","response":"1","orientation_history":[[0]],"response_history":["1"],"rt":10083,"trial_type":"polygon-arrow-question","trial_index":0,"trial_index_global":20,"time_elapsed":238986,"internal_chunk_id":"0-0.2-0"},{"nsides":6,"feedback":"Correct! 2 <img src=\"./images/hexagon_symbol.png\" style=\"width:14px;height:14px\"> 5 = 1 because 5 steps clockwise on the hexagon from 2 brings us to 1","orientation_history":[0],"rt":2129,"trial_type":"polygon-arrow-feedback","trial_index":0,"trial_index_global":21,"time_elapsed":241115,"internal_chunk_id":"0-0.2-0"},{"nsides":6,"instructions":"Now we're going to discuss a couple special properties of this new operation, <img src=\"./images/hexagon_symbol.png\" style=\"width:14px;height:14px\"> that we've learned. First, notice that the number 0 behaves in a s pecial w ay under <img src=\"./images/hexagon_symbol.png\" style=\"width:14px;height:14px\">. Whenever we combine 0 with anything else, we get that same thing back. We'll say that 0 is the <i>identity</i> under <img src=\"./images/hexagon_symbol.png\" style=\"width:14px;height:14px\">, because when you combine it with something it gives you that identical thing back.","orientation_history":[0],"rt":15843,"trial_type":"polygon-arrow-instructions","trial_index":0,"trial_index_global":22,"time_elapsed":256966,"internal_chunk_id":"0-0"},{"nsides":6,"instructions":"Now that we know 0 is the identity under <img src=\"./images/hexagon_symbol.png\" style=\"width:14px;height:14px\">, we're going to make a new definition. We'll say that the <i>inverse</i> of a number is the thing that you combine with it to produce the identity under our operation. For example, 5 <img src=\"./images/hexagon_symbol.png\" style=\"width:14px;height:14px\"> 1 = 0, so we say 1 is the inverse of 5 under <img src=\"./images/hexagon_symbol.png\" style=\"width:14px;height:14px\">, (remember 0 is the identity under <img src=\"./images/hexagon_symbol.png\" style=\"width:14px;height:14px\">). Similarly, 3 is its own inverse under <img src=\"./images/hexagon_symbol.png\" style=\"width:14px;height:14px\">, because 3 <img src=\"./images/hexagon_symbol.png\" style=\"width:14px;height:14px\"> 3 = 0.","orientation_history":[0],"rt":34151,"trial_type":"polygon-arrow-instructions","trial_index":0,"trial_index_global":23,"time_elapsed":291121,"internal_chunk_id":"0-0"},{"nsides":6,"question":"Now you try! What is the inverse of 4 under <img src=\"./images/hexagon_symbol.png\" style=\"width:14px;height:14px\">? <br /><br /> (Remember, the inverse of an element is the thing which you combine with it to produce the identity.)","response_type":"free","response_choices":[],"correct_response":"2","response":"2","orientation_history":[[0]],"response_history":["2"],"rt":7034,"trial_type":"polygon-arrow-question","trial_index":0,"trial_index_global":24,"time_elapsed":298155,"internal_chunk_id":"0-0.6-0"},{"nsides":6,"feedback":"Correct! The inverse of 4 under <img src=\"./images/hexagon_symbol.png\" style=\"width:14px;height:14px\"> is 2 because 2 steps clockwise on the hexagon from 4 brings us to 0, and 0 is the identity under <img src=\"./images/hexagon_symbol.png\" style=\"width:14px;height:14px\">.","orientation_history":[0],"rt":3153,"trial_type":"polygon-arrow-feedback","trial_index":0,"trial_index_global":25,"time_elapsed":301308,"internal_chunk_id":"0-0.6-0"},{"nsides":6,"question":"What is the inverse of 1 under <img src=\"./images/hexagon_symbol.png\" style=\"width:14px;height:14px\">? <br /><br /> (Remember, the inverse of an element is the thing which you combine with it to produce the identity.)","response_type":"free","response_choices":[],"correct_response":"5","response":"5","orientation_history":[[0]],"response_history":["5"],"rt":5322,"trial_type":"polygon-arrow-question","trial_index":0,"trial_index_global":26,"time_elapsed":306630,"internal_chunk_id":"0-0.6-0"},{"nsides":6,"feedback":"Correct! The inverse of 1 under <img src=\"./images/hexagon_symbol.png\" style=\"width:14px;height:14px\"> is 5 because 5 steps clockwise on the hexagon from 1 brings us to 0, and 0 is the identity under <img src=\"./images/hexagon_symbol.png\" style=\"width:14px;height:14px\">.","orientation_history":[0],"rt":2369,"trial_type":"polygon-arrow-feedback","trial_index":0,"trial_index_global":27,"time_elapsed":309003,"internal_chunk_id":"0-0.6-0"},{"nsides":6,"question":"What is the inverse of 3 under <img src=\"./images/hexagon_symbol.png\" style=\"width:14px;height:14px\">? <br /><br /> (Remember, the inverse of an element is the thing which you combine with it to produce the identity.)","response_type":"free","response_choices":[],"correct_response":"3","response":"3","orientation_history":[[0]],"response_history":["3"],"rt":7602,"trial_type":"polygon-arrow-question","trial_index":0,"trial_index_global":28,"time_elapsed":316605,"internal_chunk_id":"0-0.6-0"},{"nsides":6,"feedback":"Correct! The inverse of 3 under <img src=\"./images/hexagon_symbol.png\" style=\"width:14px;height:14px\"> is 3 because 3 steps clockwise on the hexagon from 3 brings us to 0, and 0 is the identity under <img src=\"./images/hexagon_symbol.png\" style=\"width:14px;height:14px\">.","orientation_history":[0],"rt":2569,"trial_type":"polygon-arrow-feedback","trial_index":0,"trial_index_global":29,"time_elapsed":319178,"internal_chunk_id":"0-0.6-0"},{"nsides":6,"question":"What is the inverse of 2 under <img src=\"./images/hexagon_symbol.png\" style=\"width:14px;height:14px\">? <br /><br /> (Remember, the inverse of an element is the thing which you combine with it to produce the identity.)","response_type":"free","response_choices":[],"correct_response":"4","response":"4","orientation_history":[[0]],"response_history":["4"],"rt":6058,"trial_type":"polygon-arrow-question","trial_index":0,"trial_index_global":30,"time_elapsed":325236,"internal_chunk_id":"0-0.6-0"},{"nsides":6,"feedback":"Correct! The inverse of 2 under <img src=\"./images/hexagon_symbol.png\" style=\"width:14px;height:14px\"> is 4 because 4 steps clockwise on the hexagon from 2 brings us to 0, and 0 is the identity under <img src=\"./images/hexagon_symbol.png\" style=\"width:14px;height:14px\">.","orientation_history":[0],"rt":2149,"trial_type":"polygon-arrow-feedback","trial_index":0,"trial_index_global":31,"time_elapsed":327385,"internal_chunk_id":"0-0.6-0"},{"nsides":6,"question":"What is the inverse of 0 under <img src=\"./images/hexagon_symbol.png\" style=\"width:14px;height:14px\">? <br /><br /> (Remember, the inverse of an element is the thing which you combine with it to produce the identity.)","response_type":"free","response_choices":[],"correct_response":"0","response":"0","orientation_history":[[0]],"response_history":["0"],"rt":3945,"trial_type":"polygon-arrow-question","trial_index":0,"trial_index_global":32,"time_elapsed":331330,"internal_chunk_id":"0-0.6-0"},{"nsides":6,"feedback":"Correct! The inverse of 0 under <img src=\"./images/hexagon_symbol.png\" style=\"width:14px;height:14px\"> is 0 because 0 steps clockwise on the hexagon from 0 brings us to 0, and 0 is the identity under <img src=\"./images/hexagon_symbol.png\" style=\"width:14px;height:14px\">.","orientation_history":[0],"rt":1577,"trial_type":"polygon-arrow-feedback","trial_index":0,"trial_index_global":33,"time_elapsed":332907,"internal_chunk_id":"0-0.6-0"},{"instructions":"It is also possible to successively apply <img src=\"./images/hexagon_symbol.png\" style=\"width:14px;height:14px\">, and the operation can simply be performed starting with the left-most pair. For example, 2 <img src=\"./images/hexagon_symbol.png\" style=\"width:14px;height:14px\"> 3 <img src=\"./images/hexagon_symbol.png\" style=\"width:14px;height:14px\"> 4 = 5 <img src=\"./images/hexagon_symbol.png\" style=\"width:14px;height:14px\"> 4 = 3.","rt":58261,"trial_type":"instructions","trial_index":0,"trial_index_global":34,"time_elapsed":391172,"internal_chunk_id":"0-0"},{"nsides":6,"instructions":"We have one last definition to learn today. Let's start with an example. Under our operation <img src=\"./images/hexagon_symbol.png\" style=\"width:14px;height:14px\"> we can make every other number using just 1: 2 = 1 <img src=\"./images/hexagon_symbol.png\" style=\"width:14px;height:14px\"> 1, 3 = 1 <img src=\"./images/hexagon_symbol.png\" style=\"width:14px;height:14px\"> 1 <img src=\"./images/hexagon_symbol.png\" style=\"width:14px;height:14px\"> 1, 4 = 1 <img src=\"./images/hexagon_symbol.png\" style=\"width:14px;height:14px\"> 1 <img src=\"./images/hexagon_symbol.png\" style=\"width:14px;height:14px\"> 1 <img src=\"./images/hexagon_symbol.png\" style=\"width:14px;height:14px\"> 1, 5 = 1 <img src=\"./images/hexagon_symbol.png\" style=\"width:14px;height:14px\"> 1 <img src=\"./images/hexagon_symbol.png\" s tyle=\"width:14px;height:14px\"> 1 <img src=\"./images/hexagon_symbol.png\" style=\"width:14px;height:14px\"> 1 <img src=\"./images/hexagon_symbol.png\" style=\"width:14px;height:14px\"> 1, and 0 = 1 <img src=\"./images/hexagon_symbol.png\" style=\"width:14px;height:14px\"> 1 <img src=\"./images/hexagon_symbol.png\" style=\"width:14px;height:14px\"> 1 <img src=\"./images/hexagon_symbol.png\" style=\"width:14px;height:14px\"> 1 <img src=\"./images/hexagon_symbol.png\" style=\"width:14px;height:14px\"> 1 <img src=\"./images/hexagon_symbol.png\" style=\"width:14px;height:14px\"> 1. Because 1 can make every other element under <img src=\"./images/hexagon_symbol.png\" style=\"width:14px;height:14px\">, we say that 1 is a <i>generator</i> under <img src=\"./images/hexagon_symbol.png\" style=\"width:14px;height:14px\">. <br /><br /> However, 2 is not a generator under <img src=\"./images/hexagon_symbol.png\" style=\"width:14px;height:14px\">, because 4 = 2 <img src=\"./images/hexagon_symbol.png\" style=\"width:14px;height:14px\"> 2, and 0 = 2 <img src=\"./images/hexagon_symbol.png\" style=\"width:14px;height:14px\"> 2 <img src=\"./images/hexagon_symbol.png\" style=\"width:14px;height:14px\"> 2, but there is no way to make 1, 3, or 5 using just 2.","orientation_history":[0],"rt":61073,"trial_type":"polygon-arrow-instructions","trial_index":0,"trial_index_global":35,"time_elapsed":452249,"internal_chunk_id":"0-0"},{"nsides":6,"question":"Now you try! Is 3 a generator under <img src=\"./images/hexagon_symbol.png\" style=\"width:14px;height:14px\">? <br /><br /> (Remember, a generator is an element which can make every other element.)","response_type":"multi","response_choices":["Yes","No"],"correct_response":"No","response":"No","orientation_history":[[0]],"response_history":["No"],"rt":8699,"trial_type":"polygon-arrow-question","trial_index":0,"trial_index_global":36,"time_elapsed":460952,"internal_chunk_id":"0-0.9-0"},{"nsides":6,"feedback":"Correct! 3 is not  a genera tor under <img src=\"./images/hexagon_symbol.png\" style=\"width:14px;height:14px\">, because 3 = 3, 0 = 3 <img src=\"./images/hexagon_symbol.png\" style=\"width:14px;height:14px\"> 3, but there is no way to make 1, 2, 4, or 5 using just 3.","orientation_history":[0],"rt":5602,"trial_type":"polygon-arrow-feedback","trial_index":0,"trial_index_global":37,"time_elapsed":466558,"internal_chunk_id":"0-0.9-0"},{"nsides":6,"question":"Is 5 a generator under <img src=\"./images/hexagon_symbol.png\" style=\"width:14px;height:14px\">? <br /><br /> (Remember, a generator is an element which can make every other element.)","response_type":"multi","response_choices":["Yes","No"],"correct_response":"Yes","response":"No","orientation_history":[[0]],"response_history":["No"],"rt":3581,"trial_type":"polygon-arrow-question","trial_index":0,"trial_index_global":38,"time_elapsed":470139,"internal_chunk_id":"0-0.9-0"},{"nsides":6,"feedback":"Sorry, that's incorrect. 5 is a generator under <img  src=\"./images/hexagon_symbol.png\" style=\"width:14px;height:14px\">, because 5 = 5, 4 = 5 <img src=\"./images/hexagon_symbol.png\" style=\"width:14px;height:14px\"> 5, 3 = 5 <img src=\"./images/hexagon_symbol.png\" style=\"width:14px;height:14px\"> 5 <img src=\"./images/hexagon_symbol.png\" style=\"width:14px;height:14px\"> 5, 2 = 5 <img src=\"./images/hexagon_symbol.png\" style=\"width:14px;height:14px\"> 5 <img src=\"./images/hexagon_symbol.png\" style=\"width:14px;height:14px\"> 5 <img src=\"./images/hexagon_symbol.png\" style=\"width:14px;height:14px\"> 5, 1 = 5 <img src=\"./images/hexagon_symbol.png\" style=\"width:14px;height:14px\"> 5 <img src=\"./images/hexagon_symbol.png\" style=\"width:14px;height:14px\"> 5 <img src=\"./images/hexagon_symbol.png\" style=\"width:14px;height:14px\"> 5 <img src=\"./images/hexagon_symbol.png\" style=\"width:14px;height:14px\"> 5, and 0 = 5 <img src=\"./images/hexagon_symbol.png\" style=\"width:14px;height:14px\"> 5 <img src=\"./images/hexagon_symbol.png\" style=\"width:14px;height:14px\"> 5 <img src=\"./images/hexagon_symbol.png\" style=\"width:14px;height:14px\"> 5 <img src=\"./images/hexagon_symbol.png\" style=\"width:14px;height:14px\"> 5 <img src=\"./images/hexagon_symbol.png\" style=\"width:14px;height:14px\"> 5, so you can make all of the numbers under <img src=\"./images/hexagon_symbol.png\" style=\"width:14px;height:14px\"> using 5","orientation_history":[0],"rt":21535,"trial_type":"polygon-arrow-feedback","trial_index":0,"trial_index_global":39,"time_elapsed":491678,"internal_chunk_id":"0-0.9-0"},{"nsides":6,"question":"Is 4 a generator under <img src=\"./images/hexagon_symbol.png\" style=\"width:14px;height:14px\">? <br /><br /> (Remember, a generator is an element which can make every other element.)","response_type":"multi","response_choices":["Yes","No"],"correct_response":"No","response":"No","orientation_history":[[0]],"response_history":["No"],"rt":21819,"trial_type":"polygon-arrow-question","trial_index":0,"trial_index_global":40,"time_elapsed":513501,"internal_chunk_id":"0-0.9-0"},{"nsides":6,"feedback":"Correct! 4 is not a generator under <img src=\"./images/hexagon_symbol.png\" style=\"width:14px;height:14px\">, because 4 = 4, 2 = 4 <img src=\"./images/hexagon_symbol.png\" style=\"width:14px;height:14px\"> 4, and 0 = 4 <img src=\"./images/hexagon_symbol.png\" style=\"width:14px;height:14px\"> 4 <img src=\"./images/hexagon_symbol.png\" style=\"width:14px;height:14px\"> 4, but there is no way to make 1, 3, or 5 using just 4.","orientation_history":[0],"rt":2404,"trial_type":"polygon-arrow-feedback","trial_index":0,"trial_index_global":41,"time_elapsed":515909,"internal_chunk_id":"0-0.9-0"},{"nsides":6,"question":"Is 0 a generator under <img src=\"./images/hexagon_symbol.png\" style=\"width:14px;height:14px\">? <br /><br /> (Remember, a generator is an element which can make every other element.)","response_type":"multi","response_choices":["Yes","No"],"correct_response":"No","response":"No","orientation_history":[[0]],"response_history":["No"],"rt":8747,"trial_type":"polygon-arrow-question","trial_index":0,"trial_index_global":42,"time_elapsed":524660,"internal_chunk_id":"0-0.9-0"},{"nsides":6,"feedback":"Correct! 0 is not a generator under <img src=\"./images/hexagon_symbol.png\" style=\"width:14px;height:14px\">, because 0 = 0, but there is no way to make 1, 2, 3, 4, or 5 using just 0.","orientation_history":[0],"rt":2869,"trial_type":"polygon-arrow-feedback","trial_index":0,"trial_index_global":43,"time_elapsed":527529,"internal_chunk_id":"0-0.9-0"},{"nsides":9,"instructions":"Now we are going to ask you some questions about a new operation, <img src=\"./images/nonagon_symbol.png\" style=\"width:14px;height:14px\">, on the numbers 0, 1, 2, 3, 4, 5, 6, 7, 8. It works exactly like <img src=\"./images/hexagon_symbol.png\" style=\"width:14px;height:14px\">, except now you use the nonagon shown at the right. <br /><br />We'll give you one practice question w ith feed back to make sure you understand the new operation. After that, try to complete the remaining questions as accurately as possible.","orientation_history":[0],"rt":12100,"trial_type":"polygon-arrow-instructions","trial_index":0,"trial_index_global":44,"time_elapsed":539629,"internal_chunk_id":"0-0"},{"nsides":9,"question":"Practice: What is 5 <img src=\"./images/nonagon_symbol.png\" style=\"width:14px;height:14px\"> 5?","response_type":"free","response_choices":[],"correct_response":"1","response":"1","orientation_history":[[0]],"response_history":["1"],"rt":14649,"trial_type":"polygon-arrow-question","trial_index":0,"trial_index_global":45,"time_elapsed":554282,"internal_chunk_id":"0-0.11-0"},{"nsides":9,"feedback":"Correct! 5 <img src=\"./images/nonagon_symbol.png\" style=\"width:14px;height:14px\"> 5 = 1 because 5 steps clockwise on the nonagon from 5 brings us to 1","orientation_history":[0],"rt":1512,"trial_type":"polygon-arrow-feedback","trial_index":0,"trial_index_global":46,"time_elapsed":555798,"internal_chunk_id":"0-0.11-0"},{"nsides":9,"question":"What is 3 <img src=\"./images/nonagon_symbol.png\" style=\"width:14px;height:14px\"> 3?","response_type":"free","response_choices":[],"correct_response":"6","response":"6","orientation_history":[[0]],"response_history":["6"],"rt":5242,"trial_type":"polygon-arrow-question","trial_index":0,"trial_index_global":47,"time_elapsed":561040,"internal_chunk_id":"0-0.11-0"},{"nsides":9,"question":"What is 7 <img src=\"./images/nonagon_symbol.png\" style=\"width:14px;height:14px\"> 4?","response_type":"free","response_choices":[],"correct_response":"2","response":"2","orientation_history":[[0]],"response_history":["2"],"rt":6810,"trial_type":"polygon-arrow-question","trial_index":0,"trial_index_global":48,"time_elapsed":567850,"internal_chunk_id":"0-0.11-0"},{"nsides":9,"question":"What is 1 <img src=\"./images/nonagon_symbol.png\" style=\"width:14px;height:14px\"> 8?","response_type":"free","response_choices":[],"correct_response":"0","response":"0","orientation_history":[[0]],"response_history":["0"],"rt":12092,"trial_type":"polygon-arrow-question","trial_index":0,"trial_index_global":49,"time_elapsed":579942,"internal_chunk_id":"0-0.11-0"},{"nsides":9,"question":"What is 5 <img src=\"./images/nonagon_symbol.png\" style=\"width:14px;height:14px\"> 4?","response_type":"free","response_choices":[],"correct_response":"0","response":"0","orientation_history":[[0]],"response_history":["0"],"rt":7438,"trial_type":"polygon-arrow-question","trial_index":0,"trial_index_global":50,"time_elapsed":587384,"internal_chunk_id":"0-0.11-0"},{"nsides":9,"question":"What is 6 <img src=\"./images/nonagon_symbol.png\" style=\"width:14px;height:14px\"> 6?","response_type":"free","response_choices":[],"correct_response":"3","response":"3","orientation_history":[[0]],"response_history":["3"],"rt":9019,"trial_type":"polygon-arrow-question","trial_index":0,"trial_index_global":51,"time_elapsed":596407,"internal_chunk_id":"0-0.11-0"},{"nsides":9,"question":"What is 4 <img src=\"./images/nonagon_symbol.png\" style=\"width:14px;height:14px\"> 1? Please explain in words how you got your answer.","response_type":"free","response_choices":[],"correct_response":"","response":"5, because after moving clockwise 1 from 4 you arrive at 5","orientation_history":[[0]],"response_history":["5, because you move clock","5, because you move cloc","5, because you move clo","5, because you move cl","5, because you move c","5, because you move ","5, because you move","5, because you mov","5, because you mo","5, because you m","5, because you ","5, because you","5, because yo","5, because y","5, because after moving clockwise 1 you ar","5, because after moving clockwise 1 you a","5, because after moving clockwise 1 you ","5, because after moving clockwise 1 you","5, because after moving clockwise 1 yo","5, because after moving clockwise 1 y","5, because after moving clockwise 1 ","5, because after moving clock wise 1","5, because after moving clockwise ","5, because after moving clockwise one","5, because after moving clockwise on","5, because after moving clockwise o","5, because after moving clockwise 1 from 4 you arra","5, because after moving clockwise 1 from 4 you arrive at 5"],"rt":37229,"trial_type":"polygon-arrow-question","trial_index":0,"trial_index_global":52,"time_elapsed":633640,"internal_chunk_id":"0-0.11-0"},{"nsides":9,"question":"What is 8 <img src=\"./images/nonagon_symbol.png\" style=\"width:14px;height:14px\"> 4? Please explain in words how you got your answer.","response_type":"free","response_choices":[],"correct_response":"","response":"3, since 4 clockwise from 8 is 3","orientation_history":[[0]],"response_history":["e3","e","3, since 4 clockwisse","3, since 4 clockwiss","3, since 4 clockwise from 8 us ","3, since 4 clockwise from 8 us","3, since 4 clockwise from 8 u","3, since 4 clockwise from 8 is 3"],"rt":22255,"trial_type":"polygon-arrow-question","trial_index":0,"trial_index_global":53,"time_elapsed":655895,"internal_chunk_id":"0-0.11-0"},{"nsides":9,"question":"What is the identity under <img src=\"./images/nonagon_symbol.png\" style=\"width:14px;height:14px\">? Please explain in words how you got your answer.","response_type":"free","response_choices":[],"correct_response":"0","response":"0, since you will get back the number you start with if you use 0 as the second number","orientation_history":[[0]],"response_history":["0, since anythin","0, since anythi","0, since anyth","0, since anyt","0, since any","0, since an","0, since a","0, since you will get back the number you start with if you use 0 as the secon n","0, since you will get back the number you start with if you use 0 as the secon ","0, since you will get back the number you start with if you use 0 as the second number in a (","0, since you will get back the number you start with if you use 0 as the second number in a ","0, since you will get back the number you start with i f you us e 0 as the second number in a","0, since you will get back the number you start with if you use 0 as the second number in a(","0, since you will get back the number you start with if you use 0 as the second number in a","0, since you will get back the number you start with if you use 0 as the second number in ","0, since you will get back the number you start with if you use 0 as the second number in","0, since you will get back the number you start with if you use 0 as the second number i","0, since you will get back the number you start with if you use 0 as the second number ","0, since you will get back the number you start with if you use 0 as the second number","0, since you will get back the number you start with if you use 0 as the second number for","0, since you will get back the number you start with if you use 0 as the second number fo","0, since you will get back the number you start with if you use 0 as the second number f","0, since you will get back the number  you sta rt with if you use 0 as the second number ","0, since you will get back the number you start with if you use 0 as the second number"],"rt":77430,"trial_type":"polygon-arrow-question","trial_index":0,"trial_index_global":54,"time_elapsed":733325,"internal_chunk_id":"0-0.11-0"},{"nsides":9,"question":"What is the inverse of 5 under <img src=\"./images/nonagon_symbol.png\" style=\"width:14px;height:14px\">?","response_type":"free","response_choices":[],"correct_response":"4","response":"4","orientation_history":[[0]],"response_history":["4"],"rt":10964,"trial_type":"polygon-arrow-question","trial_index":0,"trial_index_global":55,"time_elapsed":744293,"internal_chunk_id":"0-0.11-0"},{"nsides":9,"question":"What is the inverse of 2 under <img src=\"./images/nonagon_symbol.png\" style=\"width:14px;height:14px\">?","response_type":"free","response_choices":[],"correct_response":"7","response":"7","orientation_history":[[0]],"response_history":["7"],"rt":7774,"trial_type":"polygon-a rrow-que stion","trial_index":0,"trial_index_global":56,"time_elapsed":752067,"internal_chunk_id":"0-0.11-0"},{"nsides":9,"question":"What is the inverse of 3 under <img src=\"./images/nonagon_symbol.png\" style=\"width:14px;height:14px\">? Please explain in words how you got your answer.","response_type":"free","response_choices":[],"correct_response":"","response":"6, since it takes 6 moves clockwise to get back to 0 or 3(9)6 = 0 ","orientation_history":[[0]],"response_history":["6, since it takes ","6, since it takes","6, since it take","6, since it tak","6, since it ta","6, since it t","6, since it takes 5","6, since it takes 6 moves clockwise to get back to 0 or 3 (","6, since it takes 6 moves clockwise 9","6, since it takes 6 moves clockwise to get back to 0 or 3 (","6, since it takes 6 moves clockwise to get back to 0 or 3 ","6, since it takes 6 moves clockwise to get back to 0 or 3(9)6 = 0 "],"rt":55517,"trial_type":"polygon-arrow-question","trial_index":0,"trial_index_global":57,"time_elapsed":807584,"internal_chunk_id":"0-0.11-0"},{"nsides":9,"question":"Is 2 a generator under <img src=\"./images/nonagon_symbol.png\" style=\"width:14px;height:14px\">? Please explain in words how you got your answer.","response_type":"free","response_choices":[],"correct_response":"","response":"yes, you can get every number from using multiples of 2 going around in a clockwise direction","orientation_history":[[0]],"response_history":["yes, you can get every number from using multiples of 2 going around in a clockwise direction"],"rt":49946,"trial_type":"polygon-arrow-question","trial_index":0,"trial_index_global":58,"time_elapsed":857534,"internal_chunk_id":"0-0.11-0"},{"nsides":9,"question":"Is 3 a generator under <img src=\"./images/nonagon_symbol.png\" style=\"width:14px;height:14px\">? Please explain in words how you got your answer.","response_type":"free","response_choices":[],"correct_response":"","response":"no, you won't get 4,5,7,8,1 or 2 using 3","orientation_history":[[0]],"response_history":["no, you wont","no, you won't get 4,5,7,8,1 04","no, you won't get 4,5,7,8,1 0","no, you won't get 4,5,7,8,1 or 2 using 3"],"rt":36315,"trial_type":"polygon-arrow-question","trial_index":0,"trial_index_global":59,"time_elapsed":893853,"internal_chunk_id":"0-0.11-0"},{"nsides":9,"question":"Is 5 a generator under <img src=\"./images/nonagon_symbol.png\" style=\"width:14px;height:14px\">? Please explain in words how you got your answer.","response_type":"free","response_choices":[],"correct_response":"","response":"yes, you will get all of the number back after using 5 multiple times","orientation_history":[[0]],"response_history":["yes, you will get all of the number back after multiple uses","yes, you will get all of the number back after multiple use","yes, you will get all of the number back after mu","yes, you will get all of the number back after m","yes, you will get all of the number back after using f","yes, you will get all of the numbe r back a fter using 5 multiple times"],"rt":47550,"trial_type":"polygon-arrow-question","trial_index":0,"trial_index_global":60,"time_elapsed":941403,"internal_chunk_id":"0-0.11-0"},{"nsides":9,"question":"Is 6 a generator under <img src=\"./images/nonagon_symbol.png\" style=\"width:14px;height:14px\">? Please explain in words how you got your answer.","response_type":"free","response_choices":[],"correct_response":"","response":"no, you will not get all of the numbers, you will only get 0,3, and 6, but none of the other numbers","orientation_history":[[0]],"response_history":["no, you will not get all of the numbers ","no, you will not get all of the numbers, yo wo","no, you will not get all of the numbers, yo w","no, you will not get all of the numbers, yo ","no, you will not get all of the numbers, you wond ","no, you will not get all of the numbers, you wond","no, you will not get all of the numbers, you won't get ","no, you will not get all of the numbers, you won't get","no, yo u will n ot get all of the numbers, you won't ge","no, you will not get all of the numbers, you won't g","no, you will not get all of the numbers, you won't ","no, you will not get all of the numbers, you won't","no, you will not get all of the numbers, you won'","no, you will not get all of the numbers, you won","no, you will not get all of the numbers, you wo","no, you will not get all of the numbers, you w","no, you will not get all of the numbers, you will only get 0,3 ","no, you will not get all of the numbers, you will only get 0,3, and 5","no, you will not get all of the numbers, you will only get 0,3, and ","no, you will not get all of the numbers, you will only get 0,3, and 6, but none ot","no, you will not get all of the numbers, you will only get 0,3, and 6, but none of the ohte","no, you will not get all of the numbers, you will only get 0,3, and 6, but none of the oht","no, you will not get all of the numbers, you will only get 0,3, and 6, but none of the oh","no, you wi ll not g et all of the numbers, you will only get 0,3, and 6, but none of the other numbers"],"rt":64084,"trial_type":"polygon-arrow-question","trial_index":0,"trial_index_global":61,"time_elapsed":1005487,"internal_chunk_id":"0-0.11-0"},{"nsides":"n","instructions":"Now we'd like to ask you some questions about <img src=\"./images/ngon_symbol.png\" style=\"width:14px;height:14px\">, where n could be any positive counting number. For example, n could be 3, and the polygon a triangle, or n could be any other counting number you can think of. If you need to write the operation, you can use \"(n)\", and your answers can include n to stand in for the arbitrary value if necessary. (You can use the polygon at the right to think, but it doesn't necessarily correspond to the real polygon, which is why we've left most of it dashed.)","orientation_history":[0],"rt":138269,"trial_type":"polygon-arrow-instructions","trial_index":0,"trial_index_global":62,"time_elapsed":1143760,"internal_chunk_id":"0-0"},{"nsides":"n","question":"What is the formula for the inverse of 1 under <img src=\"./images/ngon_symbol.png\" style=\"width:14px;height:14px\">?","response_type":"free","response_choices":[],"correct_response":"n-1","response":"1\"(n)\"n-1","orientation_history":[[0]],"response_history":["1 \"9","1\"(N","1 \"(n\")","1\"(n\")","1\"(n\"","1\"(n\"","1\"(n)'","1\"(n)\"n-1"],"rt":117211,"trial_type":"polygon-arrow-question","trial_index":0,"trial_index_global":63,"time_elapsed":1260971,"internal_chunk_id":"0-0.13-0"},{"nsides":"n","question":"Whatistheformulafortheinverseofanelementxunder<imgsrc=\"./images/ngon_symbol.png\"style=\"width:14px;height:14px\">?Pleaseexplaininwordswhyyouransweriscorrect.","response_type":"free","response_choices":[],"correct_response":"n-x","response":"x\"(n)\"n-x","orientation_history":[[0]],"response_history":["x(","x\"(N","x\"(n)\"n-x"],"rt":113550,"trial_type":"polygon-arrow-question","trial_index":0,"trial_index_global":64,"time_elapsed":1374521,"internal_chunk_id":"0-0.13-0"},{"nsides":"n","question":"Is there a pattern to which elements are generators? How can you know if an element x is a generator under <img src=\"./images/ngon_symbol.png\" style=\"width:14px;height:14px\"> without seeing whether it can make all the elements?.","response_type":"free","response_choices":[],"correct_response":"","response":"sorry, on the previous question I hit enter before explaining why x\"(n)\"n-x is the inverse of x.  This is because you must move n-x amount around the polygon to get to 0.  Now, yes, there is a pattern for which elements are generators, 1 will always be a generator since it always moves you to the next number, and n-1 will always be a generator since it will likewise give you every number back, there may be more, but I am not sure what the patter is for any others.","orientation_history":[[0]],"response_history":["yes","ye","y","sorry, on the previous question I hit enterbe","sorry, on the pr evious q uestion I hit enterb","sorry, on the previous question I hit enter before explaining by ","sorry, on the previous question I hit enter before explaining by","sorry, on the previous question I hit enter before explaining b","sorry, on the previous question I hit enter before explaining wy ","sorry, on the previous question I hit enter before explaining wy","sorry, on the previous question I hit enter before explaining why n\"(","sorry,onthepreviousquestionIhitenterbeforeexplainingwhyn\"","sorry, on the previous question I hit enter before explaining why n","sorry, on the previous question I hit enter before explaining why x\"(n)\"n-x is the inverse of x ","sorry, on the previous question I hit enter before explaining why x\"(n)\"n-x is the inverse of x.  This is because you must move n-x amount around the polygon to get to 0.  Now,  ","sorry, on the previous question I hit enter before explaining why x\"(n)\"n-x is the inverse of x.  This is because you must move n -x amoun t around the polygon to get to 0.  Now, yes, there is a pe","sorry, on the previous question I hit enter before explaining why x\"(n)\"n-x is the inverse of x.  This is because you must move n-x amount around the polygon to get to 0.  Now, yes, there is a pattern for which elements are generators, 1 will always be a generator since it always moves you to the next number, and n-1 will always be a generator since it will likewise give you every number back, there may be more, but I am not sure what the patter is for any others."],"rt":299481,"trial_type":"polygon-arrow-question","trial_index":0,"trial_index_global":65,"time_elapsed":1674002,"internal_chunk_id":"0-0.13-0"},{"nsides":"n","question":"True or false: If x is an odd number, it must be a generator under <img src=\"./images/ngon_symbol.png\" style=\"width:14px;height:14px\">.","response_type":"multi","response_choices":["True","False"],"correct_response":"False","response":"False","orientation_history":[[0]],"response_history":["False"],"rt":7565,"trial_type":"polygon-arrow-question","trial_index":0,"trial_index_global":66,"time_elapsed":1681567,"internal_chunk_id":"0-0.13-0"},{"nsides":"n","question":"True or false: If x is an even number, it must not be a generator under <img src=\"./images/ngon_symbol.png\" style=\"width:14px;height:14px\">.","response_type":"multi","response_choices":["True","False"],"correct_response":"False","response":"False","orientation_history":[[0]],"response_history":["False"],"rt":4711,"trial_type":"polygon-arrow-question","trial_index":0,"trial_index_global":67,"time_elapsed":1686280,"internal_chunk_id":"0-0.13-0"},{"nsides":"n","question":"True or false: If x is not a generator under <img src=\"./images/ngon_symbol.png\" style=\"width:14px;height:14px\">, x must divide n.","response_type":"multi","response_choices":["True","False"],"correct_response":"False","response":"False","orientation_history":[[0]],"response_history":["False"],"rt":13284,"trial_type":"polygo n-arrow- question","trial_index":0,"trial_index_global":68,"time_elapsed":1699564,"internal_chunk_id":"0-0.13-0"},{"nsides":"n","question":"True or false: If x is not a generator under <img src=\"./images/ngon_symbol.png\" style=\"width:14px;height:14px\">, x must be a multiple of a divisor of n. Please explain in words why your answer is correct.","response_type":"free","response_choices":[],"correct_response":"True","response":"false,  this will not be true in every case, for example in a nonagon \"(9)\" 4 is a generator, but 9 is not divisible by 4.","orientation_history":[[0]],"response_history":["false,  this willnot ","false,  this willnot","false,  this willno","false,  this willn","false,  this will not be true in every case, for example in a nonagon (","false,  this will not be true in every case, for example in a nonagon \"(9)\" 4 is a generator ","false,  this will not be true in every case, for example in a nonagon \"(9)\" 4 is a generator, but 9 is not divisible by 4."],"rt":193785,"trial_type":"polygon-arrow-question","trial_index":0,"trial_index_global":69,"time_elapsed":1893353,"internal_chunk_id":"0-0.13-0"},{"nsides":"n","question":"If an element x is a generator under <img src=\"./images/ngon_symbol.png\" style=\"width:14px;height:14px\">, is its inverse a generator under <img src=\"./images/ngon_symbol.png\" style=\"width:14px;height:14px\"> always, sometimes, or never?","response_type":"multi","response_choices":["Always","Sometimes","Never"],"correct_response":"Always","response":"Sometimes","orientation_history":[[0]],"response_history":["Sometimes"],"rt":135324,"trial_type":"polygon-arrow-question","trial_index":0,"trial_index_global":70,"time_elapsed":2028685,"internal_chunk_id":"0-0.13-0"},{"nsides":"n","question":"If an element x is not a generator under <img src=\"./images/ngon_symbol.png\" style=\"width:14px;height:14px\">, is x <img src=\"./images/ngon_symbol.png\" style=\"width:14px;height:14px\"> x a generator under <img src=\"./images/ngon_symbol.png\" style=\"width:14px;height:14px\"> always, sometimes, or never?","response_type":"multi","response_choices":["Always","Sometimes","Never"],"correct_response":"Never","response":"Sometimes","orientation_history":[[0]],"response_history":["Sometimes"],"rt":68327,"trial_type":"polygon-arrow-question","trial_index":0,"trial_index_global":71,"time_elapsed":2097012,"internal_chunk_id":"0-0.13-0"},{"nsides":"n","question":"If an element x is a generator under <img src=\"./images/ngon_symbol.png\" style=\"width:14px;height:14px\">, is x <img src=\"./images/ngon_symbol.png\" style=\"width:14px;height:14px\"> x a generator under <img src=\"./images/ngon_symbol.png\" style=\"width:14px;height:14px\"> always, sometimes, or never? Please explain in words why your answer is correct.","response_type":"free","response_choices":[],"correct_response":"Sometimes","response":"I say sometimes, because 2\"(9)\"2=4 in a nonagon gives us 4 which is a generator, but 1\"(9)\"1 = 2 giv es us 2  which is not a generator ","orientation_history":[[0]],"response_history":["I say sometimes, because 1\"(n\"","I say sometimes, because 1\"(n)\"1 will always work","I say sometimes, because 1\"(n)\"1 will always wor","I say sometimes, because 1\"(n)\"1 will always wo","I say sometimes, because 1\"(n)\"1 will always w","I say sometimes, because 1\"(n)\"1 will always ","I say sometimes, because 1\"(n)\"1 will always","I say sometimes, because 1\"(n)\"1 will alway","I say sometimes, because 1\"(n)\"1 will alwa","I say sometimes, because 1\"(n)\"1 will alw","I say sometimes, because 1\"(n)\"1 will al","I say sometimes, because 1\"(n)\"1 will a","I say sometimes, because 1\"(n)\"1 will ","I say sometimes, because 1\"(n)\"1 will","I say sometimes, because 1\"(n)\"1 wil","I say sometimes, because 1\"(n)\"1 wi","I say sometimes, because 1\"(n)\"1 w","I say sometimes, because 1\"(n)\"1 ","I say sometimes, because 1\"(n)\"1","I say sometimes, because 1\"(n)\"","I say sometimes, becaus e 1\"(n)","Isaysometimes,because1\"(n","I say sometimes, because 1\"(","Isaysometimes,because1\"","I say sometimes, because 1","I say sometimes, because 2\"(n\"","I say sometimes, because 2\"(n)\"","I say sometimes, because 2\"2(n)\"","I say sometimes, because 2\"(n)\"2","I say sometimes, because 2\"()\"2","I say sometimes, because 2\"(9)\"2=4 in a nonagon w","I say sometimes, because 2\"(9)\"2=4 in a nonagon ","I say sometimes, because 2\"(9)\"2=4 in a nonagon","I say sometimes, because 2\"(9)\"2=4 in a nonago","I say sometimes, because 2\"(9)\"2=4 in a nonag","I say sometimes, because 2\"(9)\"2=4 in a nonagon gives us 4 wich is a gener","I say sometimes, because 2\"(9)\"2=4 in a nonagon gives us 4 wich is a gene","I say sometimes, because 2\"(9)\"2=4 in a nonagon gives us 4 wich is a gen","I say sometimes, because 2\"(9)\"2=4 in a nonagon gives us 4 wich is a ge","I say sometimes, because 2\"(9)\"2=4 in a nonagon gives us 4 wich is a g","I say sometimes, because 2\"(9)\"2= 4 in a n onagon gives us 4 wich is a ","I say sometimes, because 2\"(9)\"2=4 in a nonagon gives us 4 wich is a","I say sometimes, because 2\"(9)\"2=4 in a nonagon gives us 4 wich is ","I say sometimes, because 2\"(9)\"2=4 in a nonagon gives us 4 wich is","I say sometimes, because 2\"(9)\"2=4 in a nonagon gives us 4 wich i","I say sometimes, because 2\"(9)\"2=4 in a nonagon gives us 4 wich ","I say sometimes, because 2\"(9)\"2=4 in a nonagon gives us 4 wich","I say sometimes, because 2\"(9)\"2=4 in a nonagon gives us 4 wic","I say sometimes, because 2\"(9)\"2=4 in a nonagon gives us 4 wi","I say sometimes, because 2\"(9)\"2=4 in a nonagon gives us 4 whcih","I say sometimes, because 2\"(9)\"2=4 in a nonagon gives us 4 whci","I say sometimes, because 2\"(9)\"2=4 in a nonagon gives us 4 whc","I say sometimes, because 2\"(9)\"2=4 in a nonagon gives us 4 which is a generator, but 1\"(9\"","I say sometimes, because 2\"(9)\"2=4 in a nonagon gives us 4 which is a generator, but 1\"(9)\"1 = 2","I say  sometimes, because 2\"(9)\"2=4 in a nonagon gives us  4 which is a generator, but 1\"(9)\"1 = 2","I say sometimes, because 2\"(9)\"2=4 in a nonagon gives us 4 which is a generator, but 1\"(9)\"1 = 2 gives us 2 wich is not a ","I say sometimes, because 2\"(9)\"2=4 in a nonagon gives us 4 which is a generator, but 1\"(9)\"1 = 2 gives us 2 wich is not a","I say sometimes, because 2\"(9)\"2=4 in a nonagon gives us 4 which is a generator, but 1\"(9)\"1 = 2 gives us 2 wich is not ","I say sometimes, because 2\"(9)\"2=4 in a nonagon gives us 4 which is a generator, but 1\"(9)\"1 = 2 gives us 2 wich is not","I say sometimes, because 2\"(9)\"2=4 in a nonagon gives us 4 which is a generator, but 1\"(9)\"1 = 2 gives us 2 wich is no","I say sometimes, because 2\"(9)\"2=4 in a nonagon gives us 4 which is a generator, but 1\"(9)\"1 = 2 gives us 2 wich is n","I say sometimes, because 2\"(9)\"2=4 in a nonagon gives us 4 which is a generator, but 1\"(9)\"1 = 2 gives us 2 wich is ","I say som etimes,  because 2\"(9)\"2=4 in a nonagon gives us 4 which is a generator, but 1\"(9)\"1 = 2 gives us 2 wich is","I say sometimes, because 2\"(9)\"2=4 in a nonagon gives us 4 which is a generator, but 1\"(9)\"1 = 2 gives us 2 wich i","I say sometimes, because 2\"(9)\"2=4 in a nonagon gives us 4 which is a generator, but 1\"(9)\"1 = 2 gives us 2 wich ","I say sometimes, because 2\"(9)\"2=4 in a nonagon gives us 4 which is a generator, but 1\"(9)\"1 = 2 gives us 2 wich","I say sometimes, because 2\"(9)\"2=4 in a nonagon gives us 4 which is a generator, but 1\"(9)\"1 = 2 gives us 2 wic","I say sometimes, because 2\"(9)\"2=4 in a nonagon gives us 4 which is a generator, but 1\"(9)\"1 = 2 gives us 2 wi","I say sometimes, because 2\"(9)\"2=4 in a nonagon gives us 4 which is a generator, but 1\"(9)\"1 = 2 gives us 2 wich is ","I say sometimes, because 2\"(9)\"2=4 in a nonagon gives us 4 which is a generator, but 1\"(9)\"1 = 2 gives us 2 wich is","I say sometimes, because 2\"(9)\"2=4 in a no nagon gi ves us 4 which is a generator, but 1\"(9)\"1 = 2 gives us 2 wich i","I say sometimes, because 2\"(9)\"2=4 in a nonagon gives us 4 which is a generator, but 1\"(9)\"1 = 2 gives us 2 wich ","I say sometimes, because 2\"(9)\"2=4 in a nonagon gives us 4 which is a generator, but 1\"(9)\"1 = 2 gives us 2 wich","I say sometimes, because 2\"(9)\"2=4 in a nonagon gives us 4 which is a generator, but 1\"(9)\"1 = 2 gives us 2 wic","I say sometimes, because 2\"(9)\"2=4 in a nonagon gives us 4 which is a generator, but 1\"(9)\"1 = 2 gives us 2 wi","I say sometimes, because 2\"(9)\"2=4 in a nonagon gives us 4 which is a generator, but 1\"(9)\"1 = 2 gives us 2 which is not a generator (","I say sometimes, because 2\"(9)\"2=4 in a nonagon gives us 4 which is a generator, but 1\"(9)\"1 = 2 gives us 2 which is not a generator as it will","I say sometimes, because 2\"(9)\"2=4 in a nonagon gives us 4 which is a generator, but 1\"(9)\"1 = 2 gives us 2 which is not a generator as it wil","I say  sometime s, because 2\"(9)\"2=4 in a nonagon gives us 4 which is a generator, but 1\"(9)\"1 = 2 gives us 2 which is not a generator as it wi","I say sometimes, because 2\"(9)\"2=4 in a nonagon gives us 4 which is a generator, but 1\"(9)\"1 = 2 gives us 2 which is not a generator as it w","I say sometimes, because 2\"(9)\"2=4 in a nonagon gives us 4 which is a generator, but 1\"(9)\"1 = 2 gives us 2 which is not a generator as it ","I say sometimes, because 2\"(9)\"2=4 in a nonagon gives us 4 which is a generator, but 1\"(9)\"1 = 2 gives us 2 which is not a generator as it","I say sometimes, because 2\"(9)\"2=4 in a nonagon gives us 4 which is a generator, but 1\"(9)\"1 = 2 gives us 2 which is not a generator as i","I say sometimes, because 2\"(9)\"2=4 in a nonagon gives us 4 which is a generator, but 1\"(9)\"1 = 2 gives us 2 which is not a generator as ","I say sometimes, because 2\"(9)\"2=4 in a nonagon gives us 4 which is a generator, but 1\"(9)\"1 = 2 gives us 2 which is not a gen erator a s","I say sometimes, because 2\"(9)\"2=4 in a nonagon gives us 4 which is a generator, but 1\"(9)\"1 = 2 gives us 2 which is not a generator a","I say sometimes, because 2\"(9)\"2=4 in a nonagon gives us 4 which is a generator, but 1\"(9)\"1 = 2 gives us 2 which is not a generator "],"rt":199224,"trial_type":"polygon-arrow-question","trial_index":0,"trial_index_global":72,"time_elapsed":2296236,"internal_chunk_id":"0-0.13-0"},{"instructions":"We would like to ask you some questions about your background. Please press \"Continue\" to continue.","rt":2738,"trial_type":"instructions","trial_index":0,"trial_index_global":73,"time_elapsed":2298978,"internal_chunk_id":"0-0.14-0"},{"question":"What is your age?","response_type":"free","response_choices":[],"correct_response":"","response":"32","response_history":["32"],"rt":2977,"trial_type":"question","trial_index":0,"trial_index_global":74,"time_elapsed":2301959,"internal_chunk_id":"0-0.14-0"},{"question":"What is your level of e ducation ?","response_type":"multi","response_choices":["Did not graduate high school","High school diploma","Some college, no degree","Associates Degree","Bachelors Degree","Some graduate school, no degree","Masters Degree","Doctorate, M.D., etc."],"correct_response":"","response":"Bachelors Degree","response_history":["Bachelors Degree"],"rt":5058,"trial_type":"question","trial_index":0,"trial_index_global":75,"time_elapsed":2307021,"internal_chunk_id":"0-0.14-0"},{"question":"What is the most advanced math class you've completed? If you have multiple classes and you're not sure which one is most advanced, please list them.","response_type":"free","response_choices":[],"correct_response":"","response":"abstract algebra in college or maybe the class where I had to do all of the proofs for all of calculus (I don't remember what class that was).  I was an math education major, but I don't remember what class was most advanced as I took many math classes in college","response_history":["abstra ct algebra in college or calculus 3","abstract algebra in college or c","abstract algebra in college or ","abstract algebra in college or","abstract algebra in college o","abstract algebra in college or maybe tht","abstract algebra in college or maybe the class wehre ","abstract algebra in college or maybe the class wehre","abstract algebra in college or maybe the class wehr","abstract algebra in college or maybe the class weh","abstract algebra in college or maybe the class we","abstract algebra in college or maybe the class where I had to do all of the proofs fro ca","abstract algebra in college or maybe the class where I had to do all of the proofs fro c","abstract algebra in college or maybe the class where I had to do all of the proofs fro ","abstract algebra in college or maybe the class where I had to do all of the proofs fro","abstract algebra in college or maybe the class where I had to do all of the proofs fr","abstract algebra in college or maybe the class where I  had to  do all of the proofs for cals","abstract algebra in college or maybe the class where I had to do all of the proofs for cal","abstract algebra in college or maybe the class where I had to do all of the proofs for ca","abstract algebra in college or maybe the class where I had to do all of the proofs for c","abstract algebra in college or maybe the class where I had to do all of the proofs for all of calcus","abstract algebra in college or maybe the class where I had to do all of the proofs for all of calcu","abstract algebra in college or maybe the class where I had to do all of the proofs for all of calc","abstract algebra in college or maybe the class where I had to do all of the proofs for all of calcuslus","abstract algebra in college or maybe the class where I had to do all of the proofs for all of calcuslu","abstract algebra in college or maybe the class where I had to do all of the proofs for all of calcusl","abstract algebra in college or maybe the class where I had t o do all  of the proofs for all of calcus","abstract algebra in college or maybe the class where I had to do all of the proofs for all of calcu","abstract algebra in college or maybe the class where I had to do all of the proofs for all of calculus (I don't e","abstract algebra in college or maybe the class where I had to do all of the proofs for all of calculus (I don't remember what class that was) I","abstract algebra in college or maybe the class where I had to do all of the proofs for all of calculus (I don't remember what class that was) ","abstract algebra in college or maybe the class where I had to do all of the proofs for all of calculus (I don't remember what class that was).  I was an edu","abstract algebra in college or maybe the class where I had to do all of the proofs for all of calculus (I don't remember what class that was).  I was an ed","abstract algebra in college or maybe the class where I had to do all of the proofs for all of calculus (I don't remember what cl ass that  was).  I was an e","abstract algebra in college or maybe the class where I had to do all of the proofs for all of calculus (I don't remember what class that was).  I was an math education major, so I am o","abstract algebra in college or maybe the class where I had to do all of the proofs for all of calculus (I don't remember what class that was).  I was an math education major, so I am ","abstract algebra in college or maybe the class where I had to do all of the proofs for all of calculus (I don't remember what class that was).  I was an math education major, so I am not sure ","abstract algebra in college or maybe the class where I had to do all of the proofs for all of calculus (I don't remember what class that was).  I was an math education major, so I am","abstract algebra in college or maybe the class where I had to do all of the proofs for all of calculus (I don't remember what class that was).  I was an math education major, so I a","abstract algebra in college or  maybe th e class where I had to do all of the proofs for all of calculus (I don't remember what class that was).  I was an math education major, so I ","abstract algebra in college or maybe the class where I had to do all of the proofs for all of calculus (I don't remember what class that was).  I was an math education major, so I","abstract algebra in college or maybe the class where I had to do all of the proofs for all of calculus (I don't remember what class that was).  I was an math education major, so ","abstract algebra in college or maybe the class where I had to do all of the proofs for all of calculus (I don't remember what class that was).  I was an math education major, so","abstract algebra in college or maybe the class where I had to do all of the proofs for all of calculus (I don't remember what class that was).  I was an math education major, s","abstract algebra in college or maybe the class where I had to do all of the proofs for all of calculus (I don't remember wh at class  that was).  I was an math education major, but I don't remember what class was most as","abstract algebra in college or maybe the class where I had to do all of the proofs for all of calculus (I don't remember what class that was).  I was an math education major, but I don't remember what class was most advaced as ","abstract algebra in college or maybe the class where I had to do all of the proofs for all of calculus (I don't remember what class that was).  I was an math education major, but I don't remember what class was most advaced as","abstract algebra in college or maybe the class where I had to do all of the proofs for all of calculus (I don't remember what class that was).  I was an math education major, but I don't remember what class was most advaced a","abstract algebra in college or maybe the class where I had to do all of the proofs for all of calculus (I don't remember what class that was).  I was an math education major, but I don't remember what class was m ost adva ced ","abstract algebra in college or maybe the class where I had to do all of the proofs for all of calculus (I don't remember what class that was).  I was an math education major, but I don't remember what class was most advaced","abstract algebra in college or maybe the class where I had to do all of the proofs for all of calculus (I don't remember what class that was).  I was an math education major, but I don't remember what class was most advace","abstract algebra in college or maybe the class where I had to do all of the proofs for all of calculus (I don't remember what class that was).  I was an math education major, but I don't remember what class was most advac","abstract algebra in college or maybe the class where I had to do all of the proofs for all of calculus (I don't remember what class that was).  I was an math education major, but I don't remember what class was most advanc ed","abstract algebra in college or maybe the class where I had to do all of the pro ofs for  all of calculus (I don't remember what class that was).  I was an math education major, but I don't remember what class was most advanc e","abstract algebra in college or maybe the class where I had to do all of the proofs for all of calculus (I don't remember what class that was).  I was an math education major, but I don't remember what class was most advanc ","abstract algebra in college or maybe the class where I had to do all of the proofs for all of calculus (I don't remember what class that was).  I was an math education major, but I don't remember what class was most advanced as I took many math classes in college"],"rt":106090,"trial_type":"question","trial_index":0,"trial_index_global":76,"time_elapsed":2413115,"internal_chunk_id":"0-0.14-0"},{"question":"How familiar are you with the concept of modular arithmetic?","response_type":"multi","response_choices":["1 - never heard of it","2 - heard of it but didn't know what it was","3 - seen it used or explained","4 -  used it  but not often or recently","5 - used it, remember and understand it"],"correct_response":"1","response":"1 - never heard of it","response_history":["1 - never heard of it"],"rt":19078,"trial_type":"question","trial_index":0,"trial_index_global":77,"time_elapsed":2432193,"internal_chunk_id":"0-0.14-0"},{"question":"How familiar are you with the concept of a mathematical group?","response_type":"multi","response_choices":["1 - never heard of it","2 - heard of it but didn't know what it was","3 - seen it used or explained","4 - used it but not often or recently","5 - used it, remember and understand it"],"correct_response":"1","response":"4 - used it but not often or recently","response_history":["4 - used it but not often or recently"],"rt":7358,"trial_type":"question","trial_index":0,"trial_index_global":78,"time_elapsed":2439551,"internal_chunk_id":"0-0.14-0"},{"question":"Do you feel you learned something from this HIT?","response_type":"multi","response_choices":["1 - not  at all","2 - somewhat","3 - definitely"],"correct_response":"1","response":"3 - definitely","response_history":["3 - definitely"],"rt":3776,"trial_type":"question","trial_index":0,"trial_index_global":79,"time_elapsed":2443331,"internal_chunk_id":"0-0.14-0"},{"question":"Do you feel you understood the concepts in this HIT?","response_type":"multi","response_choices":["1 - not at all","2 - somewhat","3 - definitely"],"correct_response":"1","response":"3 - definitely","response_history":["3 - definitely"],"rt":2839,"trial_type":"question","trial_index":0,"trial_index_global":80,"time_elapsed":2446171,"internal_chunk_id":"0-0.14-0"},{"question":"Did you enjoy this HIT?","response_type":"multi","response_choices":["1 - not at all","2 - somewhat","3 - definitely"],"correct_response":"1","response":"3 - definitely","response_history":["3 - definitely"],"rt":2308,"trial_type":"question","trial_index":0,"trial_index_global":81,"time_elapsed":2448479,"internal_chunk_id":"0-0.14-0"},{"question":"What  is your gender?","response_type":"multi","response_choices":["Female","Male","Other"],"correct_response":"","response":"Female","response_history":["Female"],"rt":2501,"trial_type":"question","trial_index":0,"trial_index_global":82,"time_elapsed":2450980,"internal_chunk_id":"0-0.14-0"},{"question":"What is/are your native language(s)? (The languages spoken in your household when you were a child.)","response_type":"free","response_choices":[],"correct_response":"","response":"English","response_history":["English"],"rt":4610,"trial_type":"question","trial_index":0,"trial_index_global":83,"time_elapsed":2455590,"internal_chunk_id":"0-0.14-0"},{"question":"Did you use pen and paper at any point on this HIT?","response_type":"free","response_choices":[],"correct_response":"","response":"yes","response_history":["yes"],"rt":4357,"trial_type":"question","trial_index":0,"trial_index_global":84,"time_elapsed":2459947,"internal_chunk_id":"0-0.14-0"},{"question":"Do you have any com ments on  this HIT?","response_type":"free","response_choices":[],"correct_response":"","response":"Thank you for posting this HIT. I love math and really enjoyed learning this.  It made me think about adding in different bases (base 6, base 9, base n).  Thank you for teaching me a new way to think about math concepts.","response_history":["Thank you for posting this HIT. O","Thank you for posting this HIT. I love math and e","Thank you for posting this HIT. I love math and really enjoyed the","Thank you for posting this HIT. I love math and really enjoyed th","Thank you for posting this HIT. I love math and really enjoyed tl","Thank you for posting this HIT. I love math and really enjoyed t","Thank you for posting this HIT. I love math and really enjoyed learning this.  It made me think about adding in different bases (base 6, base 9, base n).  Thank you for teaching me a new way to think about","Thank you for posting this HIT. I love math and really enjoyed learning this.  It made  me think  about adding in different bases (base 6, base 9, base n).  Thank you for teaching me a new way to think abou","Thank you for posting this HIT. I love math and really enjoyed learning this.  It made me think about adding in different bases (base 6, base 9, base n).  Thank you for teaching me a new way to think abo","Thank you for posting this HIT. I love math and really enjoyed learning this.  It made me think about adding in different bases (base 6, base 9, base n).  Thank you for teaching me a new way to think ab","Thank you for posting this HIT. I love math and really enjoyed learning this.  It made me think about adding in different bases (base 6, base 9, base n).  Thank you for teaching me a new way to think a","Thank you for posting this HIT. I love math and really enjoyed learning this.  It made me think about adding in different bases (base 6, base 9, base n).  Thank you for teaching me a new way to think about a","Thank you for posting this HIT. I love math and real ly enjoy ed learning this.  It made me think about adding in different bases (base 6, base 9, base n).  Thank you for teaching me a new way to think about math.","Thank you for posting this HIT. I love math and really enjoyed learning this.  It made me think about adding in different bases (base 6, base 9, base n).  Thank you for teaching me a new way to think about math","Thank you for posting this HIT. I love math and really enjoyed learning this.  It made me think about adding in different bases (base 6, base 9, base n).  Thank you for teaching me a new way to think about mat","Thank you for posting this HIT. I love math and really enjoyed learning this.  It made me think about adding in different bases (base 6, base 9, base n).  Thank you for teaching me a new way to think about ma","Thank you for posting this HIT. I love math and really enjoyed learning this.  It made me think about adding in different bases (base 6, base 9, base n).  Thank you for teaching me a new way to think  about m ","Thank you for posting this HIT. I love math and really enjoyed learning this.  It made me think about adding in different bases (base 6, base 9, base n).  Thank you for teaching me a new way to think about ","Thank you for posting this HIT. I love math and really enjoyed learning this.  It made me think about adding in different bases (base 6, base 9, base n).  Thank you for teaching me a new way to think about ","Thank you for posting this HIT. I love math and really enjoyed learning this.  It made me think about adding in different bases (base 6, base 9, base n).  Thank you for teaching me a new way to think about","Thank you for posting this HIT. I love math and really enjoyed learning this.  It made me think about adding in different bases (base 6, base 9, base n).  Thank you for teaching me a new way to think abou","Thank you for posting this HIT. I love math and really enjoyed learning this.  It made me think about adding in different bases (base 6, base 9, base n).   Thank  you for teaching me a new way to think about math concepts."],"rt":66526,"trial_type":"question","trial_index":0,"trial_index_global":85,"time_elapsed":2526473,"internal_chunk_id":"0-0.14-0"}]