[{"nsides":6,"instructions":"Let's define a new operation <img src=\"./images/hexagon_symbol.png\" style=\"width:14px;height:14px\">. This operation will give us a way of combining two of the numbers 0, 1, 2, 3, 4, 5 to get another one of them back. Consider the hexagon at the right, where I've labeled each point with one of the numbers. To perform <img src=\"./images/hexagon_symbol.png\" style=\"width:14px;height:14px\">, you can use the interactive diagram on the right, or perform the operation in your mind. or perform the operation in your mind. Point the arrow at the first number on the hexagon, then move the arrow the second number of points clockwise around the hexagon. The number the arrow arrives at is your result. (The operation is called <img src=\"./images/hexagon_symbol.png\" style=\"width:14px;height:14px\"> because it uses the hexagon, which has 6 sides.) <br /><br />For example, 3 <img src=\"./images/hexagon_symbol.png\" style=\"width:14px;height:14px\"> 5 = 2,  because  5 steps clockwise from 3 on the hexagon brings us to 2. So 3 <img src=\"./images/hexagon_symbol.png\" style=\"width:14px;height:14px\"> 5 = 2.<br /><br />Similarly, 1 <img src=\"./images/hexagon_symbol.png\" style=\"width:14px;height:14px\"> 4 = 5, because 4 steps clockwise from 1 brings us to 5. <br /><br />Click \"Continue\" when you are ready to move on.","orientation_history":[0],"rt":32452,"trial_type":"polygon-arrow-instructions","trial_index":0,"trial_index_global":1,"time_elapsed":35609,"internal_chunk_id":"0-0"},{"nsides":6,"question":"Now try one on your own! What is 4 <img src=\"./images/hexagon_symbol.png\" style=\"width:14px;height:14px\"> 5? <br /><br /> (Remember, to perform <img src=\"./images/hexagon_symbol.png\" style=\"width:14px;height:14px\">, you can use the interactive diagram on the right, or perform the operation in your mind. Point the arrow at the first number on the hexagon, then move the arrow the second number of points clockwise around the hex agon. Th e number the arrow arrives at is your result.)","response_type":"free","response_choices":[],"correct_response":"3","response":"3","orientation_history":[[0]],"response_history":["3"],"rt":9666,"trial_type":"polygon-arrow-question","trial_index":0,"trial_index_global":2,"time_elapsed":45279,"internal_chunk_id":"0-0.2-0"},{"nsides":6,"feedback":"Correct! 4 <img src=\"./images/hexagon_symbol.png\" style=\"width:14px;height:14px\"> 5 = 3 because 5 steps clockwise on the hexagon from 4 brings us to 3","orientation_history":[0],"rt":1382,"trial_type":"polygon-arrow-feedback","trial_index":0,"trial_index_global":3,"time_elapsed":46663,"internal_chunk_id":"0-0.2-0"},{"nsides":6,"question":"What is 3 <img src=\"./images/hexagon_symbol.png\" style=\"width:14px;height:14px\"> 2? <br /><br /> (Remember, to perform <img src=\"./images/hexagon_symbol.png\" style=\"width:14px;height:14px\">, you can use the interactive diagram on the right, or perform the operation in your mind. Point the  arrow a t the first number on the hexagon, then move the arrow the second number of points clockwise around the hexagon. The number the arrow arrives at is your result.)","response_type":"free","response_choices":[],"correct_response":"5","response":"5","orientation_history":[[0]],"response_history":["5"],"rt":5142,"trial_type":"polygon-arrow-question","trial_index":0,"trial_index_global":4,"time_elapsed":51806,"internal_chunk_id":"0-0.2-0"},{"nsides":6,"feedback":"Correct! 3 <img src=\"./images/hexagon_symbol.png\" style=\"width:14px;height:14px\"> 2 = 5 because 2 steps clockwise on the hexagon from 3 brings us to 5","orientation_history":[0],"rt":1415,"trial_type":"polygon-arrow-feedback","trial_index":0,"trial_index_global":5,"time_elapsed":53222,"internal_chunk_id":"0-0.2-0"},{"nsides":6,"question":"What is 1 <img src=\"./images/hexagon_symbol.png\" style=\"width:14px;height:14px\"> 5? <br /><br /> (Remember, to perform <img src=\"./images/hexagon_symbol.png\" style=\"width:14px;height:14px\">, you can use the interactive diagram on the right, or perform the operation in your mind. Point the arrow at the first number on the hexagon, then move the arrow the second number of points clockwise around the hexagon. The number the arrow arrives at is your result.)","response_type":"free","response_choices":[],"correct_response":"0","response":"0","orientation_history":[[0]],"response_history":["0"],"rt":6598,"trial_type":"polygon-arrow-question","trial_index":0,"trial_index_global":6,"time_elapsed":59821,"internal_chunk_id":"0-0.2-0"},{"nsides":6,"feedback":"Correct! 1 <img src=\"./images/hexagon_symbol.png\" style=\"width:14px;height:14px\"> 5 = 0 because 5 steps clockwise on the hexagon from 1 brings us to 0","orientation_history":[0],"rt":28550,"trial_type":"polygon-arrow-feedback","trial_index":0,"trial_index_global":7,"time_elapsed":88372,"internal_chunk_id":"0-0.2-0"},{"nsides":6,"question":"What is 1 <img src=\"./images/hexagon_symbol.png\" style=\"width:14px;height:14px\"> 1? <br /><br /> (Remember, to perform <img src=\"./images/hexagon_symbol.png\" style=\"width:14px;height:14px\">, you can use the interactive diagram on the right, or perform the operation in your mind. Point the arrow at the first number on the hexagon, then move the arrow the second number of points clockwise around the hexagon. The number the arrow arrives at is your result.)","response_type":"free","response_choices":[],"correct_response":"2","response":"2","orientation_history":[[0]],"response_history":["2"],"rt":3831,"trial_type":"polygon-arrow-question","trial_index":0,"trial_index_global":8,"time_elapsed":92204,"internal_chunk_id":"0-0.2-0"},{"nsides":6,"feedback":"Correct! 1 <img src=\"./images/hexagon_symbol.png\" style=\"width:14px;height:14px\"> 1 = 2 because 1 steps clockwise on the hexagon from 1 brings us to 2","orientation_history":[0],"rt":1166,"trial_type":"polygon-arrow-feedback","trial_index":0,"trial_index_global":9,"time_elapsed":93371,"internal_chunk_id":"0-0.2-0"},{"nsides":6,"question":"What is 3 <img src=\"./images/hexagon_symbol.png\" style=\"width:14px;height:14px\"> 0? <br /><br /> (Remember, to perform <img src=\"./images/hexagon_symbol.png\" style=\"width:14px;height:14px\">, you can use the interactive diagram on the right, or perform the operation in your mind. Point the arrow at the first number on the hexagon, then move the arrow the second number of points clockwise around the hexagon. The number the arrow arrives at is your result.)","response_type":"free","response_choices":[],"correct_response":"3","response":"3","orientation_history":[[0]],"response_history":["3"],"rt":4665,"trial_type":"polygon-arrow-question","trial_index":0,"trial_index_global":10,"time_elapsed":98037,"internal_chunk_id":"0-0.2-0"},{"nsides":6,"feedback":"Correct! 3 <img src=\"./images/hexagon_symbol.png\" style=\"width:14px;height:14px\"> 0 = 3 because 0 steps clockwise on the hexagon from 3 brings us to 3","orientation_history":[0],"rt":1262,"trial_type":"polygon-arrow-feedback","trial_index":0,"trial_index_global":11,"time_elapsed":99300,"internal_chunk_id":"0-0.2-0"},{"nsides":6,"question":"What is 4 <img src=\"./images/hexagon_symbol.png\" style=\"width:14px;height:14px\"> 4? <br /><br /> (Remember, to perform <img src=\"./images/hexagon_symbol.png\" style=\"width:14px;height:14px\">, you can use the interactive diagram on the right, or perform the operation in your mind. Point the arrow at the first number on the hexagon, then move the arrow the second number of points clockwise around the hexagon. The number the arrow arrives at is your result.)","response_type":"free","response_choices":[],"correct_response":"2","response":"2","orientation_history":[[0]],"response_history":["2"],"rt":4958,"trial_type":"polygon-arrow-question","trial_index":0,"trial_index_global":12,"time_elapsed":104259,"internal_chunk_id":"0-0.2-0"},{"nsides":6,"feedback":"Correct! 4 <img src=\"./images/hexagon_symbol.png\" style=\"width:14px;height:14px\"> 4 = 2 because 4 steps clockwise on the hexagon from 4 brings us to 2","orientation_history":[0],"rt":2990,"trial_type":"polygon-arrow-feedback","trial_index":0,"trial_index_global":13,"time_elapsed":107251,"internal_chunk_id":"0-0.2-0"},{"nsides":6,"question":"What is 1 <img src=\"./images/hexagon_symbol.png\" style=\"width:14px;height:14px\"> 3? <br /><br /> (Remember, to perform <img src=\"./images/hexagon_symbol.png\" style=\"width:14px;height:14px\">, you can use the interactive diagram on the right, or perform the operation in your mind. Point the arrow at the first number on the hexagon, then move the arrow the second number of points clockwise around the hexagon. The number the arrow arrives at is your result.)","response_type":"free","response_choices":[],"correct_response":"4","response":"4","orientation_history":[[0]],"response_history":["4"],"rt":5734,"trial_type":"polygon-arrow-question","trial_index":0,"trial_index_global":14,"time_elapsed":112986,"internal_chunk_id":"0-0.2-0"},{"nsides":6,"feedback":"Correct! 1 <img src=\"./images/hexagon_symbol.png\" style=\"width:14px;height:14px\"> 3 = 4 because 3 steps clockwise on the hexagon from 1 brings us to 4","orientation_history":[0],"rt":5968,"trial_type":"polygon-arrow-feedback","trial_index":0,"trial_index_global":15,"time_elapsed":118955,"internal_chunk_id":"0-0.2-0"},{"nsides":6,"question":"What is 4 <img src=\"./images/hexagon_symbol.png\" style=\"width:14px;height:14px\"> 3? <br /><br /> (Remember, to perform <img src=\"./images/hexagon_symbol.png\" style=\"width:14px;height:14px\">, you can use the interactive diagram on the right, or perform the operation in your mind. Point the arrow at the first number on the hexagon, then move the arrow the second number of points clockwise around the hexagon. The number the arrow arrives at is your result.)","response_type":"free","response_choices":[],"correct_response":"1","response":"1","orientation_history":[[0]],"response_history":["1 "],"rt":8735,"trial_type":"polygon-arrow-question","trial_index":0,"trial_index_global":16,"time_elapsed":127690,"internal_chunk_id":"0-0.2-0"},{"nsides":6,"feedback":"Correct! 4 <img src=\"./images/hexagon_symbol.png\" style=\"width:14px;height:14px\"> 3 = 1 because 3 steps clockwise on the hexagon from 4 brings us to 1","orientation_history":[0],"rt":959,"trial_type":"polygon-arrow-feedback","trial_index":0,"trial_index_global":17,"time_elapsed":128650,"internal_chunk_id":"0-0.2-0"},{"nsides":6,"question":"What is 0 <img src=\"./images/hexagon_symbol.png\" style=\"width:14px;height:14px\"> 5? <br /><br /> (Remember, to perform <img src=\"./images/hexagon_symbol.png\" style=\"width:14px;height:14px\">, you can use the interactive diagram on the right, or perform the operation in your mind. Point the arrow at the first number on the hexagon, then move the arrow the second number of points clockwise around the hexagon. The number the arrow arrives at is your result.)","response_type":"free","response_choices":[],"correct_response":"5","response":"5","orientation_history":[[0]],"response_history":["5"],"rt":6593,"trial_type":"polygon-arrow-question","trial_index":0,"trial_index_global":18,"time_elapsed":135243,"internal_chunk_id":"0-0.2-0"},{"nsides":6,"feedback":"Correct! 0 <img src=\"./images/hexagon_symbol.png\" style=\"width:14px;height:14px\"> 5 = 5 because 5 steps clockwise on the hexagon from 0 brings us to 5","orientation_history":[0],"rt":950,"trial_type":"polygon-arrow-feedback","trial_index":0,"trial_index_global":19,"time_elapsed":136194,"internal_chunk_id":"0-0.2-0"},{"nsides":6,"question":"What is 2 <img src=\"./images/hexagon_symbol.png\" style=\"width:14px;height:14px\"> 5? <br /><br /> (Remember, to perform <img src=\"./images/hexagon_symbol.png\" style=\"width:14px;height:14px\">, you can use the interactive diagram on the right, or perform the operation in your mind. Point the arrow at the first number on the hexagon, then move the arr ow the s econd number of points clockwise around the hexagon. The number the arrow arrives at is your result.)","response_type":"free","response_choices":[],"correct_response":"1","response":"1","orientation_history":[[0]],"response_history":["1"],"rt":4080,"trial_type":"polygon-arrow-question","trial_index":0,"trial_index_global":20,"time_elapsed":140275,"internal_chunk_id":"0-0.2-0"},{"nsides":6,"feedback":"Correct! 2 <img src=\"./images/hexagon_symbol.png\" style=\"width:14px;height:14px\"> 5 = 1 because 5 steps clockwise on the hexagon from 2 brings us to 1","orientation_history":[0],"rt":1125,"trial_type":"polygon-arrow-feedback","trial_index":0,"trial_index_global":21,"time_elapsed":141401,"internal_chunk_id":"0-0.2-0"},{"nsides":6,"instructions":"Now we're going to discuss a couple special properties of this new operation, <img src=\"./images/hexagon_symbol.png\" style=\"width:14px;height:14px\"> that we've learned. First, notice that the number 0 behaves in a special way unde r <img s rc=\"./images/hexagon_symbol.png\" style=\"width:14px;height:14px\">. Whenever we combine 0 with anything else, we get that same thing back. We'll say that 0 is the <i>identity</i> under <img src=\"./images/hexagon_symbol.png\" style=\"width:14px;height:14px\">, because when you combine it with something it gives you that identical thing back.","orientation_history":[0],"rt":12790,"trial_type":"polygon-arrow-instructions","trial_index":0,"trial_index_global":22,"time_elapsed":154193,"internal_chunk_id":"0-0"},{"nsides":6,"instructions":"Now that we know 0 is the identity under <img src=\"./images/hexagon_symbol.png\" style=\"width:14px;height:14px\">, we're going to make a new definition. We'll say that the <i>inverse</i> of a number is the thing that you combine with it to produce the identity under our operation. For example, 5 <img src=\"./images/hexagon_symbol.png\" style=\"width:14px;height:14px\"> 1 = 0, so we say 1 is the inverse of 5 under <img src=\"./images/hexagon_symbol.png\" style=\"width:14px;height:14px\">, (remember 0 is the identity under <img src=\"./images/hexagon_symbol.png\" style=\"width:14px;height:14px\">). Similarly, 3 is its own inverse under <img src=\"./images/hexagon_symbol.png\" style=\"width:14px;height:14px\">, because 3 <img src=\"./images/hexagon_symbol.png\" style=\"width:14px;height:14px\"> 3 = 0.","orientation_history":[0],"rt":58988,"trial_type":"polygon-arrow-instructions","trial_index":0,"trial_index_global":23,"time_elapsed":213182,"internal_chunk_id":"0-0"},{"nsides":6,"question":"Now you try! What is the inverse of 4 under <img src=\"./images/hexagon_symbol.png\" style=\"width:14px;height:14px\">? <br /><br /> (Remember, the inverse of an element is the thing which you combine with it to produce the identity.)","response_type":"free","response_choices":[],"correct_response":"2","response":"2","orientation_history":[[0]],"response_history":["2"],"rt":8847,"trial_type":"polygon-arrow-question","trial_index":0,"trial_index_global":24,"time_elapsed":222030,"internal_chunk_id":"0-0.6-0"},{"nsides":6,"feedback":"Correct! The inverse of 4 under <img src=\"./images/hexagon_symbol.png\" style=\"width:14px;height:14px\"> is 2 because 2 steps clockwise on the hexagon from 4 brings us to 0, and 0 is the identity under <img src=\"./images/hexagon_symbol.png\" style=\"width:14px;height:14px\">.","orientation_history":[0],"rt":1439,"trial_type":"polygon-arrow-feedback","trial_index":0,"trial_index_global":25,"time_elapsed":223470,"internal_chunk_id":"0-0.6-0"},{"nsides":6,"question":"What is the inverse of 1 under <img src=\"./images/hexagon_symbol.png\" style=\"width:14px;height:14px\">? <br /><br /> (Remember, the inverse of an element is the thing which you combine with it to produce the identity.)","response_type":"free","response_choices":[],"correct_response":"5","response":"5","orientation_history":[[0]],"response_history":["5"],"rt":3071,"trial_type":"polygon-arrow-question","trial_index":0,"trial_index_global":26,"time_elapsed":226541,"internal_chunk_id":"0-0.6-0"},{"nsides":6,"feedback":"Correct! The inverse of 1 under <img src=\"./images/hexagon_symbol.png\" style=\"width:14px;height:14px\"> is 5 because 5 steps clockwise on the hexagon from 1 brings us to 0, and 0 is the identity under <img src=\"./images/hexagon_symbol.png\" style=\"width:14px;height:14px\">.","orientation_history":[0],"rt":1599,"trial_type":"polygon-arrow-feedback","trial_index":0,"trial_index_global":27,"time_elapsed":228141,"internal_chunk_id":"0-0.6-0"},{"nsides":6,"question":"What is the inverse of 3 under <img src=\"./images/hexagon_symbol.png\" style=\"width:14px;height:14px\">? <br /><br /> (Remember, the inverse of an element is the thing which you combine with it to produce the identity.)","response_type":"free","response_choices":[],"correct_response":"3","response":"3","orientation_history":[[0]],"response_history":["3"],"rt":2448,"trial_type":"polygon-arrow-question","trial_index":0,"trial_index_global":28,"time_elapsed":230590,"internal_chunk_id":"0-0.6-0"},{"nsides":6,"feedback":"Correct! The inverse of 3 under <img src=\"./images/hexagon_symbol.png\" style=\"width:14px;height:14px\"> is 3 because 3 steps clockwise on the hexagon from 3 brings us to 0, and 0 is the identity under <img src=\"./images/hexagon_symbol.png\" style=\"width:14px;height:14px\">.","orientation_history":[0],"rt":862,"trial_type":"polygon-arrow-feedback","trial_index":0,"trial_index_global":29,"time_elapsed":231453,"internal_chunk_id":"0-0.6-0"},{"nsides":6,"question":"What is the inverse of 2 under <img src=\"./images/hexagon_symbol.png\" style=\"width:14px;height:14px\">? <br /><br /> (Remember, the inverse of an element is the thing which you combine with it to produce the identity.)","response_type":"free","response_choices":[],"correct_response":"4","response":"4","orientation_history":[[0]],"response_history":["4"],"rt":5927,"trial_type":"polygon-arrow-question","trial_index":0,"trial_index_global":30,"time_elapsed":237382,"internal_chunk_id":"0-0.6-0"},{"nsides":6,"feedback":"Correct! The inverse of 2 under <img src=\"./images/hexagon_symbol.png\" style=\"width:14px;height:14px\"> is 4 because 4 steps clockwise on the hexagon from 2 brings us to 0, and 0 is the identity under <img src=\"./images/hexagon_symbol.png\" style=\"width:14px;height:14px\">.","orientation_history":[0],"rt":815,"trial_type":"polygon-arrow-feedback","trial_index":0,"trial_index_global":31,"time_elapsed":238197,"internal_chunk_id":"0-0.6-0"},{"nsides":6,"question":"What is the inverse of 0 under <img src=\"./images/hexagon_symbol.png\" style=\"width:14px;height:14px\">? <br /><br /> (Remember, the inverse of an element is the thing which you combine with it to produce the identity.)","response_type":"free","response_choices":[],"correct_response":"0","response":"0","orientation_history":[[0]],"response_history":["0"],"rt":6207,"trial_type":"polygon-arrow-question","trial_index":0,"trial_index_global":32,"time_elapsed":244405,"internal_chunk_id":"0-0.6-0"},{"nsides":6,"feedback":"Correct! The inverse of 0 under <img src=\"./images/hexagon_symbol.png\" style=\"width:14px;height:14px\"> is 0 because 0 steps clockwise on the hexagon from 0 brings us to 0, and 0 is the identity under <img src=\"./images/hexagon_symbol.png\" style=\"width:14px;height:14px\">.","orientation_history":[0],"rt":1231,"trial_type":"polygon-arrow-feedback","trial_index":0,"trial_index_global":33,"time_elapsed":245636,"internal_chunk_id":"0-0.6-0"},{"instructions":"It is also possible to successively apply <img src=\"./images/hexagon_symbol.png\" style=\"width:14px;height:14px\">, and the operation can simply be performed starting with the left-most pair. For example, 2 <img src=\"./images/hexagon_symbol.png\" style=\"width:14px;height:14px\"> 3 <img src=\"./images/hexagon_symbol.png\" style=\"width:14px;height:14px\"> 4 = 5 <img src=\"./images/hexagon_symbol.png\" style=\"width:14px;height:14px\"> 4 = 3 .","rt":19447,"trial_type":"instructions","trial_index":0,"trial_index_global":34,"time_elapsed":265084,"internal_chunk_id":"0-0"},{"nsides":6,"instructions":"We have one last definition to learn today. Let's start with an example. Under our operation <img src=\"./images/hexagon_symbol.png\" style=\"width:14px;height:14px\"> we can make every other number using just 1: 2 = 1 <img src=\"./images/hexagon_symbol.png\" style=\"width:14px;height:14px\"> 1, 3 = 1 <img src=\"./images/hexagon_symbol.png\" style=\"width:14px;height:14px\"> 1 <img src=\"./images/hexagon_symbol.png\" style=\"width:14px;height:14px\"> 1, 4 = 1 <img src=\"./images/hexagon_symbol.png\" style=\"width:14px;height:14px\"> 1 <img src=\"./images/hexagon_symbol.png\" style=\"width:14px;height:14px\"> 1 <img src=\"./images/hexagon_symbol.png\" style=\"width:14px;height:14px\"> 1, 5 = 1 <img src=\"./images/hexagon_symbol.png\" style=\"width:14px;height:14px\"> 1 <img src=\"./images/hexagon_symbol.png\" style=\"width:14px;height:14px\"> 1 <img src=\"./images/hexagon_symbol.png\" style=\"width:14px;height:14px\"> 1 <img src=\"./images/hexagon_symbol.png\" style=\"width:14px;height:14px\"> 1, and 0 = 1 <img src=\"./images/hexagon_symbol.png\" style=\"width:14px;height:14px\"> 1 <img src=\"./images/hexagon_symbol.png\" style=\"width:14px;height:14px\"> 1 <img src=\"./images/hexagon_symbol.png\" style=\"width:14px;height:14px\"> 1 <img src=\"./images/hexagon_symbol.png\" style=\"width:14px;height:14px\"> 1 <img src=\"./images/hexagon_symbol.png\" style=\"width:14px;height:14px\"> 1. Because 1 can make every other element under <img src=\"./images/hexagon_symbol.png\" style=\"width:14px;height:14px\">, we say that 1 is a <i>generator</i> under <img src=\"./images/hexagon_symbol.png\" style=\"width:14px;height:14px\">. <br /><br /> However, 2 is not a generator under <img src=\"./images/hexagon_symbol.png\" style=\"width:14px;height:14px\">, because 4 = 2 <img src=\"./images/hexagon_symbol.png\" s tyle=\"width:14px;height:14px\"> 2, and 0 = 2 <img src=\"./images/hexagon_symbol.png\" style=\"width:14px;height:14px\"> 2 <img src=\"./images/hexagon_symbol.png\" style=\"width:14px;height:14px\"> 2, but there is no way to make 1, 3, or 5 using just 2.","orientation_history":[0],"rt":65404,"trial_type":"polygon-arrow-instructions","trial_index":0,"trial_index_global":35,"time_elapsed":330489,"internal_chunk_id":"0-0"},{"nsides":6,"question":"Now you try! Is 3 a generator under <img src=\"./images/hexagon_symbol.png\" style=\"width:14px;height:14px\">? <br /><br /> (Remember, a generator is an element which can make every other element.)","response_type":"multi","response_choices":["Yes","No"],"correct_response":"No","response":"No","orientation_history":[[0]],"response_history":["No"],"rt":13126,"trial_type":"polygon-arrow-question","trial_index":0,"trial_index_global":36,"time_elapsed":343616,"internal_chunk_id":"0-0.9-0"},{"nsides":6,"feedback":"Correct! 3 is not a generator unde r <img s rc=\"./images/hexagon_symbol.png\" style=\"width:14px;height:14px\">, because 3 = 3, 0 = 3 <img src=\"./images/hexagon_symbol.png\" style=\"width:14px;height:14px\"> 3, but there is no way to make 1, 2, 4, or 5 using just 3.","orientation_history":[0],"rt":1222,"trial_type":"polygon-arrow-feedback","trial_index":0,"trial_index_global":37,"time_elapsed":344840,"internal_chunk_id":"0-0.9-0"},{"nsides":6,"question":"Is 5 a generator under <img src=\"./images/hexagon_symbol.png\" style=\"width:14px;height:14px\">? <br /><br /> (Remember, a generator is an element which can make every other element.)","response_type":"multi","response_choices":["Yes","No"],"correct_response":"Yes","response":"Yes","orientation_history":[[0]],"response_history":["Yes"],"rt":7623,"trial_type":"polygon-arrow-question","trial_index":0,"trial_index_global":38,"time_elapsed":352464,"internal_chunk_id":"0-0.9-0"},{"nsides":6,"feedback":"Correct! 5 is a generator under <img src=\"./images/hexagon_symbol.png\" st yle=\"width:14px;height:14px\">, because 5 = 5, 4 = 5 <img src=\"./images/hexagon_symbol.png\" style=\"width:14px;height:14px\"> 5, 3 = 5 <img src=\"./images/hexagon_symbol.png\" style=\"width:14px;height:14px\"> 5 <img src=\"./images/hexagon_symbol.png\" style=\"width:14px;height:14px\"> 5, 2 = 5 <img src=\"./images/hexagon_symbol.png\" style=\"width:14px;height:14px\"> 5 <img src=\"./images/hexagon_symbol.png\" style=\"width:14px;height:14px\"> 5 <img src=\"./images/hexagon_symbol.png\" style=\"width:14px;height:14px\"> 5, 1 = 5 <img src=\"./images/hexagon_symbol.png\" style=\"width:14px;height:14px\"> 5 <img src=\"./images/hexagon_symbol.png\" style=\"width:14px;height:14px\"> 5 <img src=\"./images/hexagon_symbol.png\" style=\"width:14px;height:14px\"> 5 <img src=\"./images/hexagon_symbol.png\" style=\"width:14px;height:14px\"> 5, and 0 = 5 <img src=\"./images/hexagon_symbol.png\" style=\"width:14px;height:14px\"> 5 <img src=\"./images/hexagon_symbol.png\" style=\"width:14px;height:14px\"> 5 <img src=\"./images/hexagon_symbol.png\" style=\"width:14px;height:14px\"> 5 <img src=\"./images/hexagon_symbol.png\" style=\"width:14px;height:14px\"> 5 <img src=\"./images/hexagon_symbol.png\" style=\"width:14px;height:14px\"> 5, so you can make all of the numbers under <img src=\"./images/hexagon_symbol.png\" style=\"width:14px;height:14px\"> using 5","orientation_history":[0],"rt":1542,"trial_type":"polygon-arrow-feedback","trial_index":0,"trial_index_global":39,"time_elapsed":354007,"internal_chunk_id":"0-0.9-0"},{"nsides":6,"question":"Is 4 a generator under <img src=\"./images/hexagon_symbol.png\" style=\"width:14px;height:14px\">? <br /><br /> (Remember, a generator is an element which can make every other element.)","response_type":"multi","response_choices":["Yes","No"],"correct_response":"No","response":"No","orientation_history":[[0]],"response_history":["No"],"rt":8504,"trial_type":"polygon-arrow-question","trial_index":0,"trial_index_global":40,"time_elapsed":362512,"internal_chunk_id":"0-0.9-0"},{"nsides":6,"feedback":"Correct! 4 is not a generator under <img src=\"./images/hexagon_symbol.png\" style=\"width:14px;height:14px\">, because 4 = 4, 2 = 4 <img src=\"./images/hexagon_symbol.png\" style=\"width:14px;height:14px\"> 4, and 0 = 4 <img src=\"./images/hexagon_symbol.png\" style=\"width:14px;height:14px\"> 4 <img src=\"./images/hexagon_symbol.png\" style=\"width:14px;height:14px\"> 4, but there is no way to make 1, 3, or 5 using just 4.","orientation_history":[0],"rt":927,"trial_type":"polygon-arrow-feedback","trial_index":0,"trial_index_global":41,"time_elapsed":363440,"internal_chunk_id":"0-0.9-0"},{"nsides":6,"question":"Is 0 a generator under <img src=\"./images/hexagon_symbol.png\" style=\"width:14px;height:14px\">? <br /><br /> (Remember, a generator is an element which can make every other element.)","response_type":"multi","response_choices":["Yes","No"],"correct_response":"No","response":"No","orientation_history":[[0]],"response_history":["No"],"rt":4214,"trial_type":"polygon-arrow-question","trial_index":0,"trial_index_global":42,"time_elapsed":367655,"internal_chunk_id":"0-0.9-0"},{"nsides":6,"feedback":"Correct! 0 is not a generator under <img src=\"./images/hexagon_symbol.png\" style=\"width:14px;height:14px\">, because 0 = 0, but there is no way to make 1, 2, 3, 4, or 5 using just 0.","orientation_history":[0],"rt":799,"trial_type":"polygon-arrow-feedback","trial_index":0,"trial_index_global":43,"time_elapsed":368455,"internal_chunk_id":"0-0.9-0"},{"nsides":9,"instructions":"Now we are going to ask you some questions about a new operation, <img src=\"./images/nonagon_symbol.png\" style=\"width:14px;height:14px\">, on the numbers 0, 1, 2, 3, 4, 5, 6, 7, 8. It works exactly like <img src=\"./images/hexagon_symbol.png\" style=\"width:14px;height:14px\">, except now you use the nonagon shown at the right. <br /><br />We'll give you one practice question with feedback to make sure you unde rstand t he new operation. After that, try to complete the remaining questions as accurately as possible.","orientation_history":[0],"rt":8342,"trial_type":"polygon-arrow-instructions","trial_index":0,"trial_index_global":44,"time_elapsed":376798,"internal_chunk_id":"0-0"},{"nsides":9,"question":"Practice: What is 5 <img src=\"./images/nonagon_symbol.png\" style=\"width:14px;height:14px\"> 5?","response_type":"free","response_choices":[],"correct_response":"1","response":"1","orientation_history":[[0]],"response_history":["1"],"rt":10207,"trial_type":"polygon-arrow-question","trial_index":0,"trial_index_global":45,"time_elapsed":387006,"internal_chunk_id":"0-0.11-0"},{"nsides":9,"feedback":"Correct! 5 <img src=\"./images/nonagon_symbol.png\" style=\"width:14px;height:14px\"> 5 = 1 because 5 steps clockwise on the nonagon from 5 brings us to 1","orientation_history":[0],"rt":864,"trial_type":"polygon-arrow-feedback","trial_index":0,"trial_index_global":46,"time_elapsed":387870,"internal_chunk_id":"0-0.11-0"},{"nsides":9,"question":"What is 3 <img src=\"./images/nonagon_symbol.png\" style=\"width:14px;height:14px\"> 3?","response_type":"free","response_choices":[],"correct_response":"6","response":"6","orientation_history":[[0]],"response_history":["6"],"rt":3919,"trial_type":"polygon-arrow-question","trial_index":0,"trial_index_global":47,"time_elapsed":391790,"internal_chunk_id":"0-0.11-0"},{"nsides":9,"question":"What is 7 <img src=\"./images/nonagon_symbol.png\" style=\"width:14px;height:14px\"> 4?","response_type":"free","response_choices":[],"correct_response":"2","response":"2","orientation_history":[[0]],"response_history":["2"],"rt":3544,"trial_type":"polygon-arrow-question","trial_index":0,"trial_index_global":48,"time_elapsed":395334,"internal_chunk_id":"0-0.11-0"},{"nsides":9,"question":"What is 1 <img src=\"./images/nonagon_symbol.png\" style=\"width:14px;height:14px\"> 8?","response_type":"free","response_choices":[],"correct_response":"0","response":"0","orientation_history":[[0]],"response_history":["0"],"rt":6254,"trial_type":"polygon-arrow-question","trial_index":0,"trial_index_global":49,"time_elapsed":401589,"internal_chunk_id":"0-0.11-0"},{"nsides":9,"question":"What is 5 <img src=\"./images/nonagon_symbol.png\" style=\"width:14px;height:14px\"> 4?","response_type":"free","response_choices":[],"correct_response":"0","response":"0","orientation_history":[[0]],"response_history":["9","0"],"rt":6279,"trial_type":"polygon-arrow-question","trial_index":0,"trial_index_global":50,"time_elapsed":407869,"internal_chunk_id":"0-0.11-0"},{"nsides":9,"question":"What is 6 <img src=\"./images/nonagon_symbol.png\" style=\"width:14px;height:14px\"> 6?","response_type":"free","response_choices":[],"correct_response":"3","response":"3","orientation_history":[[0]],"response_history":["3"],"rt":4055,"trial_type":"polygon-arrow-question","trial_index":0,"trial_index_global":51,"time_elapsed":411925,"internal_chunk_id":"0-0.11-0"},{"nsides":9,"question":"What is 4 <img src=\"./images/nonagon_symbol.png\" style=\"width:14px;height:14px\"> 1? Please explain in words how you got your answer.","response_type":"free","response_choices":[],"correct_response":"","response":"5 Because I moved over 1 from 4 to 5","orientation_history":[[0]],"response_history":["5 Because I moved over 1 to","5 Because I moved over 1 t","5 Because I moved over 1 from 4 to 5"],"rt":15270,"trial_type":"polygon-arrow-question","trial_index":0,"trial_index_global":52,"time_elapsed":427196,"internal_chunk_id":"0-0.11-0"},{"nsides":9,"question":"What is 8 <img src=\"./images/nonagon_symbol.png\" style=\"width:14px;height:14px\"> 4? Please explain in words how you got your answer.","response_type":"free","response_choices":[],"correct_response":"","response":"3. I moved 4 spaces right from 8.","orientation_history":[[0]],"response_history":["3. I moved 4 spaces right from 9","3. I moved 4 spaces right from 7","3. I moved 4 spaces right from 8."],"rt":17213,"trial_type":"polygon-arrow-question","trial_index":0,"trial_index_global":53,"time_elapsed":444410,"internal_chunk_id":"0-0.11-0"},{"nsides":9,"question":"What is the identity under <img src=\"./images/nonagon_symbol.png\" style=\"width:14px;height:14px\">? Please explain in words how you got your answer.","response_type":"free","response_choices":[],"correct_response":"0","response":"0 is the identity under 9 because it's where the arrow starts.","orientation_history":[[0]],"response_history":["0 is the identity under 9 because it's where the arrow starts."],"rt":19214,"trial_type":"polygon-arrow-question","trial_index":0,"trial_index_global":54,"time_elapsed":463625,"internal_chunk_id":"0-0.11-0"},{"nsides":9,"question":"What is the inverse of 5 under <img src=\"./images/nonagon_symbol.png\" style=\"width:14px;height:14px\">?","response_type":"free","response_choices":[],"correct_response":"4","response":"4 because 4 spaces over from 5 equals the identity (0).","orientation_history":[[0]],"response_history":["5","4 because 5","4 because 4 spaces over from 6","4 because 4 spaces over from 5 equals the identity (8","4 because 4 spaces over from 5 equals the identity (90","4 because 4 spaces over from 5 equals the identity (9","4 because 4 spaces over from 5 equals the identity (9","4 because 4 spaces over from 5 equals the identity (0)."],"rt":21688,"trial_type":"polygon-arrow-question","trial_index":0,"trial_index_global":55,"time_elapsed":485314,"internal_chunk_id":"0-0.11-0"},{"nsides":9,"question":"What is the inverse of 2 under <img src=\"./images/nonagon_symbol.png\" style=\"width:14px;height:14px\">?","response_type":"free","response_choices":[],"correct_response":"7","response":"7","orientation_history":[[0]],"response_history":["5","7"],"rt":7701,"trial_type":"polygon-arrow-question","trial_index":0,"trial_index_global":56,"time_elapsed":493017,"internal_chunk_id":"0-0.11-0"},{"nsides":9,"question":"What is the inverse of 3 under <img src=\"./images/nonagon_symbol.png\" style=\"width:14px;height:14px\">? Please explain in words how you got your answer.","response_type":"free","response_choices":[],"correct_response":"","response":"6 because it took 6 moves to get to 0.","orientation_history":[[0]],"response_history":["6 because it took 5 ","6 because it took 5","6 because it took 6 sp","6 because it took 6 s","6 because it took 6 moves to get to 0,","6 because it took 6 moves to get to 0."],"rt":22709,"trial_type":"polygon-arrow-question","trial_index":0,"trial_index_global":57,"time_elapsed":515727,"internal_chunk_id":"0-0.11-0"},{"nsides":9,"question":"Is 2 a generator under <img src=\"./images/nonagon_symbol.png\" style=\"width:14px;height:14px\">? Please explain in words how you got your answer.","response_type":"free","response_choices":[],"correct_response":"","response":"Yes because 2 can be used to get to every number.","orientation_history":[[0]],"response_history":["Yes because 2 can be used to get to every number ."],"rt":18295,"trial_type":"polygon-arrow-question","trial_index":0,"trial_index_global":58,"time_elapsed":534023,"internal_chunk_id":"0-0.11-0"},{"nsides":9,"question":"Is 3 a generator under <img src=\"./images/nonagon_symbol.png\" style=\"width:14px;height:14px\">? Please explain in words how you got your answer.","response_type":"free","response_choices":[],"correct_response":"","response":"No because 3 cannot get to every number, only 3, 6, and 0.","orientation_history":[[0]],"response_history":["No because 3 cannot get to a","No because 3 cannot get to every number, only 54","No because 3 cannot get to every number, only 5","No because 3 cannot get to every number, only 4","No because 3 cannot get to every number, only 3, 6, and 0l","No because 3 cannot get to every number, only 3, 6, and 0,","No because 3 cannot get to every number, only 3, 6, and 0."],"rt":21823,"trial_type":"polygon-arrow-question","trial_index":0,"trial_index_global":59,"time_elapsed":555846,"internal_chunk_id":" 0-0.11-0"},{"nsides":9,"question":"Is 5 a generator under <img src=\"./images/nonagon_symbol.png\" style=\"width:14px;height:14px\">? Please explain in words how you got your answer.","response_type":"free","response_choices":[],"correct_response":"","response":"Yes because it can be used to create every number.","orientation_history":[[0]],"response_history":["Yes beva","Yes bev","Yes because it can be used to create every number."],"rt":18966,"trial_type":"polygon-arrow-question","trial_index":0,"trial_index_global":60,"time_elapsed":574813,"internal_chunk_id":"0-0.11-0"},{"nsides":9,"question":"Is 6 a generator under <img src=\"./images/nonagon_symbol.png\" style=\"width:14px;height:14px\">? Please explain in words how you got your answer.","response_type":"free","response_choices":[],"correct_response":"","response":"No. I went around the shape and it can only equal 6, 3, and 0.","orientation_history":[[0]],"response_history":["No. I went around the gr","No. I went aroun d the g","No. I went around the shape and it can only ea","No. I went around the shape and it can only equal 6, 4","No. I went around the shape and it can only equal 6, 3, and -","No. I went around the shape and it can only equal 6, 3, and 0."],"rt":24222,"trial_type":"polygon-arrow-question","trial_index":0,"trial_index_global":61,"time_elapsed":599036,"internal_chunk_id":"0-0.11-0"},{"nsides":"n","instructions":"Now we'd like to ask you some questions about <img src=\"./images/ngon_symbol.png\" style=\"width:14px;height:14px\">, where n could be any positive counting number. For example, n could be 3, and the polygon a triangle, or n could be any other counting number you can think of. If you need to write the operation, you can use \"(n)\", and your answers can include n to stand in for the arbitrary value if necessary. (You can use the polygon at the right to think, but it doesn't necessarily correspond to the real polygon, which is why we've left most of it dashed.)","orientation_history":[0],"rt":14998,"trial_type":"polygon-arrow-instructions","trial_index":0,"trial_index_global":62,"time_elapsed":614036,"internal_chunk_id":"0-0"},{"nsides":"n","question":"What is the formula for the inverse of 1 under <img src=\"./images/ngon_symbol.png\" style=\"width:14px;height:14px\">?","response_type":"free","response_choices":[],"correct_response":"n-1","response":"1-n=0","orientation_history":[[0]],"response_history":["1-n =","1-n ","1-n-","1-n=0"],"rt":82810,"trial_type":"polygon-arrow-question","trial_index":0,"trial_index_global":63,"time_elapsed":696847,"internal_chunk_id":"0-0.13-0"},{"nsides":"n","question":"What is the formula for the inverse of an element x under <img src=\"./images/ngon_symbol.png\" style=\"width:14px;height:14px\">? Please explain in words why your answer is correct.","response_type":"free","response_choices":[],"correct_response":"n-x","response":"n-x=inverse. n minus the number x will bring the circle around to 0 again.","orientation_history":[[0]],"response_history":["1_","1+x-","1+x=n. n is the identity. Adding","n. n is the identity. Adding","n-0. n is the identity. Adding","n-. n is the identity. Adding","n-x. n is the identity. Adding","n-x=. n is the identity. Adding","n-x=i. n is the identity. Adding","n-x=in. n is the identity. Adding","n-x=inv. n is the identity. Adding","n-x=inve. n is the identity. Adding","n-x=inver. n is the identity. Adding","n-x=invers. n is the identity. Adding","n-x=inverse. n is the identity. Adding","n-x=inverse. A number -","n-x=inverse. A n","n-x=inverse. A ","n-x=inverse. A","n-x=inverse. n minus the number x will eu","n-x=inverse. n minus the number x will equal the numbe","n-x=inverse. n minus the number x will equal t","n-x=inverse. n minus the number x will equal ","n-x=inverse. n minus the number x will equal","n-x=inverse. n minus the number x will equa","n-x=inverse. n minus the number x will equ","n-x=inverse. n minus the number x will eq","n-x=inverse. n minus the  number x  will eb","n-x=inverse. n minus the number x will e","n-x=inverse. n minus the number x will bring the circle around to 0 again."],"rt":154401,"trial_type":"polygon-arrow-question","trial_index":0,"trial_index_global":64,"time_elapsed":851249,"internal_chunk_id":"0-0.13-0"},{"nsides":"n","question":"Is there a pattern to which elements are generators? How can you know if an element x is a generator under <img src=\"./images/ngon_symbol.png\" style=\"width:14px;height:14px\"> without seeing whether it can make all the elements?.","response_type":"free","response_choices":[],"correct_response":"","response":"It depends on if n is even or odd. If it is even, then odd numbers will be generators.","orientation_history":[[0]],"response_history":["It depends on if the","It depends on if th","It depends on if t","It depends on if n is even or odd and ","It depends on if n is even or odd and","It depends on if n is even or odd an","It depends on if n is even or odd a","It depends on  if n is  even or odd ","It depends on if n is even or odd. If it is even, then odd numbers will be generators."],"rt":40501,"trial_type":"polygon-arrow-question","trial_index":0,"trial_index_global":65,"time_elapsed":891750,"internal_chunk_id":"0-0.13-0"},{"nsides":"n","question":"True or false: If x is an odd number, it must be a generator under <img src=\"./images/ngon_symbol.png\" style=\"width:14px;height:14px\">.","response_type":"multi","response_choices":["True","False"],"correct_response":"False","response":"False","orientation_history":[[0]],"response_history":["False"],"rt":15790,"trial_type":"polygon-arrow-question","trial_index":0,"trial_index_global":66,"time_elapsed":907541,"internal_chunk_id":"0-0.13-0"},{"nsides":"n","question":"True or false: If x is an even number, it must not be a generator under <img src=\"./images/ngon_symbol.png\" style=\"width:14px;height:14px\">.","response_type":"multi","response_choices":["True","False"],"correct_response":"False","response":"False","orientation_history":[[0]],"response_history":["False"],"rt":3479,"trial_type":"polygon-arrow-question","trial_index":0,"trial_index_global":67,"time_elapsed":911021,"internal_chunk_id":"0-0.13-0"},{"nsides":"n","question":"True or false: If x is not a generator under <img src=\"./images/ngon_symbol.png\" style=\"width:14px;height:14px\">, x must divide n.","response_type":"multi","response_choices":["True","False"],"correct_response":"False","response":"True","orientation_history":[[0]],"response_history":["True"],"rt":9423,"trial_type":"polygon-arrow-question","trial_index":0,"trial_index_global":68,"time_elapsed":920445,"internal_chunk_id":"0-0.13-0"},{"nsides":"n","question":"True or false: If x is not a generator under <img src=\"./images/ngon_symbol.png\" style=\"width:14px;height:14px\">, x must be a multiple of a divisor of n. Please explain in words why your answer is correct.","response_type":"free","response_choices":[],"correct_response":"True","response":"I th ink so.  If x is odd then n must be even. So all the non generators would also be odd.","orientation_history":[[0]],"response_history":["Yes, e","Yes, ","Yes,","Yes","Ye","Y","Not necissarily","I think so. If x is odd then n must be even. So all the non generators would also be odd."],"rt":35909,"trial_type":"polygon-arrow-question","trial_index":0,"trial_index_global":69,"time_elapsed":956355,"internal_chunk_id":"0-0.13-0"},{"nsides":"n","question":"If an element x is a generator under <img src=\"./images/ngon_symbol.png\" style=\"width:14px;height:14px\">, is its inverse a generator under <img src=\"./images/ngon_symbol.png\" style=\"width:14px;height:14px\"> always, sometimes, or never?","response_type":"multi","response_choices":["Always","Sometimes","Never"],"correct_response":"Always","response":"Always","orientation_history":[[0]],"response_history":["Always"],"rt":31909,"trial_type":"polygon-arrow-question","trial_index":0,"trial_index_global":70,"time_elapsed":988265,"internal_chunk_id":"0-0.13-0"},{"nsides":"n","question":"If an element x is not a generator under <img src=\"./images/ngon_symbol.png\" style=\"width:14px;height:14px\">, is x <img src=\"./images/ngon_symbol.png\" style=\"width:14px;height:14px\"> x a generator under <img src=\"./images/ngon_symbol.png\" style=\"width:14px;height:14px\"> always, sometimes, or never?","response_type":"multi","response_choices":["Always","Sometimes","Never"],"correct_response":"Never","response":"Sometimes","orientation_history":[[0]],"response_history":["Sometimes"],"rt":9494,"trial_type":"polygon-arrow-question","trial_index":0,"trial_index_global":71,"time_elapsed":997761,"internal_chunk_id":"0-0.13-0"},{"nsides":"n","question":"If an element x is a generator under <img src=\"./images/ngon_symbol.png\" style=\"width:14px;height:14px\">, is x <img src=\"./images/ngon_symbol.png\" style=\"width:14px;height:14px\"> x a generator under <img src=\"./images/ngon_symbol.png\" style=\"width:14px;height:14px\"> a lways, s ometimes, or never? Please explain in words why your answer is correct.","response_type":"free","response_choices":[],"correct_response":"Sometimes","response":"Yes because moving the generator over the same number as itself will still make the following number a generator always.","orientation_history":[[0]],"response_history":["Yes because moving over that same number would sti","Yes because movin","Yes because moving the genr","Yes because moving the generator over the same number as itself will still make it a ge","Yes because moving the generator over the same number as itself will still make it a g","Yes because moving the generator over the same number as itself will still make it a ","Yes because moving the generator over the same number as itself will still make it a","Yes because moving the generator over the same number as itself will still make it ","Yes because moving the generator over the same number as itself will still make it","Yes because moving the genera tor over  the same number as itself will still make i","Yes because moving the generator over the same number as itself will still make the follor","Yes because moving the generator over the same number as itself will still make the following number a generator always."],"rt":63749,"trial_type":"polygon-arrow-question","trial_index":0,"trial_index_global":72,"time_elapsed":1061510,"internal_chunk_id":"0-0.13-0"},{"instructions":"We would like to ask you some questions about your background. Please press \"Continue\" to continue.","rt":1591,"trial_type":"instructions","trial_index":0,"trial_index_global":73,"time_elapsed":1063102,"internal_chunk_id":"0-0.14-0"},{"question":"What is your age?","response_type":"free","response_choices":[],"correct_response":"","response":"30","response_history":["30"],"rt":2223,"trial_type":"question","trial_index":0,"trial_index_global":74,"time_elapsed":1065326,"internal_chunk_id":"0-0.14-0"},{"question":"What is your level of education?","response_type":"mul ti","response_choices":["Did not graduate high school","High school diploma","Some college, no degree","Associates Degree","Bachelors Degree","Some graduate school, no degree","Masters Degree","Doctorate, M.D., etc."],"correct_response":"","response":"Some college, no degree","response_history":["Some college, no degree"],"rt":2223,"trial_type":"question","trial_index":0,"trial_index_global":75,"time_elapsed":1067551,"internal_chunk_id":"0-0.14-0"},{"question":"What is the most advanced math class you've completed? If you have multiple classes and you're not sure which one is most advanced, please list them.","response_type":"free","response_choices":[],"correct_response":"","response":"Algebra 1","response_history":["Algebra 1"],"rt":4789,"trial_type":"question","trial_index":0,"trial_index_global":76,"time_elapsed":1072341,"internal_chunk_id":"0-0.14-0"},{"question":"How familiar are you with the concept of modular arithmetic?","response_type":"multi","response_choices":[" 1 - neve r heard of it","2 - heard of it but didn't know what it was","3 - seen it used or explained","4 - used it but not often or recently","5 - used it, remember and understand it"],"correct_response":"1","response":"1 - never heard of it","response_history":["1 - never heard of it"],"rt":2999,"trial_type":"question","trial_index":0,"trial_index_global":77,"time_elapsed":1075341,"internal_chunk_id":"0-0.14-0"},{"question":"How familiar are you with the concept of a mathematical group?","response_type":"multi","response_choices":["1 - never heard of it","2 - heard of it but didn't know what it was","3 - seen it used or explained","4 - used it but not often or recently","5 - used it, remember and understand it"],"correct_response":"1","response":"2 - heard of it but didn't know what it was","response_history":["2 - heard of it but didn't know what it was"],"rt":3343,"trial_type":"question","trial_index":0,"trial_index_global":78,"time_elapsed":1078685,"internal_chunk_id":"0-0.14-0"},{"question":"Do you feel you learned something from this HIT?","response_type":"multi","response_choices":["1 - not at all","2 - somewhat","3 - definitely"],"correct_response":"1","response":"2 - somewhat","response_history":["2 - somewhat"],"rt":2799,"trial_type":"question","trial_index":0,"trial_index_global":79,"time_elapsed":1081485,"internal_chunk_id":"0-0.14-0"},{"question":"Do you feel you understood the concepts in this HIT?","response_type":"multi","response_choices":["1 - not at all","2 - somewhat","3 - definitely"],"correct_response":"1","response":"2 - somewhat","response_history":["2 - somewhat"],"rt":3254,"trial_type":"question","trial_index":0,"trial_index_global":80,"time_elapsed":1084741,"internal_chunk_id":"0-0.14-0"},{"question":"Did you enjoy this HIT?","response_type":"multi","response_choices":["1 - not at all","2 - somewhat","3 - definitely"],"correct_response":"1","response":"2 - somewhat","response_history":["2 - somewhat"],"rt":2312,"trial_type":"question","trial_index":0,"trial_index_global":81,"time_elapsed":1087053,"internal_chunk_id":"0-0.14-0"},{"question":"What is your gender?","response_type":"multi","response_choices":["Female","Male","Other"],"correct_response":"","response":"Female","response_history":["Female"],"rt":1951,"trial_type":"question","trial_index":0,"trial_index_global":82,"time_elapsed":1089005,"internal_chunk_id":"0-0.14-0"},{"question":"What is/are your native language(s)? (The languages spoken in your household when you were a child.)","response_type":"free","response_choices":[],"correct_response":"","response":"English","response_history":["English"],"rt":3687,"trial_type":"question","trial_index":0,"trial_index_global":83,"time_elapsed":1092692,"internal_chunk_id":"0-0.14-0"},{"question":"Did you use pen and paper at any point on this HIT?","response_type":"free","response_choices":[],"correct_response":"","response":"I did.","response_history":["I did."],"rt":4696,"trial_type":"question","trial_index":0,"trial_index_global":84,"time_elapsed":1097389,"internal_chunk_id":"0-0.14-0"},{"question":"Do you have any comments on this HIT?","response_type":"free","response_choices":[],"correct_response":"","response":"It started to get confusing towards the end and made my head hurt a little. I think I did well though.","response_history":["It started to get confusing towards the end.","It started to get confusing towards the end and made my head hurt a little. I think I did well though."],"rt":19383,"trial_type":"question","trial_index":0,"trial_index_global":85,"time_elapsed":1116772,"internal_chunk_id":"0-0.14-0"}]