[{"nsides":6,"instructions":"Let's define a new operation <img src=\"./images/hexagon_symbol.png\" style=\"width:14px;height:14px\">. This operation will give us a way of combining two of the numbers 0, 1, 2, 3, 4, 5 to get another one of them back. Consider the hexagon at the right, where I've labeled each point with one of the numbers. To perform <img src=\"./images/hexagon_symbol.png\" style=\"width:14px;height:14px\">, you can use the interactive diagram on the right, or perform the operation in your mind. or perform the operation in your mind. Point the arrow at the first number on the hexagon, then move the arrow the second number of points clockwise around the hexagon. The number the arrow arrives at is your result. (The operation is called <img src=\"./images/hexagon_symbol.png\" style=\"width:14px;height:14px\"> because it uses the hexagon, which has 6 sides.) <br /><br />For example, 3 <img src=\"./images/hexagon_symbol.png\" style=\"width:14px;height:14px\"> 5 = 2,  because  5 steps clockwise from 3 on the hexagon brings us to 2. So 3 <img src=\"./images/hexagon_symbol.png\" style=\"width:14px;height:14px\"> 5 = 2.<br /><br />Similarly, 1 <img src=\"./images/hexagon_symbol.png\" style=\"width:14px;height:14px\"> 4 = 5, because 4 steps clockwise from 1 brings us to 5. <br /><br />Click \"Continue\" when you are ready to move on.","orientation_history":[0],"rt":35319,"trial_type":"polygon-arrow-instructions","trial_index":0,"trial_index_global":1,"time_elapsed":37784,"internal_chunk_id":"0-0"},{"nsides":6,"question":"Now try one on your own! What is 4 <img src=\"./images/hexagon_symbol.png\" style=\"width:14px;height:14px\"> 5? <br /><br /> (Remember, to perform <img src=\"./images/hexagon_symbol.png\" style=\"width:14px;height:14px\">, you can use the interactive diagram on the right, or perform the operation in your mind. Point the arrow at the first number on the hexagon, then move the arrow the second number of points clockwise around the hex agon. Th e number the arrow arrives at is your result.)","response_type":"free","response_choices":[],"correct_response":"3","response":"3","orientation_history":[[0]],"response_history":["3"],"rt":6934,"trial_type":"polygon-arrow-question","trial_index":0,"trial_index_global":2,"time_elapsed":44727,"internal_chunk_id":"0-0.2-0"},{"nsides":6,"feedback":"Correct! 4 <img src=\"./images/hexagon_symbol.png\" style=\"width:14px;height:14px\"> 5 = 3 because 5 steps clockwise on the hexagon from 4 brings us to 3","orientation_history":[0],"rt":932,"trial_type":"polygon-arrow-feedback","trial_index":0,"trial_index_global":3,"time_elapsed":45663,"internal_chunk_id":"0-0.2-0"},{"nsides":6,"question":"What is 3 <img src=\"./images/hexagon_symbol.png\" style=\"width:14px;height:14px\"> 2? <br /><br /> (Remember, to perform <img src=\"./images/hexagon_symbol.png\" style=\"width:14px;height:14px\">, you can use the interactive diagram on the right, or perform the operation in your mind. Point the  arrow at  the first number on the hexagon, then move the arrow the second number of points clockwise around the hexagon. The number the arrow arrives at is your result.)","response_type":"free","response_choices":[],"correct_response":"5","response":"5","orientation_history":[[0]],"response_history":["5"],"rt":3518,"trial_type":"polygon-arrow-question","trial_index":0,"trial_index_global":4,"time_elapsed":49183,"internal_chunk_id":"0-0.2-0"},{"nsides":6,"feedback":"Correct! 3 <img src=\"./images/hexagon_symbol.png\" style=\"width:14px;height:14px\"> 2 = 5 because 2 steps clockwise on the hexagon from 3 brings us to 5","orientation_history":[0],"rt":998,"trial_type":"polygon-arrow-feedback","trial_index":0,"trial_index_global":5,"time_elapsed":50183,"internal_chunk_id":"0-0.2-0"},{"nsides":6,"question":"What is 1 <img src=\"./images/hexagon_symbol.png\" style=\"width:14px;height:14px\"> 5? <br /><br /> (Remember, to perform <img src=\"./images/hexagon_symbol.png\" style=\"width:14px;height:14px\">, you can use the interactive diagram on the right, or perform the operation in your mind. Point the arrow at the first number on the hexagon, then move the arrow the second number of points clockwise around the hexagon. The number the arrow arrives at is your result.)","response_type":"free","response_choices":[],"correct_response":"0","response":"0","orientation_history":[[0]],"response_history":["0"],"rt":3927,"trial_type":"polygon-arrow-question","trial_index":0,"trial_index_global":6,"time_elapsed":54111,"internal_chunk_id":"0-0.2-0"},{"nsides":6,"feedback":"Correct! 1 <img src=\"./images/hexagon_symbol.png\" style=\"width:14px;height:14px\"> 5 = 0 because 5 steps clockwise on the hexagon from 1 brings us to 0","orientation_history":[0],"rt":901,"trial_type":"polygon-arrow-feedback","trial_index":0,"trial_index_global":7,"time_elapsed":55014,"internal_chunk_id":"0-0.2-0"},{"nsides":6,"question":"What is 1 <img src=\"./images/hexagon_symbol.png\" style=\"width:14px;height:14px\"> 1? <br /><br /> (Remember, to perform <img src=\"./images/hexagon_symbol.png\" style=\"width:14px;height:14px\">, you can use the interactive diagram on the right, or perform the operation in your mind. Point the arrow at the first number on the hexagon, then move the arrow the second number of points clockwise around the hexagon. The number the arrow arrives at is your result.)","response_type":"free","response_choices":[],"correct_response":"2","response":"2","orientation_history":[[0]],"response_history":["2"],"rt":2448,"trial_type":"polygon-arrow-question","trial_index":0,"trial_index_global":8,"time_elapsed":57464,"internal_chunk_id":"0-0.2-0"},{"nsides":6,"feedback":"Correct! 1 <img src=\"./images/hexagon_symbol.png\" style=\"width:14px;height:14px\"> 1 = 2 because 1 steps clockwise on the hexagon from 1 brings us to 2","orientation_history":[0],"rt":2805,"trial_type":"polygon-arrow-feedback","trial_index":0,"trial_index_global":9,"time_elapsed":60270,"internal_chunk_id":"0-0.2-0"},{"nsides":6,"question":"What is 3 <img src=\"./images/hexagon_symbol.png\" style=\"width:14px;height:14px\"> 0? <br /><br /> (Remember, to perform <img src=\"./images/hexagon_symbol.png\" style=\"width:14px;height:14px\">, you can use the interactive diagram on the right, or perform the operation in your mind. Point the arrow at the first number on the hexagon, then move the arrow the second number of points clockwise around the hexagon. The number the arrow arrives at is your result.)","response_type":"free","response_choices":[],"correct_response":"3","response":"3","orientation_history":[[0]],"response_history":["3"],"rt":3791,"trial_type":"polygon-arrow-question","trial_index":0,"trial_index_global":10,"time_elapsed":64063,"internal_chunk_id":"0-0.2-0"},{"nsides":6,"feedback":"Correct! 3 <img src=\"./images/hexagon_symbol.png\" style=\"width:14px;height:14px\"> 0 = 3 because 0 steps clockwise on the hexagon from 3 brings us to 3","orientation_history":[0],"rt":3090,"trial_type":"polygon-arrow-feedback","trial_index":0,"trial_index_global":11,"time_elapsed":67156,"internal_chunk_id":"0-0.2-0"},{"nsides":6,"question":"What is 4 <img src=\"./images/hexagon_symbol.png\" style=\"width:14px;height:14px\"> 4? <br /><br /> (Remember, to perform <img src=\"./images/hexagon_symbol.png\" style=\"width:14px;height:14px\">, you can use the interactive diagram on the right, or perform the operation in your mind. Point the arrow at the first number on the hexagon, then move the arrow the second number of points clockwise around the hexagon. The number the arrow arrives at is your result.)","response_type":"free","response_choices":[],"correct_response":"2","response":"2","orientation_history":[[0]],"response_history":["2"],"rt":3430,"trial_type":"polygon-arrow-question","trial_index":0,"trial_index_global":12,"time_elapsed":70591,"internal_chunk_id":"0-0.2-0"},{"nsides":6,"feedback":"Correct! 4 <img src=\"./images/hexagon_symbol.png\" style=\"width:14px;height:14px\"> 4 = 2 because 4 steps clockwise on the hexagon from 4 brings us to 2","orientation_history":[0],"rt":741,"trial_type":"polygon-arrow-feedback","trial_index":0,"trial_index_global":13,"time_elapsed":71335,"internal_chunk_id":"0-0.2-0"},{"nsides":6,"question":"What is 1 <img src=\"./images/hexagon_symbol.png\" style=\"width:14px;height:14px\"> 3? <br /><br /> (Remember, to perform <img src=\"./images/hexagon_symbol.png\" style=\"width:14px;height:14px\">, you can use the interactive diagram on the right, or perform the operation in your mind. Point the arrow at the first number on the hexagon, then move the arrow the second number of points clockwise around the hexagon. The number the arrow arrives at is your result.)","response_type":"free","response_choices":[],"correct_response":"4","response":"4","orientation_history":[[0]],"response_history":["4"],"rt":2911,"trial_type":"polygon-arrow-question","trial_index":0,"trial_index_global":14,"time_elapsed":74247,"internal_chunk_id":"0-0.2-0"},{"nsides":6,"feedback":"Correct! 1 <img src=\"./images/hexagon_symbol.png\" style=\"width:14px;height:14px\"> 3 = 4 because 3 steps clockwise on the hexagon from 1 brings us to 4","orientation_history":[0],"rt":3086,"trial_type":"polygon-arrow-feedback","trial_index":0,"trial_index_global":15,"time_elapsed":77335,"internal_chunk_id":"0-0.2-0"},{"nsides":6,"question":"What is 4 <img src=\"./images/hexagon_symbol.png\" style=\"width:14px;height:14px\"> 3? <br /><br /> (Remember, to perform <img src=\"./images/hexagon_symbol.png\" style=\"width:14px;height:14px\">, you can use the interactive diagram on the right, or perform the operation in your mind. Point the arrow at the first number on the hexagon, then move the arrow the second number of points clockwise around the hexagon. The number the arrow arrives at is your result.)","response_type":"free","response_choices":[],"correct_response":"1","response":"1","orientation_history":[[0]],"response_history":["1"],"rt":3052,"trial_type":"polygon-arrow-question","trial_index":0,"trial_index_global":16,"time_elapsed":80390,"internal_chunk_id":"0-0.2-0"},{"nsides":6,"feedback":"Correct! 4 <img src=\"./images/hexagon_symbol.png\" style=\"width:14px;height:14px\"> 3 = 1 because 3 steps clockwise on the hexagon from 4 brings us to 1","orientation_history":[0],"rt":1071,"trial_type":"polygon-arrow-feedback","trial_index":0,"trial_index_global":17,"time_elapsed":81463,"internal_chunk_id":"0-0.2-0"},{"nsides":6,"question":"What is 0 <img src=\"./images/hexagon_symbol.png\" style=\"width:14px;height:14px\"> 5? <br /><br /> (Remember, to perform <img src=\"./images/hexagon_symbol.png\" style=\"width:14px;height:14px\">, you can use the interactive diagram on the right, or perform the operation in your mind. Point the arrow at the first number on the hexagon, then move the arrow the second number of points clockwise around the hexagon. The number the arrow arrives at is your result.)","response_type":" free","response_choices":[],"correct_response":"5","response":"5","orientation_history":[[0]],"response_history":["5"],"rt":4470,"trial_type":"polygon-arrow-question","trial_index":0,"trial_index_global":18,"time_elapsed":85934,"internal_chunk_id":"0-0.2-0"},{"nsides":6,"feedback":"Correct! 0 <img src=\"./images/hexagon_symbol.png\" style=\"width:14px;height:14px\"> 5 = 5 because 5 steps clockwise on the hexagon from 0 brings us to 5","orientation_history":[0],"rt":887,"trial_type":"polygon-arrow-feedback","trial_index":0,"trial_index_global":19,"time_elapsed":86823,"internal_chunk_id":"0-0.2-0"},{"nsides":6,"question":"What is 2 <img src=\"./images/hexagon_symbol.png\" style=\"width:14px;height:14px\"> 5? <br /><br /> (Remember, to perform <img src=\"./images/hexagon_symbol.png\" style=\"width:14px;height:14px\">, you can use the interactive diagram on the right, or perform the operation in your mind. Point the arrow at the first number on the hexagon, then move the arrow the secon d number  of points clockwise around the hexagon. The number the arrow arrives at is your result.)","response_type":"free","response_choices":[],"correct_response":"1","response":"1","orientation_history":[[0]],"response_history":["1"],"rt":4217,"trial_type":"polygon-arrow-question","trial_index":0,"trial_index_global":20,"time_elapsed":91041,"internal_chunk_id":"0-0.2-0"},{"nsides":6,"feedback":"Correct! 2 <img src=\"./images/hexagon_symbol.png\" style=\"width:14px;height:14px\"> 5 = 1 because 5 steps clockwise on the hexagon from 2 brings us to 1","orientation_history":[0],"rt":1268,"trial_type":"polygon-arrow-feedback","trial_index":0,"trial_index_global":21,"time_elapsed":92312,"internal_chunk_id":"0-0.2-0"},{"nsides":6,"instructions":"Now we're going to discuss a couple special properties of this new operation, <img src=\"./images/hexagon_symbol.png\" style=\"width:14px;height:14px\"> that we've learned. First, notice that the number 0 behaves in a special way under <img src=\"./images/hexagon_symbol.png\" style=\"width:14px;height:14px\">. Whenever we combine 0 with anything else, we get that same thing back. We'll say that 0 is the <i>identity</i> under <img src=\"./images/hexagon_symbol.png\" style=\"width:14px;height:14px\">, because when you combine it with something it gives you that identical thing back.","orientation_history":[0],"rt":29211,"trial_type":"polygon-arrow-instructions","trial_index":0,"trial_index_global":22,"time_elapsed":121527,"internal_chunk_id":"0-0"},{"nsides":6,"instructions":"Now that we know 0 is the identity under <img src=\"./images/hexagon_symbol.png\" style=\"width:14px;height:14px\">, we're going to make a new definition. We'll say that the <i>inverse</i> of a number is the thing that you combine with it to produce the identity under our operation. For example, 5 <img src=\"./images/hexagon_symbol.png\" style=\"width:14px;height:14px\"> 1 = 0, so we say 1 is the inverse of 5 under <img src=\"./images/hexagon_symbol.png\"  style=\"width:14px;height:14px\">, (remember 0 is the identity under <img src=\"./images/hexagon_symbol.png\" style=\"width:14px;height:14px\">). Similarly, 3 is its own inverse under <img src=\"./images/hexagon_symbol.png\" style=\"width:14px;height:14px\">, because 3 <img src=\"./images/hexagon_symbol.png\" style=\"width:14px;height:14px\"> 3 = 0.","orientation_history":[0],"rt":28045,"trial_type":"polygon-arrow-instructions","trial_index":0,"trial_index_global":23,"time_elapsed":149575,"internal_chunk_id":"0-0"},{"nsides":6,"question":"Now you try! What is the inverse of 4 under <img src=\"./images/hexagon_symbol.png\" style=\"width:14px;height:14px\">? <br /><br /> (Remember, the inverse of an element is the thing which you combine with it to produce the identity.)","response_type":"free","response_choices":[],"correct_response":"2","response":"2","orientation_history":[[0]],"response_history":["2"],"rt":13807,"trial_type":"polygon-arrow-question","trial_index":0,"trial_index_global":24,"time_elapsed":163383,"internal_chunk_id":"0-0.6-0"},{"nsides":6,"feedback":"Correct! The inverse of 4 under <img src=\"./images/hexagon_symbol.png\" style=\"width:14px;height:14px\"> is 2 because 2 steps clockwise on the hexagon from 4 brings us to 0, and 0 is the identity under <img src=\"./images/hexagon_symbol.png\" style=\"width:14px;height:14px\">.","orientation_history":[0],"rt":935,"trial_type":"polygon-arrow-feedback","trial_index":0,"trial_index_global":25,"time_elapsed":164319,"internal_chunk_id":"0-0.6-0"},{"nsides":6,"question":"What is the inverse of 1 under <img src=\"./images/hexagon_symbol.png\" style=\"width:14px;height:14px\">? <br /><br /> (Remember, the inverse of an element is the thing which you combine with it to produce the identity.)","response_type":"free","response_choices":[],"correct_response":"5","response":"5","orientation_history":[[0]],"response_history":["5"],"rt":4512,"trial_type":"polygon-arrow-question","trial_index":0,"trial_index_global":26,"time_elapsed":168833,"internal_chunk_id":"0-0.6-0"},{"nsides":6,"feedback":"Correct! The inverse of 1 under <img src=\"./images/hexagon_symbol.png\" style=\"width:14px;height:14px\"> is 5 because 5 steps clockwise on the hexagon from 1 brings us to 0, and 0 is the identity under <img src=\"./images/hexagon_symbol.png\" style=\"width:14px;height:14px\">.","orientation_history":[0],"rt":859,"trial_type":"polygon-arrow-feedback","trial_index":0,"trial_index_global":27,"time_elapsed":169695,"internal_chunk_id":"0-0.6-0"},{"nsides":6,"question":"What is the inverse of 3 under <img src=\"./images/hexagon_symbol.png\" style=\"width:14px;height:14px\">? <br /><br /> (Remember, the inverse of an element is the thing which you combine with it to produce the identity.)","response_type":"free","response_choices":[],"correct_response":"3","response":"3","orientation_history":[[0]],"response_history":["3"],"rt":3623,"trial_type":"polygon-arrow-question","trial_index":0,"trial_index_global":28,"time_elapsed":173319,"internal_chunk_id":"0-0.6-0"},{"nsides":6,"feedback":"Correct! The inverse of 3 under <img src=\"./images/hexagon_symbol.png\" style=\"width:14px;height:14px\"> is 3 because 3 steps clockwise on the hexagon from 3 brings us to 0, and 0 is the identity under <img src=\"./images/hexagon_symbol.png\" style=\"width:14px;height:14px\">.","orientation_history":[0],"rt":773,"trial_type":"polygon-arrow-feedback","trial_index":0,"trial_index_global":29,"time_elapsed":174095,"internal_chunk_id":"0-0.6-0"},{"nsides":6,"question":"What is the inverse of 2 under <img src=\"./images/hexagon_symbol.png\" style=\"width:14px;height:14px\">? <br /><br /> (Remember, the inverse of an element is the thing which you combine with it to produce the identity.)","response_type":"free","response_choices":[],"correct_response":"4","response":"4","orientation_history":[[0]],"response_history":["4"],"rt":4024,"trial_type":"polygon-arrow-question","trial_index":0,"trial_index_global":30,"time_elapsed":178120,"internal_chunk_id":"0-0.6-0"},{"nsides":6,"feedback":"Correct! The inverse of 2 under <img src=\"./images/hexagon_symbol.png\" style=\"width:14px;height:14px\"> is 4 because 4 steps clockwise on the hexagon from 2 brings us to 0, and 0 is the identity under <img src=\"./images/hexagon_symbol.png\" style=\"width:14px;height:14px\">.","orientation_history":[0],"rt":2427,"trial_type":"polygon-arrow-feedback","trial_index":0,"trial_index_global":31,"time_elapsed":180548,"internal_chunk_id":"0-0.6-0"},{"nsides":6,"question":"What is the inverse of 0 under <img src=\"./images/hexagon_symbol.png\" style=\"width:14px;height:14px\">? <br /><br /> (Remember, the inverse of an element is the thing which you combine with it to produce the identity.)","response_type":"free","response_choices":[],"correct_response":"0","response":"0","orientation_history":[[0]],"response_history":["0"],"rt":2529,"trial_type":"polygon-arrow-question","trial_index":0,"trial_index_global":32,"time_elapsed":183079,"internal_chunk_id":"0-0.6-0"},{"nsides":6,"feedback":"Correct! The inverse of 0 under <img src=\"./images/hexagon_symbol.png\" style=\"width:14px;height:14px\"> is 0 because 0 steps clockwise on the hexagon from 0 brings us to 0, and 0 is the identity under <img src=\"./images/hexagon_symbol.png\" style=\"width:14px;height:14px\">.","orientation_history":[0],"rt":2460,"trial_type":"polygon-arrow-feedback","trial_index":0,"trial_index_global":33,"time_elapsed":185541,"internal_chunk_id":"0-0.6-0"},{"instructions":"It is also possible to successively apply <img src=\"./images/hexagon_symbol.png\" style=\"width:14px;height:14px\">, and the operation can simply be performed starting with the left-most pair. For example, 2 <img src=\"./images/hexagon_symbol.png\" style=\"width:14px;height:14px\"> 3 <img src=\"./images/hexagon_symbol.png\" style=\"width:14px;height:14px\"> 4 = 5 <img src=\"./images/hexagon_symbol.png\" style=\"width:14px;height:14px\"> 4 = 3.","rt":21264,"trial_type":"instructions","trial_index":0,"trial_index_global":34,"time_elapsed":206807,"internal_chunk_id":"0-0"},{"nsides":6,"instructions":"We have one last definition to learn today. Let's start with an example. Under our operation <img src=\"./images/hexagon_symbol.png\" style=\"width:14px;height:14px\"> we can make every other number using just 1: 2 = 1 <img src=\"./images/hexagon_symbol.png\" style=\"width:14px;height:14px\"> 1, 3 = 1 <img src=\"./images/hexagon_symbol.png\" style=\"width:14px;height:14px\"> 1 <img src=\"./images/hexagon_symbol.png\" style=\"width:14px;height:14px\"> 1, 4 = 1 <img src=\"./images/hexagon_symbol.png\" style=\"width:14px;height:14px\"> 1 <img src=\"./images/hexagon_symbol.png\" style=\"width:14px;height:14px\"> 1 <img src=\"./images/hexagon_symbol.png\" style=\"width:14px;height:14px\"> 1, 5 = 1 <img src=\"./images/hexagon_symbol.png\" style=\"width:14px;height:14px\"> 1 <img src=\"./images/hexagon_symbol.png\" style=\"width:14px;height:14px\" > 1 <img src=\"./images/hexagon_symbol.png\" style=\"width:14px;height:14px\"> 1 <img src=\"./images/hexagon_symbol.png\" style=\"width:14px;height:14px\"> 1, and 0 = 1 <img src=\"./images/hexagon_symbol.png\" style=\"width:14px;height:14px\"> 1 <img src=\"./images/hexagon_symbol.png\" style=\"width:14px;height:14px\"> 1 <img src=\"./images/hexagon_symbol.png\" style=\"width:14px;height:14px\"> 1 <img src=\"./images/hexagon_symbol.png\" style=\"width:14px;height:14px\"> 1 <img src=\"./images/hexagon_symbol.png\" style=\"width:14px;height:14px\"> 1. Because 1 can make every other element under <img src=\"./images/hexagon_symbol.png\" style=\"width:14px;height:14px\">, we say that 1 is a <i>generator</i> under <img src=\"./images/hexagon_symbol.png\" style=\"width:14px;height:14px\">. <br /><br /> However, 2 is not a generator under <img src=\"./images/hexagon_symbol.png\" style=\"width:14px;height:14px\">, because 4 = 2 <img src=\"./images/hexagon_symbol.png\" style=\"width:14px;height:14px\"> 2, and 0 = 2 <img src=\"./images/hexagon_symbol.png\" style=\"width:14px;height:14px\"> 2 <img src=\"./images/hexagon_symbol.png\" style=\"width:14px;height:14px\"> 2, but there is no way to make 1, 3, or 5 using just 2.","orientation_history":[0],"rt":82350,"trial_type":"polygon-arrow-instructions","trial_index":0,"trial_index_global":35,"time_elapsed":289159,"internal_chunk_id":"0-0"},{"nsides":6,"question":"Now you try! Is 3 a generator under <img src=\"./images/hexagon_symbol.png\" style=\"width:14px;height:14px\">? <br /><br /> (Remember, a generator is an element which can make every other element.)","response_type":"multi","response_choices":["Yes","No"],"correct_response":"No","response":"Yes","orientation_history":[[0]],"response_history":["Yes"],"rt":57790,"trial_type":"polygon-arrow-question","trial_index":0,"trial_index_global":36,"time_elapsed":346951,"internal_chunk_id":"0-0.9-0"},{"nsides":6,"feedback":"Sorry, that's incorrect. 3 is not a generator  under <i mg src=\"./images/hexagon_symbol.png\" style=\"width:14px;height:14px\">, because 3 = 3, 0 = 3 <img src=\"./images/hexagon_symbol.png\" style=\"width:14px;height:14px\"> 3, but there is no way to make 1, 2, 4, or 5 using just 3.","orientation_history":[0],"rt":5975,"trial_type":"polygon-arrow-feedback","trial_index":0,"trial_index_global":37,"time_elapsed":352927,"internal_chunk_id":"0-0.9-0"},{"nsides":6,"question":"Is 5 a generator under <img src=\"./images/hexagon_symbol.png\" style=\"width:14px;height:14px\">? <br /><br /> (Remember, a generator is an element which can make every other element.)","response_type":"multi","response_choices":["Yes","No"],"correct_response":"Yes","response":"Yes","orientation_history":[[0],[0,0,0,0.01844053241222343,0.03683082948588212,0.12761231201676715,0.2784465665991771,0.32141076507910404,0.5378516409110013,0.6072310026472747,0.6773165965407897,0.6909583150546922,0.6909583150546922,0.6909583150546922,0.7169133752315588,0.7428859410719039,0.7811368255551502,0.8182764442965802,0.8182764442965802,0.8182764442965802,0.8182764442965802,0.8433346499589477,0.8433346499589477,0.8787896057612287,0.9272952180016122,0.9272952180016122,0.9272952180016122,0.9272952180016122,0.9272952180016122,0.9272952180016122,0.9512141004995227,0.983573754290374,1.0292658922090834,1.0665744775384587,1.0665744775384587,1.0665744775384587,1.0665744775384587,1.0665744775384587,1.0665744775384587,1.0665744775384587,1.0665744775384587,1.0665744775384587,1.0665744775384587,1.0665744775384587,1.0665744775384587,1.0665744775384587,1.0665744775384587,1.0665744775384587,1.0665744775384587,1.0665744775384587,1.0665744775384587,1.0665744775384587,1.0665744775384587,1.1038415781354773,1.1347914444368148,1.3042044883264332,1.4802244910159543,1.6478493538458536,1.7408990653852037,1.8418792562397983,1.893064479489001,1.9725760899313225,2.0036317726055852,2.0036317726055852,2.0036317726055852,2.0036317726055852,2.0036317726055852,2.0036317726055852,2.0276872818599174,2.0394774503320927,2.0394774503320927,2.0394774503320927,2.0394774503320927,2.0394774503320927,2.0394774503320927,2.0394774503320927,2.0394774503320927,2.0394774503320927,2.0394774503320927,2.0394774503320927,2.0394774503320927,2.0394774503320927,2.0394774503320927,2.0943951023931953],[2.0943951023931953,2.0943951023931953,2.0943951023931953,2.0943951023931953,2.0943951023931953,2.0943951023931953,2.114276492417483,2.1343239316115556,2.1425987268283753,2.201939306803157,2.2445447256964886,2.373383610910483,2.4182523952460535,2.551388722797701,2.6619674900372927,2.6758915370034004,2.7735158831287605,2.807704899780775,2.8225150925351112,2.852515769226639,2.871326864135797,2.871326864135797,2.871326864135797,2.8748504577278546,2.907674485154818,2.9715409959128274,2.9715409959128274,2.9879613004378345,2.9879613004378345,2.9879613004378345,2.9879613004378345,2.9879613004378345,2.9879613004378345,2.9879613004378345,2.9879613004378345,2.9879613004378345,2.9879613004378345,2.9879613004378345,2.9879613004378345,3.019564751326494,3.019564751326494,3.0347635808860742,3.0347635808860742,3.048791508715937,3.048791508715937,3.048791508715937,3.048791508715937,3.048791508715937,3.0772994084112777,3.091372271631833,3.1050700450046986,3.118582736018027,3.132090494191963,3.131730393379297,3.131730393379297,3.131730393379297,3.131730393379297,3.131730393379297,3.131730393379297,3.131730393379297,3.131730393379297,3.131730393379297,3.131730393379297,3.131730393379297,3.131730393379297,3.131730393379297,3.131730393379297,3.131730393379297,3.131730393379297,3.131730393379297,3.131730393379297,3.131730393379297,3.131730393379297,3.131730393379297,3.131730393379297,3.131730393379297,3.145048732127989,3.145048732127989,3.145048732127989,3.145048732127989,3.145048732127989,3.145048732127989,3.145048732127989,3.145048732127989,3.145048732127989,3.145048732127989,3.145048732127989,3.145048732127989,3.145048732127989,3.145048732127989,3.145048732127989,3.145048732127989,3.145048732127989,3.145048732127989,3.145048732127989,3.145048732127989,3.145048732127989,3.145048732127989,3.145048732127989,3.145048732127989,3.145048732127989,3.145048732127989,3.145048732127989,3.145048732127989,3.145048732127989,3.145048732127989,3.145048732127989,3.145048732127989,3.145048732127989,3.145048732127989,3.145048732127989,3.145048732127989,3.145048732127989,3.145048732127989,3.145048732127989,3.145048732127989,3.141592653589793],[3.141592653589793,3.0419240010986313,2.960272879188303,2.8809902618424523,2.8501358591119264,2.7492525093742772,2.67069879460909,2.5625183842220625,2.4917222041778455,2.345442216401244,2.250210132202745,2.174545660192333,2.127920716954292,2.127920716954292,2.101826431639079,2.101826431639079,2.101826431639079,2.101826431639079,2.101826431639079,2.101826431639079,2.101826431639079,2.101826431639079,2.101826431639079,2.101826431639079,2.101826431639079,2.101826431639079,2.101826431639079,2.101826431639079,2.101826431639079,2.101826431639079,2.101826431639079,2.101826431639079,2.101826431639079,2.101826431639079,2.101826431639079,2.101826431639079,2.101826431639079,2.101826431639079,2.101826431639079,2.101826431639079,2.101826431639079,2.101826431639079,2.101826431639079,2.101826431639079,2.101826431639079,2.101826431639079,2.101826431639079,2.101826431639079,2.101826431639079,2.101826431639079,2.101826431639079,2.101826431639079,2.101826431639079,2.101826431639079,2.101826431639079,2.101826431639079,2.101826431639079,2.101826431639079,2.101826431639079,2.101826431639079,2.101826431639079,2.101826431639079,2.101826431639079,2.101826431639079,2.101826431639079,2.101826431639079,2.101826431639079,2.101826431639079,2.101826431639079,2.101826431639079,2.101826431639079,2.101826431639079,2.101826431639079,2.101826431639079,2.101826431639079,2.101826431639079,2.101826431639079,2.101826431639079,2.101826431639079,2.101826431639079,2.101826431639079,2.101826431639079,2.101826431639079,2.101826431639079,2.101826431639079,2.101826431639079,2.101826431639079,2.101826431639079,2.101826431639079,2.101826431639079,2.101826431639079,2.101826431639079,2.101826431639079,2.0943951023931953],[2.0943951023931953,2.0943951023931953,2.1026216078528916,2.1026216078528916,2.1026216078528916,2.111060226107136,2.1286022861645386,2.195304804366532,2.2281689706740004,2.285204163146554,2.4675925117557105,2.4675925117557105,2.5204134231996362,2.5204134231996362,2.5204134231996362,2.5352546340109026,2.5594584726000513,2.5747078351079424,2.693613292320491,2.7004033114255295,2.7991238441450874,2.876980333688057,2.9125341749529747,2.963450641465332,2.963450641465332,2.963450641465332,2.963450641465332,2.963450641465332,2.963450641465332,2.963450641465332,2.963450641465332,2.963450641465332,2.963450641465332,2.981426818524275,2.997380174171878,3.029427109928912,3.062118575826007,3.093853949354465,3.1092373511350604,3.1241477092732404,3.1241477092732404,3.1241477092732404,3.1241477092732404,3.1241477092732404,3.1241477092732404,3.1241477092732404,3.1241477092732404,3.1241477092732404,3.141592653589793],[3.141592653589793,3.141592653589793,3.141592653589793,3.141592653589793,3.1582485257540993,3.1914956936516763,3.3699061930027163,3.472313492794172,3.472313492794172,3.7221041879685295,3.7221041879685295,3.854204910572124,3.9103256932733004,3.921077967064402,3.921077967064402,3.921077967064402,3.921077967064402,3.921077967064402,3.9418941497610787,3.961826504224526,3.991777737579171,4.020982914447196,4.029754619291639,4.0494216347553715,4.0494216347553715,4.0494216347553715,4.0494216347553715,4.0494216347553715,4.0494216347553715,4.057762857401238,4.073899568840159,4.100313981192016,4.100313981192016,4.139853047516591,4.146570953991739,4.146570953991739,4.146570953991739,4.146570953991739,4.146570953991739,4.146570953991739,4.146570953991739,4.146570953991739,4.146570953991739,4.146570953991739,4.1887902047863905],[4.1887902047863905,4.1887902047863905,4.2074637555472,4.2264597432164495,4.285320245090169,4.410614647533443,4.476322511078122,4.634091248674076,4.752581207832214,4.799239926088703,4.978738564292102,5.010052202545381,5.153237362920598,5.208396078848778,5.565973590465085,5.703874188665383,5.841740565522795,5.841740565522795,5.888917303515992,5.894500168336621,5.91170067891109,5.959908912342108,5.96404112022756,6.007492015619092,6.029295413518792,6.114227688268227,6.145256862337803,6.175484287264967,6.190395836403472,-0.07829773171061394,-0.07829773171061394,-0.07829773171061394,-0.07829773171061394,-0.07829773171061394,-0.07829773171061394,-0.07829773171061394,-0.07829773171061394,-0.07829773171061394,-0.07829773171061394,-0.063805992645114,-0.049320337859052765,-0.049320337859052765,-0.049320337859052765,-0.049320337859052765,-0.02039152646250675,-0.02039152646250675,0.008440606965371078,0.008440606965371078,0.008440606965371078,0.008440606965371078,0.008440606965371078,0.008440606965371078,0.008440606965371078,0.008440606965371078,0.008440606965371078,0.008440606965371078,0.008440606965371078,0.008440606965371078,0.008440606965371078,0.008440606965371078,0.008440606965371078,0.008440606965371078,0.008440606965371078,0.008440606965371078,0.008440606965371078,0.008440606965371078,0.008440606965371078,0],[0,0,0,0,0,0,0.015081123454722789,0.04513356231774868,0.06382297476465437,0.07917685450705658,0.09688485294448346,0.09688485294448346,0.11506014216807303,0.11506014216807303,0.11506014216807303,0.11506014216807303,0.11506014216807303,0.11506014216807303,0.11506014216807303,0.11506014216807303,0.11506014216807303,0.11506014216807303,0.11506014216807303,0.13065243981490737,0.14944149308005628,0.14944149308005628,0.1844466433447569,0.1844466433447569,0.1844466433447569,0.1844466433447569,0.1844466433447569,0.20428531012368167,0.2355831260928576,0.24534685162274505,0.2982386504884651,0.36467299919751106,0.36467299919751106,0.36467299919751106,0.36467299919751106,0.36467299919751106,0.36467299919751106,0.36467299919751106,0.36467299919751106,0.36467299919751106,0.40311558921869906,0.40311558921869906,0.5324705420994187,0.5940387475412842,0.6199892048851072,0.685924800518302,0.6992307350936636,0.7248661436153412,0.7248661436153412,0.7375236954493931,0.7498609372342613,0.799725991326108,0.8598428934692646,0.8598428934692646,0.8840028694140347,0.9079769608778253,0.9079769608778253,0.9079769608778253,0.9079769608778253,0.9079769608778253,0.9175669022777267,0.9175669022777267,0.9175669022777267,0.9499044301079465,0.9640977435790017,0.9640977435790017,0.9640977435790017,0.9640977435790017,0.9640977435790017,1.0471975511965976],[1.0471975511965976,1.0471975511965976,1.0681525672855383,1.1120415787498044,1.162745121243402,1.311161274822302,1.3915264968795034,1.5056994080169788,1.5218186566085965,1.5860455493559293,1.6019989050035326,1.6337261612864968,1.6651639361235229,1.680756233770357,1.7116536760788228,1.7269460211465133,1.7571880789581042,1.7869369193972662,1.886651219398325,1.9137661820771092,1.9532193831741487,1.9660391936470494,1.9660391936470494,1.9660391936470494,1.9660391936470494,1.9660391936470494,2.015638193170106,2.0276159819989674,2.0394249568499276,2.0394249568499276,2.0394249568499276,2.0394249568499276,2.0394249568499276,2.0394249568499276,2.0394249568499276,2.0394249568499276,2.0394249568499276,2.0394249568499276,2.0394249568499276,2.0394249568499276,2.0394249568499276,2.0394249568499276,2.0394249568499276,2.0394249568499276,2.0394249568499276,2.0943951023931953]],"response_history":["Yes"],"rt":94319,"trial_type":"polygon-arrow-question","trial_index":0,"trial_index_global":38,"time_elapsed":447247,"internal_chunk_id":"0-0.9-0"},{"nsides":6,"feedback":"Correct! 5 is a generator under <img src=\"./images/hexagon_symbol.png\" style=\"width:14px;height:14px\">, because 5 = 5, 4 = 5 <img src=\"./images/hexagon_symbol.png\" style=\"width:14px;height:14px\"> 5, 3 = 5 <img src=\"./images/hexagon_symbol.png\" style=\"width:14px;height:14px\"> 5 <img src=\"./images/hexagon_symbol.png\" style=\"width:14px;height:14px\"> 5,  2 = 5 < img src=\"./images/hexagon_symbol.png\" style=\"width:14px;height:14px\"> 5 <img src=\"./images/hexagon_symbol.png\" style=\"width:14px;height:14px\"> 5 <img src=\"./images/hexagon_symbol.png\" style=\"width:14px;height:14px\"> 5, 1 = 5 <img src=\"./images/hexagon_symbol.png\" style=\"width:14px;height:14px\"> 5 <img src=\"./images/hexagon_symbol.png\" style=\"width:14px;height:14px\"> 5 <img src=\"./images/hexagon_symbol.png\" style=\"width:14px;height:14px\"> 5 <img src=\"./images/hexagon_symbol.png\" style=\"width:14px;height:14px\"> 5, and 0 = 5 <img src=\"./images/hexagon_symbol.png\" style=\"width:14px;height:14px\"> 5 <img src=\"./images/hexagon_symbol.png\" style=\"width:14px;height:14px\"> 5 <img src=\"./images/hexagon_symbol.png\" style=\"width:14px;height:14px\"> 5 <img src=\"./images/hexagon_symbol.png\" style=\"width:14px;height:14px\"> 5 <img src=\"./images/hexagon_symbol.png\" style=\"width:14px;height:14px\"> 5, so you can make all of the numbers under <img s rc=\"./images/hexagon_symbol.png\" style=\"width:14px;height:14px\"> using 5","orientation_history":[0],"rt":33015,"trial_type":"polygon-arrow-feedback","trial_index":0,"trial_index_global":39,"time_elapsed":480263,"internal_chunk_id":"0-0.9-0"},{"nsides":6,"question":"Is 4 a generator under <img src=\"./images/hexagon_symbol.png\" style=\"width:14px;height:14px\">? <br /><br /> (Remember, a generator is an element which can make every other element.)","response_type":"multi","response_choices":["Yes","No"],"correct_response":"No","response":"No","orientation_history":[[0],[0,0,0.01720898348292188,0.13373767085757815,0.5159168466772832,0.5159168466772832,0.6166076204449717,0.6996918949945214,0.7259342687790201,0.7509290623979403,0.7629766722521263,0.7747340885830103,0.7747340885830103,0.7974071937489432,0.8640800439884249,0.886456776383441,0.9483246222478211,0.9567632405020655,0.9856516748831374,0.9933760853637956,0.9933760853637956,1.0135381404149864,1.0207782183364096,1.0207782183364096,1.0207782183364096,1.0207782183364096,1.0207782183364096,1.0207782183364096,1.0207782183364096,1.0207782183364096,1.0207782183364096,1.0207782183364096,1.0207782183364096,1.0207782183364096,1.0207782183364096,1.0207782183364096,1.0471975511965976]],"response_history":["No"],"rt":16270,"trial_type":"polygon-arrow-question","trial_index":0,"trial_index_global":40,"time_elapsed":496534,"internal_chunk_id":"0-0.9-0"},{"nsides":6,"feedback":"Correct! 4 is not a generator under <img src=\"./images/hexagon_symbol.png\" style=\"width:14px;height:14px\">, because 4 = 4, 2 = 4 <img src=\"./images/hexagon_symbol.png\" style=\"width:14px;height:14px\"> 4, and 0 = 4 <img src=\"./images/hexagon_symbol.png\" style=\"width:14px;height:14px\"> 4 <img src=\"./images/hexagon_symbol.png\" style=\"width:14px;height:14px\"> 4, but there is no way to make 1, 3, or 5 using just 4.","orientation_history":[0],"rt":5223,"trial_type":"polygon-arrow-feedback","trial_index":0,"trial_index_global":41,"time_elapsed":501759,"internal_chunk_id":"0-0.9-0"},{"nsides":6,"question":"Is 0 a generator under <img src=\"./images/hexagon_symbol.png\" style=\"width:14px;height:14px\">? <br /><br /> (Remember, a generator is an element which can make every other element.)","response_type":"multi","response_choices":["Yes","No"],"correct_response":"No","response":"No","orientation_history":[[0]],"response_history":["No"],"rt":7342,"trial_type":"polygon-arrow-question","trial_index":0,"trial_index_global":42,"time_elapsed":509103,"internal_chunk_id":"0-0.9-0"},{"nsides":6,"feedback":"Correct! 0 is not a generator under <img src=\"./images/hexagon_symbol.png\" style=\"width:14px;height:14px\">, because 0 = 0, but there is no way to make 1, 2, 3, 4, or 5 using just 0.","orientation_history":[0],"rt":3976,"trial_type":"polygon-arrow-feedback","trial_index":0,"trial_index_global":43,"time_elapsed":513080,"internal_chunk_id":"0-0.9-0"},{"nsides":9,"instructions":"Now we are going to ask you some question s about  a new operation, <img src=\"./images/nonagon_symbol.png\" style=\"width:14px;height:14px\">, on the numbers 0, 1, 2, 3, 4, 5, 6, 7, 8. It works exactly like <img src=\"./images/hexagon_symbol.png\" style=\"width:14px;height:14px\">, except now you use the nonagon shown at the right. <br /><br />We'll give you one practice question with feedback to make sure you understand the new operation. After that, try to complete the remaining questions as accurately as possible.","orientation_history":[0],"rt":6097,"trial_type":"polygon-arrow-instructions","trial_index":0,"trial_index_global":44,"time_elapsed":519183,"internal_chunk_id":"0-0"},{"nsides":9,"question":"Practice: What is 5 <img src=\"./images/nonagon_symbol.png\" style=\"width:14px;height:14px\"> 5?","response_type":"free","response_choices":[],"correct_response":"1","response":"1","orientation_history":[[0]],"response_history":["1"],"rt":5997,"trial_type":"polygon-arrow-question","trial_index":0,"trial_index_global":45,"time_elapsed":525183,"internal_chunk_id":"0-0.11-0"},{"nsides":9,"feedback":"Correct! 5 <img src=\"./images/nonagon_symbol.png\" style=\"width:14px;height:14px\"> 5 = 1 because 5 steps clockwise on the nonagon from 5 brings us to 1","orientation_history":[0],"rt":1878,"trial_type":"polygon-arrow-feedback","trial_index":0,"trial_index_global":46,"time_elapsed":527063,"internal_chunk_id":"0-0.11-0"},{"nsides":9,"question":"What is 3 <img src=\"./images/nonagon_symbol.png\" style=\"width:14px;height:14px\"> 3?","response_type":"free","response_choices":[],"correct_response":"6","response":"6","orientation_history":[[0]],"response_history":["6"],"rt":5576,"trial_type":"polygon-arrow-question","trial_index":0,"trial_index_global":47,"time_elapsed":532640,"internal_chunk_id":"0-0.11-0"},{"nsides":9,"question":"What is 7 <img src=\"./images/nonagon_symbol.png\" style=\"width:14px;height:14px\"> 4?","response_type":"free","response_choices":[],"correct_response":"2","response":"2","orientation_history":[[0]],"response_history":["2"],"rt":4205,"trial_type":"polygon-arrow-question","trial_index":0,"trial_index_global":48,"time_elapsed":536847,"internal_chunk_id":"0-0.11-0"},{"nsides":9,"question":"What is 1 <img src=\"./images/nonagon_symbol.png\" style=\"width:14px;height:14px\"> 8?","response_type":"free","response_choices":[],"correct_response":"0","response":"0","orientation_history":[[0]],"response_history":["0"],"rt":5704,"trial_type":"polygon-arrow-question","trial_index":0,"trial_index_global":49,"time_elapsed":542552,"internal_chunk_id":"0-0.11-0"},{"nsides":9,"question":"What is 5 <img src=\"./images/nonagon_symbol.png\" style=\"width:14px;height:14px\"> 4?","response_type":"free","response_choices":[],"correct_response":"0","response":"0","orientation_history":[[0]],"response_history":["0"],"rt":3958,"trial_type":"polygon-arrow-question","trial_index":0,"trial_index_global":50,"time_elapsed":546511,"internal_chunk_id":"0-0.11-0"},{"nsides":9,"question":"What  is 6 <im g src=\"./images/nonagon_symbol.png\" style=\"width:14px;height:14px\"> 6?","response_type":"free","response_choices":[],"correct_response":"3","response":"3","orientation_history":[[0]],"response_history":["3"],"rt":4934,"trial_type":"polygon-arrow-question","trial_index":0,"trial_index_global":51,"time_elapsed":551447,"internal_chunk_id":"0-0.11-0"},{"nsides":9,"question":"What is 4 <img src=\"./images/nonagon_symbol.png\" style=\"width:14px;height:14px\"> 1? Please explain in words how you got your answer.","response_type":"free","response_choices":[],"correct_response":"","response":"5 - because you start at 4 and move once","orientation_history":[[0],[0,0,0.18079957330397134,0.9015397902774385,1.5156376108667178,1.9045583155221,2.1180277108032106,2.2020863736269183,2.31947630667639,2.352272941667585,2.454560211824714,2.4766279362143466,2.4766279362143466,2.551416140423301,2.551416140423301,2.5594754823549906,2.5822120884051767,2.5962652172666525,2.6158606987212236,2.6338559871909153,2.6657339826277244,2.6879114919951936,2.709184878019255,2.709184878019255,2.709184878019255,2.709184878019255,2.709184878019255,2.709184878019255,2.709184878019255,2.709184878019255,2.709184878019255,2.709184878019255,2.792526803190927]],"response_history":["5 - because you start at 4 and move once"],"rt":13119,"trial_type":"polygon-arrow-question","trial_index":0,"trial_index_global":52,"time_elapsed":564567,"internal_chunk_id":"0-0.11-0"},{"nsides":9,"question":"What is 8 <img src=\"./images/nonagon_symbol.png\" style=\"width:14px;height:14px\"> 4? Please explain in words how you got your answer.","response_type":"free","response_choices":[],"correct_response":"","response":"3 - because you start at 8 and then move clockwise 4 times","orientation_history":[[0],[0,0,0,0.0015588451909591683,0.0015588451909591683,0.0030580944424594136,-0.05398099176235327,-0.26572559486947434,-0.33467688887254887,-0.33467688887254887,-0.4894832053884244,-0.5572403435634463,-0.5949109565113151,-0.6529851160742695,-0.6639255985866228,-0.6746501981221682,-0.6746501981221682,-0.6746501981221682,-0.6746501981221682,-0.6746501981221682,-0.685162846998673,-0.6954675110998894,-0.6954675110998894,-0.6954675110998894,-0.6954675110998894,-0.6954675110998894,-0.6954675110998894,-0.6954675110998894,-0.6954675110998894,-0.6954675110998894,-0.6954675110998894,-0.6954675110998894,5.585053606381854]],"response_history":["3 - because you start at 8 and then move clockwise 4 times"],"rt":19919,"trial_type":"polygon-arrow-question","trial_index":0,"trial_index_global":53,"time_elapsed":584488,"internal_chunk_id":"0-0.11-0"},{"nsides":9,"question":"What is the identity under <img src=\"./images/nonagon_symbol.png\" style=\"width:14px;height:14px\">? Please explain in words how you got your answer.","response_type":"free","response_choices":[],"correct_response":"0","response":"0  - because whenever it is combined a number you get the same number","orientation_history":[[0]],"response_history":["0  - because whenever it is combined with the same number you get the same number","0  - because whenever it is combined a number you get the same number"],"rt":48036,"trial_type":"polygon-arrow-question","trial_index":0,"trial_index_global":54,"time_elapsed":632527,"internal_chunk_id":"0-0.11-0"},{"nsides":9,"question":"What is the inverse of 5 under <img src=\"./images/nonagon_symbol.png\" style=\"width:14px;height:14px\">?","response_type":"free","response_choices":[],"correct_response":"4","response":"4","orientation_history":[[0]],"response_history":["4"],"rt":5798,"trial_type":"polygon-arrow-question","trial_index":0,"trial_index_global":55,"time_elapsed":638326,"internal_chunk_id":"0-0.11-0"},{"nsides":9,"question":"What is the inverse of 2 under <img src=\"./images/nonagon_symbol.png\" style=\"width:14px;height:14px\">?","response_type":"free","response_choices":[],"correct_response":"7","response":"7","orientation_history":[[0]],"response_history":["4","7"],"rt":6526,"trial_type":"polygon-arrow-question","trial_index":0,"trial_index_global":56,"time_elapsed":644855,"internal_chunk_id":"0-0.11-0"},{"nsides":9,"question":"What is the inverse of 3 under <img src=\"./images/nonagon_symbol.png\" style=\"width:14px;height:14px\">? Please explain in words how you got your answer.","response_type":"free","response_choices":[],"correct_response":"","response":"6 - because you move 6 to get to 0","orientation_history":[[0],[0,0,0,0,0,0]],"response_history":["6 - because you move 6 to get to 0"],"rt":16831,"trial_type":"polygon-arrow-question","trial_index":0,"trial_index_global":57,"time_elapsed":661687,"internal_chunk_id":"0-0.11-0"},{"nsides":9,"question":"Is 2 a generator under <img src=\"./images/nonagon_symbol.png\" style=\"width:14px;height:14px\">? Please explain in words how you got your answer.","response_type":"free","response_choices":[],"correct_response":"","response":"yes because 0 - 2\n1 = 2,2,2,2,2\n2 = 2\n3 = 2,2,2,2\n4 = 2,2,2,2,2,2 ,2,2\n5  = 2,2,2\n6 = 2,2,2,2,2,2,2\n7 = 2,2\n8 = 2,2,2,2,2,2","orientation_history":[[0],[0,0.01491761967702443,0.029821966464530725,0.06068887824674496,0.1292301221230694,0.18572861232980165,0.4575726705269789,0.4575726705269789,0.6937020071375852,0.7401801384885882,0.8472457896771414,0.891097566987466,0.9208453264144979,0.9858315981051013,1.0042170792762648,1.0446413495270221,1.0446413495270221,1.0446413495270221,1.1292445686779355,1.1292445686779355,1.2529871934298402,1.3157010539446385,1.358476501954931,1.3622500689488664,1.384492935415304,1.384492935415304,1.384492935415304,1.384492935415304,1.384492935415304,1.384492935415304,1.384492935415304,1.384492935415304,1.4245566228217237,1.4819330241468713,1.4819330241468713,1.4819330241468713,1.4819330241468713,1.4819330241468713,1.4819330241468713,1.4819330241468713,1.4819330241468713,1.4819330241468713,1.4819330241468713,1.4819330241468713,1.4819330241468713,1.4819330241468713,1.4819330241468713,1.4819330241468713,1.4819330241468713,1.4819330241468713,1.4819330241468713,1.4819330241468713,1.4819330241468713,1.3962634015954636]],"response_history":["yes because 0 - 2\n1 = 2,2,2,2,2\n2 = 2\n3 = 2,2,2,2\n4 = 2,2,2,2,2,2,2,2\n5 = 2,2,2\n6 = 2,2,2,2,2,2,2\n7 = 2,2\n8 = 2,2,2,2,2,2"],"rt":488780,"trial_type":"polygon-arrow-question","trial_index":0,"trial_index_global":58,"time_elapsed":1150468,"internal_chunk_id":"0-0.11-0"},{"nsides":9,"question":"Is 3 a generator under <img src=\"./images/nonagon_symbol.png\" style=\"width:14px;height:14px\">? Please explain in words how you got your answer.","response_type":"free","response_choices":[],"correct_response":"","response":"No because 3 = 3\n6 = 3,3\n0 = 3","orientation_history":[[0],[0,0,0,0,0,0,0],[0,0,0,0,0,0]],"response_history":["No because 3 = 3\n6 = 3,3\n0 = 3"],"rt":137302,"trial_type":"polygon-arrow-question","trial_index":0,"trial_index_global":59,"time_elapsed":1287772,"internal_chunk_id":"0-0.11-0"},{"nsides":9,"question":"Is 5 a generator under <img src =\"./images/nonagon_symbol.png\" style=\"width:14px;height:14px\">? Please explain in words how you got your answer.","response_type":"free","response_choices":[],"correct_response":"","response":"Yes because -\n0 = 5\n1 = 5,5,5,5,5,5,5,5\n2 = 5,5,5,5,5,5\n3 = 5,5,5,5\n4 = 5,5\n5 = 5\n6 = 5,5,5,5,5,5,5\n7 = 5,5,5,5,5\n8 = 5,5,5","orientation_history":[[0]],"response_history":["Yes because -\n0 = 5\n1 = 5,5,5,5,5,5,5,5\n2 = 5,5,5,5,5,5\n3 = 5,5,5,5\n4 = 5,5\n5 = 5\n6 = 5,5,5,5,5,5,5\n7 = 5,5,5,5,5\n8 = 5,5,5"],"rt":326409,"trial_type":"polygon-arrow-question","trial_index":0,"trial_index_global":60,"time_elapsed":1614183,"internal_chunk_id":"0-0.11-0"},{"nsides":9,"question":"Is 6 a generator under <img src=\"./images/nonagon_symbol.png\" style=\"width:14px;height:14px\">? Please explain in words how you got your answer.","response_type":"free","response_choices":[],"correct_response":"","response":"No because - \n0 = 6\n3 = 6,6\n6 = 6\nbut nothing else does","orientation_history":[[0]],"response_history":["No because - \n0 = 6\n3 = 6,6\n6 = 6\nbut nothing else does"],"rt":165909,"trial_type":"polygon-arrow-question","trial_index":0,"trial_index_global":61,"time_elapsed":1780094,"internal_chunk_id":"0-0.11-0"},{"nsides":"n","instructions":"Now we'd like to ask you some questions about <img src=\"./images/ngon_symbol.png\" style=\"width:14px;height:14px\">, where n could be any positive counting number. For example, n could be 3, and the polygon a triangle, or n could be any other counting number you can think of. If you need to write the operation, you can use \"(n)\", and your answers can include n to stand in for the arbitrary value if necessary. (You can use the polygon at the right to think, but it doesn't necessarily correspond to the real polygon, which is why we've left most of it dashed.)","orientation_history":[0],"rt":41190,"trial_type":"polygon-arrow-instructions","trial_index":0,"trial_index_global":62,"time_elapsed":1821287,"internal_chunk_id":"0-0 "},{"nsides":"n","question":"What is the formula for the inverse of 1 under <img src=\"./images/ngon_symbol.png\" style=\"width:14px;height:14px\">?","response_type":"free","response_choices":[],"correct_response":"n-1","response":"1(n)2","orientation_history":[[0]],"response_history":["(n)","1(n)2 ","1(n)2"],"rt":384796,"trial_type":"polygon-arrow-question","trial_index":0,"trial_index_global":63,"time_elapsed":2206086,"internal_chunk_id":"0-0.13-0"},{"nsides":"n","question":"What is the formula for the inverse of an element x under <img src=\"./images/ngon_symbol.png\" style=\"width:14px;height:14px\">? Please explain in words why your answer is correct.","response_type":"free","response_choices":[],"correct_response":"n-x","response":"0(n)0 - I am 90% it is not correct, I am so confused by this section. It was extremely hard to understand","orientation_history":[[0]],"response_history":["0(n)0 - I am 90% s","0(n)0 - I am 90% it is not correct, I ams ","0(n)0 - I am 90% it is not  correct,  I ams","0(n)0 - I am 90% it is not correct, I am so confused by this part. It was hard to understand","0(n)0 - I am 90% it is not correct, I am so confused by this s. It was hard to understand","0(n)0 - I am 90% it is not correct, I am so confused by this se. It was hard to understand","0(n)0 - I am 90% it is not correct, I am so confused by this sec. It was hard to understand","0(n)0 - I am 90% it is not correct, I am so confused by this sect. It was hard to understand","0(n)0 - I am 90% it is not correct, I am so confused by this secti. It was hard to understand","0(n)0 - I am 90% it is not correct, I am so confused by this section. It was hard to understand","0(n)0 - I am 90% it is not correct, I am so confused by this section. It was ehard to understand","0(n)0 - I am 90% it is not correct, I am so confused by this section. It was exhard to understand","0(n)0 - I am 90% it is not correct, I am so confused by this section. It was exthard to understand","0(n)0 - I am 90%  it is no t correct, I am so confused by this section. It was extrhard to understand","0(n)0 - I am 90% it is not correct, I am so confused by this section. It was extrehard to understand","0(n)0 - I am 90% it is not correct, I am so confused by this section. It was extremehard to understand","0(n)0 - I am 90% it is not correct, I am so confused by this section. It was extremelhard to understand","0(n)0 - I am 90% it is not correct, I am so confused by this section. It was extremelyhard to understand","0(n)0 - I am 90% it is not correct, I am so confused by this section. It was extremely hard to understand"],"rt":238766,"trial_type":"polygon-arrow-question","trial_index":0,"trial_index_global":64,"time_elapsed":2444854,"internal_chunk_id":"0-0.13-0"},{"nsides":"n","question":"Is there a pattern to which elements are generators? How can you know if an element x is a generator under <img src=\"./images/ngon_symbol.png\" style=\"width:14px;height:14px\"> without seeing whether it can mak e all th e elements?.","response_type":"free","response_choices":[],"correct_response":"","response":"I don't think you can know without seeing","orientation_history":[[0]],"response_history":["I dpm","I dp","I don't think you can know without seeing"],"rt":45519,"trial_type":"polygon-arrow-question","trial_index":0,"trial_index_global":65,"time_elapsed":2490375,"internal_chunk_id":"0-0.13-0"},{"nsides":"n","question":"True or false: If x is an odd number, it must be a generator under <img src=\"./images/ngon_symbol.png\" style=\"width:14px;height:14px\">.","response_type":"multi","response_choices":["True","False"],"correct_response":"False","response":"False","orientation_history":[[0]],"response_history":["False"],"rt":9115,"trial_type":"polygon-arrow-question","trial_index":0,"trial_index_global":66,"time_elapsed":2499495,"internal_chunk_id":"0-0.13-0"},{"nsides":"n","question":"True or false: If x is an even number, it must not be a generator under <img src=\"./images/ngon_symbol.png\"  style=\"width:14px;height:14px\">.","response_type":"multi","response_choices":["True","False"],"correct_response":"False","response":"True","orientation_history":[[0]],"response_history":["True"],"rt":5095,"trial_type":"polygon-arrow-question","trial_index":0,"trial_index_global":67,"time_elapsed":2504591,"internal_chunk_id":"0-0.13-0"},{"nsides":"n","question":"True or false: If x is not a generator under <img src=\"./images/ngon_symbol.png\" style=\"width:14px;height:14px\">, x must divide n.","response_type":"multi","response_choices":["True","False"],"correct_response":"False","response":"True","orientation_history":[[0]],"response_history":["True"],"rt":5719,"trial_type":"polygon-arrow-question","trial_index":0,"trial_index_global":68,"time_elapsed":2510311,"internal_chunk_id":"0-0.13-0"},{"nsides":"n","question":"True or false: If x is not a generator under <img src=\"./images/ngon_symbol.png\" style=\"width:14px;height:14px\">, x must be a multiple of a divisor of n.  Please  explain in words why your answer is correct.","response_type":"free","response_choices":[],"correct_response":"True","response":"False - I do not understand this n part","orientation_history":[[0]],"response_history":["False - I do not understand the ","False - I do not understand the","False - I do not understand th","False - I do not understand tgu","False - I do not understand tg","False - I do not understand this n part"],"rt":102657,"trial_type":"polygon-arrow-question","trial_index":0,"trial_index_global":69,"time_elapsed":2612969,"internal_chunk_id":"0-0.13-0"},{"nsides":"n","question":"If an element x is a generator under <img src=\"./images/ngon_symbol.png\" style=\"width:14px;height:14px\">, is its inverse a generator under <img src=\"./images/ngon_symbol.png\" style=\"width:14px;height:14px\"> always, sometimes, or never?","response_type":"multi","response_choices":["Always","Sometimes","Never"],"correct_response":"Always","response":"Sometimes","orientation_history":[[0]],"response_history":["Sometimes"],"rt":5315,"trial_type":"polygon-arrow-question","trial_index":0,"trial_index_global":70,"time_elapsed":2618287,"internal_chunk_id":"0-0.13-0"},{"nsides":"n","question":"If an element x is not a generator under <img src=\"./images/ngon_symbol.png\" style=\"width:14px;height:14px\">, is x <img src=\"./images/ngon_symbol.png\" style=\"width:14px;height:14px\"> x a generator under <img src=\"./images/ngon_symbol.png\" style=\"width:14px;height:14px\"> always, sometimes, or never?","response_type":"multi","response_choices":["Always","Sometimes","Never"],"correct_response":"Never","response":"Never","orientation_history":[[0]],"response_history":["Never"],"rt":6592,"trial_type":"polygon-arrow-question","trial_index":0,"trial_index_global":71,"time_elapsed":2624886,"internal_chunk_id":"0-0.13-0"},{"nsides":"n","question":"If an element x is a generator under <img src=\"./images/ngon_symbol.png\" style=\"width:14px;height:14px\">, is x <img src=\"./images/ngon_symbol.png\" style=\"width:14px;height:14px\"> x a generator under <img src=\"./images/ngon_symbol.png\" style=\"width:14px;height:14px\"> always, sometimes, or never? Please explain in words why your answer is correct.","response_type":"free","response_choices":[],"correct_response":"Sometimes","response":"Sometimes - it probably isn't correct as I don't understand this n section","orientation_history":[[0]],"response_history":["Sometimes - it i","Sometimes - it probably isn't correct as I don't understand this n section"],"rt":70192,"trial_type":"polygon-arrow-question","trial_index":0,"trial_index_global":72,"time_elapsed":2695080,"internal_chunk_id":"0-0.13-0"},{"instructions":"We would like to ask you some questions about your background. Please press \"Continue\" to continue.","rt":2549,"trial_type":"instructions","trial_index":0,"trial_index_global":73,"time_elapsed":2697631,"internal_chunk_id":"0-0.14-0"},{"question":"What is your age?","response_type":"free","response_choices":[],"correct_response":"","response":"27","response_history":["27"],"rt":3688,"trial_type":"question","trial_index":0,"trial_index_global":74,"time_elapsed":2701320,"internal_chunk_id":"0-0.14-0"},{"question":"What is your level of education?","response_type":"multi","response_choices":["Did not graduate high school","High school diploma","Some college, no degree","Associates Degree","Bachelors Degree","Some graduate school, no degree","Masters Degree","Doctorate, M.D., etc."],"correct_response":"","response":"High school diploma","response_history":["High school diploma"],"rt":3396,"trial_type":"question","trial_index":0,"trial_index_global":75,"time_elapsed":2704720,"internal_chunk_id":"0-0.14-0"},{"question":"What is the most advanced math class you've completed? If you have multiple classes and you're not sure which one is most advanced, please list them.","response_type":"free","response_choices":[],"correct_response":"","response":"Algebra 1\nStatistics","response_history":["Algebra 1, s","Algebra 1, Statistics ","Algebra 1, Statistics","Algebra 1\nStatistics"],"rt":49650,"trial_type":"question","trial_index":0,"trial_index_global":76,"time_elapsed":2754372,"internal_chunk_id":"0-0.14-0"},{"question":"How familiar are you with the concept of modular arithmetic?","response_type":"multi","response_choices":["1 - never heard of it","2 - heard of it but didn't know what it was","3 - seen it used or explained","4 - used it but not often or recently","5 - used it, remember and understand it"],"correct_response":"1","response":"1 - never heard of it","response_history":["1 - never heard of it"],"rt":6875,"trial_type":"question","trial_index":0,"trial_index_global":77,"time_elapsed":2761248,"internal_chunk_id":"0-0.14-0"},{"question":"How familiar are you with the concept of a mathematical group?","response_type":"multi","response_choices":["1 - never heard of it","2 - heard of it but didn't know what it was","3 - seen it used or explained","4 -  used it  but not often or recently","5 - used it, remember and understand it"],"correct_response":"1","response":"1 - never heard of it","response_history":["1 - never heard of it"],"rt":7701,"trial_type":"question","trial_index":0,"trial_index_global":78,"time_elapsed":2768956,"internal_chunk_id":"0-0.14-0"},{"question":"Do you feel you learned something from this HIT?","response_type":"multi","response_choices":["1 - not at all","2 - somewhat","3 - definitely"],"correct_response":"1","response":"1 - not at all","response_history":["2 - somewhat","1 - not at all"],"rt":9233,"trial_type":"question","trial_index":0,"trial_index_global":79,"time_elapsed":2778193,"internal_chunk_id":"0-0.14-0"},{"question":"Do you feel you understood the concepts in this HIT?","response_type":"multi","response_choices":["1 - not at all","2 - somewhat","3 - definitely"],"correct_response":"1","response":"2 - somewhat","response_history":["2 - somewhat"],"rt":6385,"trial_type":"question","trial_index":0,"trial_index_global":80,"time_elapsed":2784581,"internal_chunk_id":"0-0.14-0"},{"question":"Did you enjoy this HIT?","response_type":"multi","response_choices":["1 - not at all","2 - somewhat","3 - definitely"],"correct_response":"1","response":"1 - not at all","response_history":["1 - not at all"],"rt":4682,"trial_type":"question","trial_index":0,"trial_index_global":81,"time_elapsed":2789268,"internal_chunk_id":"0-0.14-0"},{"question":"What is your gender?","response_type":"multi","response_choices":["Female","Male","Other"],"correct_response":"","response":"Male","response_history":["Male"],"rt":2128,"trial_type":"question","trial_index":0,"trial_index_global":82,"time_elapsed":2791400,"internal_chunk_id":"0-0.14-0"},{"question":"What is/are your native language(s)? (The languages spoken in your household when you were a child.)","response_type":"free","response_choices":[],"correct_response":"","response":"English","response_history":["English"],"rt":41825,"trial_type":"question ","trial_index":0,"trial_index_global":83,"time_elapsed":2833226,"internal_chunk_id":"0-0.14-0"},{"question":"Did you use pen and paper at any point on this HIT?","response_type":"free","response_choices":[],"correct_response":"","response":"No","response_history":["No"],"rt":3795,"trial_type":"question","trial_index":0,"trial_index_global":84,"time_elapsed":2837023,"internal_chunk_id":"0-0.14-0"},{"question":"Do you have any comments on this HIT?","response_type":"free","response_choices":[],"correct_response":"","response":"I think I understood the beginning parts of this HIT but I was left completely confused by the last part with \"n\" - I believe others were as well, I think there should be more explanations on the last part, along with some examples.","response_history":["I think I understood the beginning parts of this HIT but I was left completely cond","I think I understood the beginning parts of this HIT but I was left completely confused by the last part with \"n\" - I be lieve ot hers were as well, I think there should be more explanations on the last part, along with some examples."],"rt":69181,"trial_type":"question","trial_index":0,"trial_index_global":85,"time_elapsed":2906205,"internal_chunk_id":"0-0.14-0"}]