[{"nsides":6,"instructions":"Let's define a new operation <img src=\"./images/hexagon_symbol.png\" style=\"width:14px;height:14px\">. This operation will give us a way of combining two of the numbers 0, 1, 2, 3, 4, 5 to get another one of them back. Consider the hexagon at the right, where I've labeled each point with one of the numbers. To perform <img src=\"./images/hexagon_symbol.png\" style=\"width:14px;height:14px\">, you can use the interactive diagram on the right, or perform the operation in your mind. or perform the operation in your mind. Point the arrow at the first number on the hexagon, then move the arrow the second number of points clockwise around the hexagon. The number the arrow arrives at is your result. (The operation is called <img src=\"./images/hexagon_symbol.png\" style=\"width:14px;height:14px\"> because it uses the hexagon, which has 6 sides.) <br /><br />For example, 3 <img src=\"./images/hexagon_symbol.png\" style=\"width:14px;height:14px\"> 5 = 2,  because  5 steps clockwise from 3 on the hexagon brings us to 2. So 3 <img src=\"./images/hexagon_symbol.png\" style=\"width:14px;height:14px\"> 5 = 2.<br /><br />Similarly, 1 <img src=\"./images/hexagon_symbol.png\" style=\"width:14px;height:14px\"> 4 = 5, because 4 steps clockwise from 1 brings us to 5. <br /><br />Click \"Continue\" when you are ready to move on.","orientation_history":[0,[1.0471975511965976],[1.0471975511965976],[1.0471975511965976],[1.0471975511965976],[2.0943951023931953],[2.0943951023931953],[2.0943951023931953],[2.0943951023931953],[2.0943951023931953],[2.0943951023931953],[2.0943951023931953],[2.0943951023931953]],"rt":142566,"trial_type":"polygon-arrow-instructions","trial_index":0,"trial_index_global":1,"time_elapsed":164046,"internal_chunk_id":"0-0"},{"nsides":6,"question":"Now try one on your own! What is 4 <img src=\"./images/hexagon_symbol.png\" style=\"width:14px;height:14px\"> 5? <br /><br /> (Remember, to perform <img src=\"./images/hexagon_symbol.png\" st yle=\"width:14px;height:14px\">, you can use the interactive diagram on the right, or perform the operation in your mind. Point the arrow at the first number on the hexagon, then move the arrow the second number of points clockwise around the hexagon. The number the arrow arrives at is your result.)","response_type":"free","response_choices":[],"correct_response":"3","response":"3","orientation_history":[[0],[0,0,0,0,0,0,0,0,0,0,0,0,0,0,0,0,0,0,0,0,0,0,0,0,0,0,0,0,0,0,0,0,-0.0759287211491868,-0.10346666818792016,-0.11117859756043824,-0.28487407540767684,-0.28487407540767684,-0.3669871621758105,-0.4445340468321515,-0.45874268205757573,-0.5259142004120498,-0.5259142004120498,-0.54257932412599,-0.54257932412599,-0.5856561080497524,-0.6044471699903706,-0.6493149967751268,-0.6734067202000471,-0.6945516045542943,-0.7875579872528551,-0.8396435364670332,-1.1152457068318284,-1.190636210056505,-1.190636210056505,-1.190636210056505,-1.2299322102295998,-1.3113123638094981,-1.353182232850381,-1.697563861896258,-2.006260327568656,-2.4084981181294864,-2.4729700442341502,-2.5014101166848635,-2.514789190363316,-2.527644826437176,-2.527644826437176,-2.527644826437176,-2.540003144047763,-2.540003144047763,-2.540003144047763,-2.5518888892222362,-2.5518888892222362,-2.5518888892222362,-2.5518888892222362,-2.5518888892222362,-2.5518888892222362,-2.5518888892222362,-2.5518888892222362,-2.5518888892222362,-2.5518888892222362,-2.5518888892222362,-2.532853112676248,-2.532853112676248,-2.5142642560283304,-2.5142642560283304,-2.4961191607664626,-2.4961191607664626,-2.470684333928987,-2.470684333928987,-2.457255389164329,-2.4433227430674416,-2.4433227430674416,-2.395314966283766,-2.395314966283766,-2.3796277000718122,-2.3633542723817094,-2.3633542723817094,-2.3633542723817094,-2.3633542723817094,-2.3633542723817094,-2.345240311770276,-2.345240311770276,-2.345240311770276,-2.345240311770276,-2.310771210770768,-2.293229150713365,-2.27630210977126,-2.241914721469723,-2.241914721469723,-2.241914721469723,-2.241914721469723,-2.2232758699683766,-2.2232758699683766,-2.2076896022480677,-2.2076896022480677,-2.2076896022480677,-2.188576040079413,-2.188576040079413,-2.168874156166604,-2.168874156166604,-2.168874156166604,-2.168874156166604,-2.168874156166604,-2.1541693337887526,-2.1541693337887526,-2.1541693337887526,-2.1541693337887526,-2.1541693337887526,-2.1541693337887526,-2.1541693337887526,-2.1541693337887526,-2.1541693337887526,-2.1541693337887526,-2.1541693337887526,-2.1541693337887526,-2.1541693337887526,-2.1541693337887526,-2.1541693337887526,-2.1541693337887526,-2.1541693337887526,-2.1541693337887526,-2.1541693337887526,-2.1541693337887526,-2.1541693337887526,-2.1541693337887526,-2.1541693337887526,-2.1541693337887526,-2.1541693337887526,-2.1541693337887526,-2.1541693337887526,-2.1541693337887526,-2.1541693337887526,-2.1541693337887526,-2.1541693337887526,-2.1541693337887526,-2.1541693337887526,-2.1541693337887526,-2.1541693337887526,-2.1541693337887526,-2.1541693337887526,-2.1541693337887526,-2.1400359992954847,-2.1400359992954847,-2.1400359992954847,-2.1400359992954847,-2.1400359992954847,-2.1400359992954847,-2.1400359992954847,-2.1400359992954847,-2.1400359992954847,-2.1400359992954847,-2.1400359992954847,-2.1400359992954847,-2.1400359992954847,-2.1400359992954847,-2.1400359992954847,-2.1400359992954847,-2.1400359992954847,-2.1400359992954847,-2.1400359992954847,-2.1400359992954847,-2.1400359992954847,-2.1400359992954847,-2.1400359992954847,-2.1400359992954847,4.1887902047863905],[4.1887902047863905,4.1887902047863905,4.1887902047863905,4.1887902047863905,4.1887902047863905,4.1887902047863905,4.1887902047863905,4.1887902047863905,4.1887902047863905,4.1887902047863905,4.1887902047863905,4.1887902047863905,4.1887902047863905,4.1887902047863905,4.1887902047863905,4.1887902047863905,4.1887902047863905,4.1887902047863905,4.1887902047863905,4.1887902047863905,4.1887902047863905,4.1887902047863905,4.1887902047863905,4.1887902047863905,4.1887902047863905,4.1887902047863905,4.1887902047863905,4.1887902047863905,4.1887902047863905,4.1887902047863905,4.1887902047863905,4.1887902047863905,4.1887902047863905,4.1887902047863905,4.1887902047863905,4.1887902047863905,4.1887902047863905,4.1887902047863905,4.1887902047863905,4.212156185192558,4.235901721208449,4.235901721208449,4.284456877642213,4.284456877642213,4.309223650808392,4.334284366178099,4.334284366178099,4.334284366178099,4.334284366178099,4.334284366178099,4.334284366178099,4.334284366178099,4.334284366178099,4.334284366178099,4.334284366178099,4.334284366178099,4.334284366178099,4.334284366178099,4.334284366178099,4.334284366178099,4.334284366178099,4.334284366178099,4.334284366178099,4.334284366178099,4.334284366178099,4.334284366178099,4.334284366178099,4.334284366178099,4.334284366178099,4.334284366178099,4.334284366178099,4.646657531343535,4.8235524598866535,4.871405000034043,4.894770980440211,4.894770980440211,4.940303038279721,4.940303038279721,4.940303038279721,4.940303038279721,4.9624439417463355,4.9624439417463355,4.9624439417463355,4.9624439417463355,4.9841548155900455,4.9841548155900455,4.9841548155900455,4.9841548155900455,4.9841548155900455,5.005428201614107,5.005428201614107,5.026258521650324,5.026258521650324,5.026258521650324,5.026258521650324,5.026258521650324,5.026258521650324,5.026258521650324,5.026258521650324,5.046641964272427,5.046641964272427,5.1231607764182,5.1231607764182,5.14285434711105,5.162030078596122,5.162030078596122,5.175803312276723,5.175803312276723,5.190112581700562,5.190112581700562,5.190112581700562,5.190112581700562,5.190112581700562,5.190112581700562,5.209086727591655,5.209086727591655,5.209086727591655,5.209086727591655,5.209086727591655,5.209086727591655,5.209086727591655,5.209086727591655,5.209086727591655,5.209086727591655,5.209086727591655,5.209086727591655,5.209086727591655,5.209086727591655,5.209086727591655,5.209086727591655,5.209086727591655,5.209086727591655,5.209086727591655,5.209086727591655,5.209086727591655,5.209086727591655,5.209086727591655,5.209086727591655,5.209086727591655,5.209086727591655,5.209086727591655,5.209086727591655,5.209086727591655,5.209086727591655,5.209086727591655,5.24263500049775,5.292709655011241,5.327178756010749,5.398486220796039,5.41467409681314,5.449373926702104,5.449373926702104,5.449373926702104,5.469075810614913,5.489377589474132,5.510289573273233,5.510289573273233,5.510289573273233,5.510289573273233,5.510289573273233,5.531820565840527,5.531820565840527,5.590173487691668,5.602984654599271,5.6375661631431,5.648929310407391,5.671397438993217,5.704427815653108,5.727419413044723,5.750847677888265,5.774698731167919,5.798956267191499,5.848613195782493,5.8739675968999965,5.8996385698288,5.925597649489286,5.951814178782363,5.951814178782363,5.951814178782363,6.004887048575377,6.004887048575377,6.031672820252967,6.058575419032229,6.058575419032229,6.085556470220933,-0.17060838777138887,-0.17060838777138887,-0.17060838777138887,-0.17060838777138887,-0.17060838777138887,-0.17060838777138887,-0.1435879385841241,-0.1435879385841241,-0.11660688739542069,-0.11660688739542069,-0.08970428861615831,-0.0629185169385682,-0.0629185169385682,-0.0629185169385682,-0.0629185169385682,-0.0629185169385682,-0.0629185169385682,-0.0629185169385682,-0.0629185169385682,-0.0629185169385682,-0.0629185169385682,-0.0629185169385682,-0.0629185169385682,-0.03628694581842051,-0.03628694581842051,-0.03628694581842051,-0.009845647145554137,0.02143962946934108,0.02143962946934108,0.02143962946934108,0.02143962946934108,0.02143962946934108,0.02143962946934108,0.02143962946934108,0.02143962946934108,0.02143962946934108,0.02143962946934108,0.02143962946934108,0.02143962946934108,0.02143962946934108,0.02143962946934108,0.02143962946934108,0.02143962946934108,0.02143962946934108,0.02143962946934108,0.02143962946934108,0.02143962946934108,0.02143962946934108,0.02143962946934108,0.02143962946934108,0.02143962946934108,0.04806055810255305,0.07437027535547514,0.1003384625670316,0.1759304766625529,0.20028290104127344,0.20028290104127344,0.20028290104127344,0.22418273192837268,0.24761594180784008,0.2705710926435918,0.2930392212294173,0.2930392212294173,0.2930392212294173,0.33649011662094797,0.33649011662094797,0.3698111124991952,0.39055502451696333,0.4036964424033128,0.4380809195560228,0.4728927210218955,0.5241298884253143,0.5602983193853281,0.6323318356834619,0.6492588766255674,0.6673728372370011,0.7022851164284507,0.7369849463174144,0.751855949936247,0.7855249871013422,0.7855249871013422,0.7991141845257584,0.8121853354759402,0.8247632884882228,0.8368716775315397,0.8559074540775278,0.8559074540775278,0.8673440514041189,0.8783536592090972,0.9077021731515826,0.9077021731515826,0.9077021731515826,0.9077021731515826,0.9077021731515826,0.9077021731515826,0.9077021731515826,0.9077021731515826,0.9077021731515826,0.9077021731515826,0.9176746440010308,0.9365403300227015,0.9365403300227015,0.9557687291224088,0.9557687291224088,0.9648346638712053,0.9648346638712053,0.9648346638712053,0.9648346638712053,0.9648346638712053,0.9735604458966316,0.9735604458966316,0.9735604458966316,0.9735604458966316,1.0196815619111428,1.0196815619111428,1.065451101706693,1.1047471018797876,1.1247618353274724,1.1247618353274724,1.1247618353274724,1.1247618353274724,1.1247618353274724,1.1247618353274724,1.1247618353274724,1.1247618353274724,1.1247618353274724,1.1247618353274724,1.1247618353274724,1.1247618353274724,1.1247618353274724,1.1247618353274724,1.1247618353274724,1.1247618353274724,1.1247618353274724,1.1247618353274724,1.1247618353274724,1.1247618353274724,1.1247618353274724,1.1247618353274724,1.1247618353274724,1.1247618353274724,1.1247618353274724,1.1247618353274724,1.1247618353274724,1.1247618353274724,1.1247618353274724,1.1247618353274724,1.1247618353274724,1.1247618353274724,1.1247618353274724,1.1247618353274724,1.1247618353274724,1.1247618353274724,1.1247618353274724,1.1502093175626853,1.1502093175626853,1.1502093175626853,1.1552092758966435,1.1749111598094524,1.1749111598094524,1.1947925498337404,1.214839989027813,1.2383505077850847,1.2383505077850847,1.2783455020035905,1.4401666261467978,1.4601160941447155,1.480017924735745,1.480017924735745,1.4998565915146698,1.5196168650418462,1.539283880505579,1.5557827670005373,1.5557827670005373,1.5557827670005373,1.5748601380317473,1.5715670654130154,1.5901762269422235,1.6086531574034955,1.6086531574034955,1.6269867870773935,1.6269867870773935,1.6810256636447105,1.7334322401351803,1.8325957145940457,1.8325957145940457,1.8325957145940457,1.8483329140992972,1.8638355480243138,1.8638355480243138,1.8638355480243138,1.8791015375710938,1.8791015375710938,1.8941293079430888,1.8941293079430888,1.8941293079430888,1.8941293079430888,1.908917763339061,1.908917763339061,1.908917763339061,1.908917763339061,1.908917763339061,1.908917763339061,1.9234662611554834,1.9234662611554834,1.9234662611554834,1.9234662611554834,1.9234662611554834,1.9234662611554834,1.937774585682254,1.937774585682254,1.937774585682254,1.937774585682254,1.937774585682254,1.937774585682254,1.937774585682254,1.937774585682254,1.937774585682254,1.937774585682254,1.9518429215520543,1.9518429215520543,1.9518429215520543,1.9518429215520543,1.9518429215520543,1.9518429215520543,1.9518429215520543,1.9518429215520543,1.9518429215520543,1.9518429215520543,1.9518429215520543,1.9656718271783324,1.9792622083912388,2.005732602628478,2.005732602628478,2.018615933396027,2.018615933396027,2.018615933396027,2.018615933396027,2.018615933396027,2.018615933396027,2.018615933396027,2.018615933396027,2.018615933396027,2.018615933396027,2.018615933396027,2.018615933396027,2.018615933396027,2.018615933396027,2.018615933396027,2.018615933396027,2.018615933396027,2.018615933396027,2.018615933396027,2.018615933396027,2.018615933396027,2.018615933396027,2.031267326494837,2.031267326494837,2.031267326494837,2.031267326494837,2.031267326494837,2.031267326494837,2.031267326494837,2.031267326494837,2.031267326494837,2.031267326494837,2.031267326494837,2.031267326494837,2.031267326494837,2.031267326494837,2.031267326494837,2.031267326494837,2.031267326494837,2.031267326494837,2.031267326494837,2.031267326494837,2.031267326494837,2.031267326494837,2.031267326494837,2.031267326494837,2.031267326494837,2.031267326494837,2.031267326494837,2.031267326494837,2.031267326494837,2.031267326494837,2.031267326494837,2.031267326494837,2.031267326494837,2.031267326494837,2.055883565265044,2.0678535276168626,2.1024448705325147,2.1024448705325147,2.113546037034128,2.1244379397716546,2.1351239284041004,2.155292342502181,2.185586102420956,2.2255647895442463,2.2561756922398297,2.3161521972205836,2.32748315702512,2.3359575304280904,2.3556447240130125,2.3751997181953453,2.382981662270837,2.4064148721503043,2.4064148721503043,2.413859875659009,2.425757110281129,2.43294005799278,2.4518381515718817,2.4518381515718817,2.4638857614260674,2.47054345267111,2.4826503147619987,2.4826503147619987,2.5385764902478662,2.5569852632062045,2.6008134379761874,2.6008134379761874,2.6186755411442624,2.6448284535749513,2.662333398741539,2.662333398741539,2.6705070974458236,2.6834084350379572,2.7000374154799838,2.7129770239544495,2.72600560269154,2.7323749433102034,2.7480840334900285,2.7634880393832013,2.788815955345641,2.801571221928786,2.827245592670078,2.8418369756903843,2.8674595913078598,2.8942123745486263,2.8942123745486263,2.8942123745486263,2.9069692879840603,2.9197470984149856,2.932541675797216,2.945348857296727,2.945348857296727,2.945348857296727,2.945348857296727,2.9581644553455035,2.9581644553455035,2.9709842658184042,2.9709842658184042,2.9709842658184042,2.9709842658184042,2.9709842658184042,2.9709842658184042,2.9836418176524564,2.9836418176524564,2.9836418176524564,2.9836418176524564,2.9836418176524564,2.9836418176524564,2.9962953149612526,2.9962953149612526,2.9962953149612526,2.9962953149612526,2.9962953149612526,2.9962953149612526,2.9962953149612526,2.9962953149612526,3.0089407110067183,3.021573974587789,3.021573974587789,3.021573974587789,3.021573974587789,3.021573974587789,3.021573974587789,3.021573974587789,3.021573974587789,3.021573974587789,3.021573974587789,3.021573974587789,3.021573974587789,3.021573974587789,3.021573974587789,3.021573974587789,3.021573974587789,3.021573974587789,3.021573974587789,3.021573974587789,3.021573974587789,3.021573974587789,3.021573974587789,3.021573974587789,3.021573974587789,3.021573974587789,3.021573974587789,3.021573974587789,3.021573974587789,3.021573974587789,3.021573974587789,3.021573974587789,3.021573974587789,3.021573974587789,3.021573974587789,3.021573974587789,3.021573974587789,3.021573974587789,3.021573974587789,3.021573974587789,3.021573974587789,3.021573974587789,3.021573974587789,3.021573974587789,3.021573974587789,3.021573974587789,3.021573974587789,3.021573974587789,3.0341910977158646,3.0467881031795434,3.045844113529171,3.045844113529171,3.045844113529171,3.045844113529171,3.045844113529171,3.045844113529171,3.045844113529171,3.045844113529171,3.057189839494183,3.057189839494183,3.06823746406997,3.06823746406997,3.0789959905184503,3.0789959905184503,3.0789959905184503,3.0789959905184503,3.0789959905184503,3.0789959905184503,3.0789959905184503,3.0908882511834284,3.0908882511834284,3.0908882511834284,3.0908882511834284,3.0908882511834284,3.0908882511834284,3.0908882511834284,3.0908882511834284,3.0908882511834284,3.0908882511834284,3.0908882511834284,3.0908882511834284,3.0908882511834284,3.0908882511834284,3.0908882511834284,3.0908882511834284,3.0908882511834284,3.0908882511834284,3.0908882511834284,3.0908882511834284,3.0908882511834284,3.0908882511834284,3.0908882511834284,3.0908882511834284,3.0908882511834284,3.0894742249765423,3.0894742249765423,3.0894742249765423,3.141592653589793]],"response_history":["3"],"rt":52290,"trial_type":"polygon-arrow-question","trial_index":0,"trial_index_global":2,"time_elapsed":216340,"internal_chunk_id":"0-0.2-0"},{"nsides":6,"feedback":"Correct! 4 <img src=\"./images/hexagon_symbol.png\"  style=\"width:14px;height:14px\"> 5 = 3 because 5 steps clockwise on the hexagon from 4 brings us to 3","orientation_history":[0],"rt":2790,"trial_type":"polygon-arrow-feedback","trial_index":0,"trial_index_global":3,"time_elapsed":219138,"internal_chunk_id":"0-0.2-0"},{"nsides":6,"question":"What is 3 <img src=\"./images/hexagon_symbol.png\" style=\"width:14px;height:14px\"> 2? <br /><br /> (Remember, to perform <img src=\"./images/hexagon_symbol.png\" style=\"width:14px;height:14px\">, you can use the interactive diagram on the right, or perform the operation in your mind. Point the arrow at the first number on the hexagon, then move the arrow the second number of points clockwise around the hexagon. The number the arrow arrives at is your result.)","response_type":"free","response_choices":[],"correct_response":"5","response":"5","orientation_history":[[0],[0,0,0,0,0,0,0,0,0,0,0,0,0,0,0,0,0,0,0,0,0,0,0,0,0,0,0,0,0,0,0,0.015581758721313399,-6.23308317960478,-6.208410890124547,-6.19835536313339,-6.133829680177468,-5.662935821196764,-3.431096325551181,-3.1960841098305237,-2.944197093739912,-2.9527438941725235,-2.8880313288067474,-2.875602590285637,-2.875602590285637,-2.875602590285637,-2.875602590285637,-2.875602590285637,-2.875602590285637,-2.875602590285637,-2.875602590285637,-2.875602590285637,-2.875602590285637,-2.875602590285637,-2.875602590285637,-2.875602590285637,-2.875602590285637,-2.875602590285637,-2.875602590285637,-2.875602590285637,-2.875602590285637,-2.875602590285637,-2.875602590285637,-2.875602590285637,-2.875602590285637,-2.875602590285637,-2.875602590285637,-2.875602590285637,-2.875602590285637,-2.875602590285637,-2.875602590285637,-2.875602590285637,-2.8808491318626763,-2.9075834268342513,-2.9294922713620606,-2.9767942388578645,-2.9796432339986265,-3.0010751802940825,-3.0226074324785532,-3.0442206078201526,-3.0456024586218513,-3.0456024586218513,-3.0456024586218513,-3.0456024586218513,-3.0456024586218513,-3.0456024586218513,-3.046926961158581,-3.046926961158581,-3.046926961158581,-3.046926961158581,-3.046926961158581,-3.0481976085052374,-3.0481976085052374,-3.0685520882866735,-3.089348437181388,-3.0897404402973336,-3.1093457711545387,-3.128574170254246,-3.128574170254246,-3.128574170254246,-3.128574170254246,-3.128574170254246,-3.128574170254246,-3.128574170254246,-3.128574170254246,-3.128574170254246,-3.128574170254246,-3.128574170254246,-3.128211457176209,-3.147063723621403,-3.145693392173559,-3.145693392173559,-3.1450448838338625,-3.1450448838338625,-3.1450448838338625,-3.1450448838338625,-3.1450448838338625,-3.1450448838338625,-3.1450448838338625,-3.1450448838338625,-3.1450448838338625,-3.1450448838338625,-3.1450448838338625,-3.1450448838338625,-3.1450448838338625,-3.1450448838338625,-3.1450448838338625,-3.1450448838338625,-3.1450448838338625,-3.1450448838338625,-3.1450448838338625,-3.1450448838338625,-3.1450448838338625,-3.1450448838338625,-3.1450448838338625,-3.1450448838338625,-3.1450448838338625,-3.1450448838338625,-3.1450448838338625,-3.1450448838338625,-3.1450448838338625,-3.091490526014986,-3.091490526014986,-2.8310461121494273,-2.8310461121494273,-2.543861882999714,-2.4270292162797906,-2.312959039074357,-2.2702358784538577,-2.2602042952244035,-2.2602042952244035,-2.2602042952244035,-2.2602042952244035,-2.2602042952244035,-2.2602042952244035,-2.2602042952244035,-2.2602042952244035,-2.2503963172685504,-2.240806375868649,-2.240806375868649,-2.211027947004488,-2.211027947004488,-2.1848516662750193,-2.1848516662750193,-2.1765104436291525,-2.1765104436291525,-2.1765104436291525,-2.1765104436291525,-2.1652923455706894,-2.1538889861650343,-2.1538889861650343,-2.1538889861650343,-2.1538889861650343,-2.1538889861650343,-2.1538889861650343,-2.1538889861650343,-2.1538889861650343,-2.1538889861650343,-2.1422987777570786,-2.1422987777570786,-2.1185522185673236,-2.094043179625185,-1.8551186979720455,-1.7064453676100166,-1.3920652659660817,-1.2859951685815822,-1.1692157866860171,-1.1692157866860171,-1.1414699991346602,-1.1278324812449707,-1.1010396722421891,-1.074901835358836,-1.074901835358836,-1.0620820248859353,-1.0620820248859353,-1.049429638848114,-1.036945390170522,-1.0246297633611086,-1.0246297633611086,-1.0246297633611086,-1.0124830253628794,-1.0124830253628794,-1.0124830253628794,-1.0124830253628794,-1.0124830253628794,-1.0124830253628794,-1.0124830253628794,-1.0124830253628794,-1.0124830253628794,-1.0124830253628794,-1.0124830253628794,-1.0124830253628794,-1.0124830253628794,-1.0124830253628794,-1.0124830253628794,-1.0124830253628794,-1.0124830253628794,-1.0124830253628794,-1.0124830253628794,-0.9886962616830575,-0.9770557810925435,-0.9770557810925435,-0.9770557810925435,-0.9770557810925435,5.235987755982988]],"response_history":["5"],"rt":15429,"trial_type":"polygon-arrow-question","trial_index":0,"trial_index_global":4,"time_elapsed":234570,"internal_chunk_id":"0-0.2-0"},{"nsides":6,"feedback":"Correct! 3 <img src=\"./images/hexagon_symbol.png\" style=\"width:14px;height:14px\"> 2 = 5 because 2 steps clockwise on the hexagon from 3 brings us to 5","orientation_history":[0],"rt":2757,"trial_type":"polygon-arrow-feedback","trial_index":0,"trial_index_global":5,"time_elapsed":237330,"internal_chunk_id":"0-0.2-0"},{"nsides":6,"question":"What is 1 <img src=\"./images/hexagon_symbol.png\" style=\"width:14px;height:14px\"> 5? <br /><br /> (Remember, to perform <img src=\"./images/hexagon_symbol.png\" style=\"width:14px;height:14px\">, you can use the interactive diagram on the right, or perform the operation in your mind. Point the arrow at the first number on the hexagon, then move the arrow the second number of points clockwise around the hexagon. The number the arrow arrives at is your result.)","response_type":"free","response_choices":[],"correct_response":"0","response":"0","orientation_history":[[0],[0,0,0,0,0,0,0,0,0,0,0,0,0,0,0,0,0.0004657661516940248,0.0009460735114930063,0.016546952997194442,0.03212505007718214,0.03311319204805674,0.0489053110506763,0.06618001526381168,0.08396056804266427,0.10225777237789879,0.118596187690722,0.14641509615126136,0.14955973987370297,0.16710179993110552,0.22338033621986741,0.3080298625904845,0.3080298625904845,0.3080298625904845,0.3080298625904845,0.3080298625904845,0.3080298625904845,0.3080298625904845,0.3080298625904845,0.3080298625904845,0.3080298625904845,0.3080298625904845,0.3080298625904845,0.3080298625904845,0.3080298625904845,0.3080298625904845,0.3080298625904845,0.3080298625904845,0.3080298625904845,0.3080298625904845,0.3080298625904845,0.3080298625904845,0.3080298625904845,0.4486198386288107,0.5899557260640462,0.7668685666284318,0.8868666699565996,0.9338974582815945,0.9711893757754595,0.9711893757754595,0.9855068395375348,0.9855068395375348,1.02347061438458,1.02347061438458,1.0465611979565401,1.054470637536025,1.0621501354974638,1.0621501354974638,1.0768549578753153,1.0768549578753153,1.0768549578753153,1.0768549578753153,1.0768549578753153,1.0768549578753153,1.0768549578753153,1.0768549578753153,1.0768549578753153,1.0768549578753153,1.0768549578753153,1.0768549578753153,1.0768549578753153,1.0768549578753153,1.0768549578753153,1.0768549578753153,1.0768549578753153,1.0768549578753153,1.0768549578753153,1.0768549578753153,1.0768549578753153,1.0768549578753153,1.0768549578753153,1.0768549578753153,1.0768549578753153,1.1113240588748232,1.1113240588748232,1.1113240588748232,1.1113240588748232,1.1113240588748232,1.1113240588748232,1.1113240588748232,1.1113240588748232,1.1113240588748232,1.1113240588748232,1.1113240588748232,1.1113240588748232,1.1113240588748232,1.1113240588748232,1.1113240588748232,1.1113240588748232,1.1113240588748232,1.1113240588748232,1.1113240588748232,1.1113240588748232,1.1113240588748232,1.1113240588748232,1.1113240588748232,1.1113240588748232,1.1113240588748232,1.1113240588748232,1.1599961897637565,1.2038277474893941,1.2038277474893941,1.2338262474744386,1.2490457723982542,1.264405547480685,1.311270633599126,1.3431070070262408,1.4408339143849593,1.4913618324601012,1.5241105925681162,1.5405025668761214,1.5727494493113754,1.604929406301675,1.604929406301675,1.6688257945619163,1.6846569539892757,1.7316870264731359,1.7625844687816017,1.7930568426541809,1.8230575193457088,1.8230575193457088,1.8471788862778042,1.8622531212727635,1.867329219806062,1.8878885297944412,1.9088514882850844,1.9302111382189873,1.9519588102898238,1.9740840508278834,1.9892259108868424,2.0265344962162173,2.0492323911916746,2.0492323911916746,2.063780889008097,2.063780889008097,2.0780892135348674,2.0780892135348674,2.0780892135348674,2.0780892135348674,2.0780892135348674,2.0780892135348674,2.0780892135348674,2.0780892135348674,2.0780892135348674,2.0780892135348674,2.0780892135348674,2.0780892135348674,2.0780892135348674,2.0780892135348674,2.0780892135348674,2.0780892135348674,2.0780892135348674,2.0780892135348674,2.0780892135348674,2.0780892135348674,2.0780892135348674,2.0780892135348674,2.0780892135348674,2.0780892135348674,2.0780892135348674,2.0780892135348674,2.100862443780964,2.114807397050823,2.15122853126533,2.1741355749458666,2.1941384637956434,2.2309490239308136,2.3138531204193837,2.350286139446288,2.6106311687962815,2.654950425113909,2.676628678521773,2.676628678521773,2.69796848913169,2.718958749455502,2.73376869824748,2.7543869573193476,2.7543869573193476,2.759854099667466,2.7895483392743756,2.819842099193151,2.8701812152195494,2.885697649834994,2.9538820209444276,2.9538820209444276,2.984990776607778,3.000641672497122,3.016347187328262,3.016347187328262,3.032099822701566,3.032099822701566,3.0478919417041856,3.0478919417041856,3.063715790394035,3.0795635201425604,3.0795635201425604,3.0795635201425604,3.0795635201425604,3.0800590602407496,3.095675165050541,3.095675165050541,3.1411407783381273,3.1411407783381273,3.1411407783381273,3.1411407783381273,3.1411407783381273,3.1411407783381273,3.1411407783381273,3.1411407783381273,3.1411407783381273,3.1411407783381273,3.1411407783381273,3.1411407783381273,3.1411407783381273,3.1411407783381273,3.1411407783381273,3.1411407783381273,3.1411407783381273,3.1411407783381273,3.1411407783381273,3.1411407783381273,3.1411407783381273,3.1411407783381273,3.1411407783381273,3.1411407783381273,3.1411407783381273,3.274026268311399,3.5322894679232633,3.6337023253875467,3.7241190958362598,3.734498223605084,3.7447247766401626,3.754800002464302,3.76472523485178,3.76472523485178,3.76472523485178,3.76472523485178,3.774501886377111,3.7841314412647815,3.819925165798688,3.819925165798688,3.9206924506603364,3.9366757441917564,3.9526386283020276,3.985890669660199,4.027100364957599,4.045587004677963,4.071369256076705,4.081021465968165,4.081021465968165,4.081021465968165,4.081021465968165,4.0908031550987936,4.0908031550987936,4.107206619195822,4.107206619195822,4.123495905122352,4.123495905122352,4.129676296145568,4.129676296145568,4.129676296145568,4.129676296145568,4.129676296145568,4.1357351960169355,4.147500897024919,4.147500897024919,4.147500897024919,4.147500897024919,4.147500897024919,4.147500897024919,4.147500897024919,4.147500897024919,4.147500897024919,4.147500897024919,4.147500897024919,4.147500897024919,4.147500897024919,4.147500897024919,4.147500897024919,4.147500897024919,4.147500897024919,4.177233848806788,4.376216349061062,4.499926909993151,4.682095220465914,4.747790022018378,4.851508264355532,4.939418935437002,5.102758569598949,5.124469443442659,5.1403952868575695,5.1403952868575695,5.1564951032578215,5.1564951032578215,5.1564951032578215,5.16712994231845,5.177646893951742,5.177646893951742,5.18804561973699,5.18804561973699,5.218530678070645,5.238261450586368,5.2575198710011986,5.282636351844921,5.291901221913182,5.2983921578619855,5.2983921578619855,5.3050042746461585,5.3050042746461585,5.3050042746461585,5.3050042746461585,5.302344706448736,5.302344706448736,5.302344706448736,5.302344706448736,5.302344706448736,5.302344706448736,5.302344706448736,5.302344706448736,5.302344706448736,5.302344706448736,5.302344706448736,5.302344706448736,5.302344706448736,5.302344706448736,5.302344706448736,5.302344706448736,5.520076445474304,5.601814825816331,5.876930593389505,6.01365994729715,6.138451241990747,0.03483140341561075,0.09535657069107106,0.12630811706324008,0.13656140048101384,0.14677939486010017,0.15696015981470768,0.15696015981470768,0.15505419007691956,0.15505419007691956,0.15505419007691956,0.15505419007691956,0.15505419007691956,0.15505419007691956,0.16509779459779783,0.16509779459779783,0.16509779459779783,0.17510162927099215,0.17510162927099215,0.17510162927099215,0.17510162927099215,0.17510162927099215,0.17510162927099215,0.17510162927099215,0.17510162927099215,0.17510162927099215,0.17510162927099215,0.17510162927099215,0.17510162927099215,0.17510162927099215,0.17510162927099215,0.17510162927099215,0.17510162927099215,0.16509779459779783,0.15505419007691956,0.13485491749585155,0.1160215280862551,0.07682156343345659,0.013157135472755543,-0.008319275622112654,-0.019305191236041574,-0.030293759918775143,6.241902978578077,6.241902978578077,6.241902978578077,6.241902978578077,6.241902978578077,6.241902978578077,6.241902978578077,6.241902978578077,6.241902978578077,6.241902978578077,6.241902978578077,6.241902978578077,6.241902978578077,6.241902978578077,6.241902978578077,6.241902978578077,6.241902978578077,6.241902978578077,6.241902978578077,6.241902978578077,6.241902978578077,6.241902978578077,6.241902978578077,6.241902978578077,6.241902978578077,6.241902978578077,6.283185307179586]],"response_history":["0"],"rt":22680,"trial_type":"polygon-arrow-question","trial_index":0,"trial_index_global":6,"time_elapsed":260012,"internal_chunk_id":"0-0.2-0"},{"nsides":6,"feedback":"Correct! 1 <img src=\"./images/hexagon_symbol.png\" style=\"width:14px;height:14px\"> 5 = 0 because 5 steps clockwise on the hexagon from 1 brings us to 0","orientation_history":[0],"rt":2177,"trial_type":"polygon-arrow-feedback","trial_index":0,"trial_index_global":7,"time_elapsed":262192,"internal_chunk_id":"0-0.2-0"},{"nsides":6,"question":"What is 1 <img src=\"./images/hexagon_symbol.png\" style=\"width:14px;height:14px\"> 1? <br /><br /> (Remember, to perform <img src=\"./images/hexagon_symbol.png\" style=\"width:14px;height:14px\">, you can use the interactive diagram on the right, or perform the operation in your mind. Point the arrow at the first number on the hexagon, then move the arrow the second number of points clockwise around the hexagon. The number the arrow arrives at is your result.)","response_type":"free","response_choices":[],"correct_response":"2","response":"2","orientation_history":[[0]],"response_history":["2"],"rt":6779,"trial_type":"polygon-arrow-question","trial_index":0,"trial_index_global":8,"time_elapsed":268973,"internal_chunk_id":"0-0.2-0"},{"nsides":6,"feedback":"Correct! 1 <img src=\"./images/hexagon_symbol.png\" style=\"width:14px;height:14px\"> 1 = 2 because 1 steps clockwise on the hexagon from 1 brings us to 2","orientation_history":[0],"rt":1467,"trial_type":"polygon -arrow-feedback","trial_index":0,"trial_index_global":9,"time_elapsed":270443,"internal_chunk_id":"0-0.2-0"},{"nsides":6,"question":"What is 3 <img src=\"./images/hexagon_symbol.png\" style=\"width:14px;height:14px\"> 0? <br /><br /> (Remember, to perform <img src=\"./images/hexagon_symbol.png\" style=\"width:14px;height:14px\">, you can use the interactive diagram on the right, or perform the operation in your mind. Point the arrow at the first number on the hexagon, then move the arrow the second number of points clockwise around the hexagon. The number the arrow arrives at is your result.)","response_type":"free","response_choices":[],"correct_response":"3","response":"3","orientation_history":[[0]],"response_history":["3"],"rt":4548,"trial_type":"polygon-arrow-question","trial_index":0,"trial_index_global":10,"time_elapsed":274992,"internal_chunk_id":"0-0.2-0"},{"nsides":6,"feedback":"Correct! 3 <img src=\"./images/hexagon_symbol.png\" style=\"width:14px;height:14px\"> 0  = 3 bec ause 0 steps clockwise on the hexagon from 3 brings us to 3","orientation_history":[0],"rt":1437,"trial_type":"polygon-arrow-feedback","trial_index":0,"trial_index_global":11,"time_elapsed":276433,"internal_chunk_id":"0-0.2-0"},{"nsides":6,"question":"What is 4 <img src=\"./images/hexagon_symbol.png\" style=\"width:14px;height:14px\"> 4? <br /><br /> (Remember, to perform <img src=\"./images/hexagon_symbol.png\" style=\"width:14px;height:14px\">, you can use the interactive diagram on the right, or perform the operation in your mind. Point the arrow at the first number on the hexagon, then move the arrow the second number of points clockwise around the hexagon. The number the arrow arrives at is your result.)","response_type":"free","response_choices":[],"correct_response":"2","response":"2","orientation_history":[[0]],"response_history":["2"],"rt":6390,"trial_type":"polygon-arrow-question","trial_index":0,"trial_index_global":12,"time_elapsed":282826,"internal_chunk_id":"0- 0.2-0"},{"nsides":6,"feedback":"Correct! 4 <img src=\"./images/hexagon_symbol.png\" style=\"width:14px;height:14px\"> 4 = 2 because 4 steps clockwise on the hexagon from 4 brings us to 2","orientation_history":[0],"rt":2066,"trial_type":"polygon-arrow-feedback","trial_index":0,"trial_index_global":13,"time_elapsed":284894,"internal_chunk_id":"0-0.2-0"},{"nsides":6,"question":"What is 1 <img src=\"./images/hexagon_symbol.png\" style=\"width:14px;height:14px\"> 3? <br /><br /> (Remember, to perform <img src=\"./images/hexagon_symbol.png\" style=\"width:14px;height:14px\">, you can use the interactive diagram on the right, or perform the operation in your mind. Point the arrow at the first number on the hexagon, then move the arrow the second number of points clockwise around the hexagon. The number the arrow arrives at is your result.)","response_type":"free","response_choices":[],"correct_response":"4","response":"4","orientation_history":[[0]],"response_history":["4"],"rt":5745,"trial_type":"polygon-arrow-question","trial_index":0,"trial_index_global":14,"time_elapsed":290641,"internal_chunk_id":"0-0.2-0"},{"nsides":6,"feedback":"Correct! 1 <img src=\"./images/hexagon_symbol.png\" style=\"width:14px;height:14px\"> 3 = 4 because 3 steps clockwise on the hexagon from 1 brings us to 4","orientation_history":[0],"rt":1649,"trial_type":"polygon-arrow-feedback","trial_index":0,"trial_index_global":15,"time_elapsed":292292,"internal_chunk_id":"0-0.2-0"},{"nsides":6,"question":"What is 4 <img src=\"./images/hexagon_symbol.png\" style=\"width:14px;height:14px\"> 3? <br /><br /> (Remember, to perform <img src=\"./images/hexagon_symbol.png\" style=\"width:14px;height:14px\">, you can use the interactive diagram on the right, or perform the operation in your mind. Point the arrow at the first number on the hexagon, then move the arrow the second number of points clockwise around the hexagon. The number the arrow arrives at is your result.)","response_type":"free","response_choices":[],"correct_response":"1","response":"1","orientation_history":[[0]],"response_history":["1"],"rt":7117,"trial_type":"polygon-arrow-question","trial_index":0,"trial_index_global":16,"time_elapsed":299411,"internal_chunk_id":"0-0.2-0"},{"nsides":6,"feedback":"Correct! 4 <img src=\"./images/hexagon_symbol.png\" style=\"width:14px;height:14px\"> 3 = 1 because 3 steps clockwise on the hexagon from 4 brings us to 1","orientation_history":[0],"rt":1049,"trial_type":"polygon-arrow-feedback","trial_index":0,"trial_index_global":17,"time_elapsed":300463,"internal_chunk_id":"0-0.2-0"},{"nsides":6,"question":"What is 0 <img src=\"./images/hexagon_symbol.png\" style=\"width:14px;height:14px\"> 5? <br /><br /> (Remember, to perform <img src=\"./images/hexagon_symbol.png\" style=\"width:14px;height:14px\">, you can use the interactive diagram on the right, or perform the operation in your mind. Point the arrow at the first number on the hexagon, then move the arrow the second number of  points  clockwise around the hexagon. The number the arrow arrives at is your result.)","response_type":"free","response_choices":[],"correct_response":"5","response":"5","orientation_history":[[0]],"response_history":["5"],"rt":7820,"trial_type":"polygon-arrow-question","trial_index":0,"trial_index_global":18,"time_elapsed":308285,"internal_chunk_id":"0-0.2-0"},{"nsides":6,"feedback":"Correct! 0 <img src=\"./images/hexagon_symbol.png\" style=\"width:14px;height:14px\"> 5 = 5 because 5 steps clockwise on the hexagon from 0 brings us to 5","orientation_history":[0],"rt":1019,"trial_type":"polygon-arrow-feedback","trial_index":0,"trial_index_global":19,"time_elapsed":309306,"internal_chunk_id":"0-0.2-0"},{"nsides":6,"question":"What is 2 <img src=\"./images/hexagon_symbol.png\" style=\"width:14px;height:14px\"> 5? <br /><br /> (Remember, to perform <img src=\"./images/hexagon_symbol.png\" style=\"width:14px;height:14px\">, you can use the interactive diagram on the right, or perform t he opera tion in your mind. Point the arrow at the first number on the hexagon, then move the arrow the second number of points clockwise around the hexagon. The number the arrow arrives at is your result.)","response_type":"free","response_choices":[],"correct_response":"1","response":"1","orientation_history":[[0]],"response_history":["1"],"rt":6784,"trial_type":"polygon-arrow-question","trial_index":0,"trial_index_global":20,"time_elapsed":316095,"internal_chunk_id":"0-0.2-0"},{"nsides":6,"feedback":"Correct! 2 <img src=\"./images/hexagon_symbol.png\" style=\"width:14px;height:14px\"> 5 = 1 because 5 steps clockwise on the hexagon from 2 brings us to 1","orientation_history":[0],"rt":960,"trial_type":"polygon-arrow-feedback","trial_index":0,"trial_index_global":21,"time_elapsed":317057,"internal_chunk_id":"0-0.2-0"},{"nsides":6,"instructions":"Now we're going to discuss a couple special properties of this new operation, <img src=\"./images/hexagon_symbol.png\" style=\"width:14px;height:14px\"> that we've learned. First, notice that the number 0 behaves in a special way under <img src=\"./images/hexagon_symbol.png\" style=\"width:14px;height:14px\">. Whenever we combine 0 with anything else, we get that same thing back. We'll say that 0 is the <i>identity</i> under <img src=\"./images/hexagon_symbol.png\" style=\"width:14px;height:14px\">, because when you combine it with something it gives you that identical thing back.","orientation_history":[0],"rt":21848,"trial_type":"polygon-arrow-instructions","trial_index":0,"trial_index_global":22,"time_elapsed":338922,"internal_chunk_id":"0-0"},{"nsides":6,"instructions":"Now that we know 0 is the identity under <img src=\"./images/hexagon_symbol.png\" style=\"width:14px;height:14px\">, we're going to make a new definition. We'll say that the <i>inverse</i> of a number is the thing that you combine with it to produce the identity under our operation. For example, 5 <img src=\"./images/hexagon_symbol.png\" style=\"width:14px;height:14px\"> 1 = 0, so we say 1 is the inverse of 5 under <img src=\"./images/hexagon_symbol.png\" style=\"width:14px;height:14px\">, (remember 0 is the identity under <img src=\"./images/hexagon_symbol.png\" style=\"width:14px;height:14px\">). Similarly, 3 is its own inverse under <img src=\"./images/hexagon_symbol.png\" style=\"width:14px;height:14px\">, because 3 <img src=\"./images/hexagon_symbol.png\" style=\"width:14px;height:14px\"> 3 = 0.","orientation_history":[0],"rt":66373,"trial_type":"polygon-arrow-instructions","trial_index":0,"trial_index_global":23,"time_elapsed":405297,"internal_chunk_id":"0-0"},{"nsides":6,"question":"Now you try! What is the inverse of 4 under <img src=\"./images/hexagon_symbol.png\" style=\"width:14px;height:14px\">? <br /><br /> (Remember, the inverse of an element is the thing which you combine with it to produce the identity.)","response_type":"free","response_choices":[],"correct_response":"2","response":"2","orientation_history":[[0]],"response_history":["2"],"rt":8048,"trial_type":"polygon-arrow-question","trial_index":0,"trial_index_global":24,"time_elapsed":413348,"internal_chunk_id":"0-0.6-0"},{"nsides":6,"feedback":"Correct! The inverse of 4 under <img src=\"./images/hexagon_symbol.png\" style=\"width:14px;height:14px\"> is 2 because 2 steps clockwise on the hexagon from 4 brings us to 0, and 0 is the identity under <img src=\"./images/hexagon_symbol.png\" style=\"width:14px;height:14px\">.","orientation_history":[0],"rt":1198,"trial_type":"polygon-arrow-feedback","trial_index":0,"trial_index_global":25,"time_elapsed":414555,"internal_chunk_id":"0-0.6-0"},{"nsides":6,"question":"What is the inverse of 1 under <img src=\"./images/hexagon_symbol.png\" style=\"width:14px;height:14px\">? <br /><br /> (Remember, the inverse of an element is the thing which you combine with it to produce the identity.)","response_type":"free","response_choices":[],"correct_response":"5","response":"5","orientation_history":[[0]],"response_history":["5"],"rt":6032,"trial_type":"polygon-arrow-question","trial_index":0,"trial_index_global":26,"time_elapsed":420590,"internal_chunk_id":"0-0.6-0"},{"nsides":6,"feedback":"Correct! The inverse of 1 under <img src=\"./images/hexagon_symbol.png\" style=\"width:14px;height:14px\"> is 5 because 5 steps clockwise on the hexagon from 1 brings us to 0, and 0 is the identity under <img src=\"./images/hexagon_symbol.png\" style=\"width:14px;height:14px\">.","orientation_history":[0],"rt":1233,"trial_type":"polygon-arrow-feedback","trial_index":0,"trial_index_global":27,"time_elapsed":421826,"internal_chunk_id":"0-0.6-0"},{"nsides":6,"question":"What is the inverse of 3 under <img src=\"./images/hexagon_symbol.png\" style=\"width:14px;height:14px\">? <br /><br /> (Remember, the inverse of an element is the thing which you combine with it to produce the identity.)","response_type":"free","response_choices":[],"correct_response":"3","response":"3","orientation_history":[[0]],"response_history":["3"],"rt":6368,"trial_type":"polygon-arrow-question","trial_index":0,"trial_index_global":28,"time_elapsed":428197,"internal_chunk_id":"0-0.6-0"},{"nsides":6,"feedback":"Correct! The inverse of 3 under <img src=\"./images/hexagon_symbol.png\" style=\"width:14px;height:14px\"> is 3 because 3 steps clockwise on the hexagon from 3 brings us to 0, and 0 is the identity under <img src=\"./images/hexagon_symbol.png\" style=\"width:14px;height:14px\">.","orientation_history":[0],"rt":1069,"trial_type":"polygon-arrow-feedback","trial_index":0,"trial_index_global":29,"time_elapsed":429268,"internal_chunk_id":"0-0.6-0"},{"nsides":6,"question":"What is the inverse of 2 under <img src=\"./images/hexagon_symbol.png\" style=\"width:14px;height:14px\">? <br /><br /> (Remember, the inverse of an element is the thing which you combine with it to produce the identity.)","response_type":"free","response_choices":[],"correct_response":"4","response":"4","orientation_history":[[0]],"response_history":["4"],"rt":5862,"trial_type":"polygon-arrow-question","trial_index":0,"trial_index_global":30,"time_elapsed":435133,"internal_chunk_id":"0-0.6-0"},{"nsides":6,"feedback":"Correct! The inverse of 2 under <img src=\"./images/hexagon_symbol.png\" style=\"width:14px;height:14px\"> is 4 because 4 steps clockwise on the hexagon from 2 brings us to 0, and 0 is the identity under <img src=\"./images/hexagon_symbol.png\" style=\"width:14px;height:14px\">.","orientation_history":[0],"rt":1351,"trial_type":"polygon-arrow-feedback","trial_index":0,"trial_index_global":31,"time_elapsed":436486,"internal_chunk_id":"0-0.6-0"},{"nsides":6,"question":"What is the inverse of 0 under <img src=\"./images/hexagon_symbol.png\" style=\"width:14px;height:14px\">? <br /><br /> (Remember, the inverse of an element is the thing which you combine with it to produce the identity.)","response_type":"free","response_choices":[],"correct_response":"0","response":"0","orientation_history":[[0]],"response_history":["0"],"rt":7258,"trial_type":"polygon-arrow-question","trial_index":0,"trial_index_global":32,"time_elapsed":443747,"internal_chunk_id":"0-0.6-0"},{"nsides":6,"feedback":"Correct! The inverse of 0 under <img src=\"./images/hexagon_symbol.png\" style=\"width:14px;height:14px\"> is 0 because 0 steps clockwise on the hexagon from 0 brings us to 0, and 0 is the identity under <img src=\"./images/hexagon_symbol.png\" style=\"width:14px;height:14px\">.","orientation_history":[0],"rt":809,"trial_type":"polygon-arrow-feedback","trial_index":0,"trial_index_global":33,"time_elapsed":444559,"internal_chunk_id":"0-0.6-0"},{"nsides":6,"question":"Let's review: under <img src=\"./images/hexagon_symbol.png\" style=\"width:14px;height:14px\">, the inverse of 0 is 0, the inverse of 1 is 5 and the inverse of 5 is 1, the inverse of 2 is 4 and the inverse of 4 is 2, and finally the inverse of 3 is 3. Try playing with some of these pairs on the hexagon. Do you see a spatial relationsh ip betwe en an element and its inverse under <img src=\"./images/hexagon_symbol.png\" style=\"width:14px;height:14px\">?","response_type":"free","response_choices":[],"correct_response":"","response":"I'm not sure I understand the question. So,  I guess my answer is no.","orientation_history":[[0],[0,0,0,0,0,0,0,0,0,0,0,0,0,0,0,0,0,0,0,0,0,0,0,0,0,0,0,0,0,0,0,0,0,0,-0.03463832532700728,-0.05273467491315831,-0.08548299564266504,-0.1017417254477948,-0.17344180898008776,-0.21025236911525802,-0.24247191943802004,-0.24247191943802004,-0.24247191943802004,-0.25834360242981,-0.2953637183037401,-0.2953637183037401,-0.32346876576419614,-0.33004368596210387,-0.3602619699106837,-0.40024065703397405,-0.4418832361325622,-0.47701254830375195,-0.4931923660433908,-0.5350119415117058,-0.5350119415117058,-0.5800941568264522,-0.5944816532153778,-0.6336144252857681,-0.6720328157086737,-0.6720328157086737,-0.6840347662423021,-0.6969964178116959,-0.6969964178116959,-0.7096461595863923,-0.7219912114306162,-0.7219912114306162,-0.7340388212848028,-0.7463766206033347,-0.7581200619433917,-0.7695743147076,-0.780747034146339,-0.7916457851591838,-0.7916457851591838,-0.7916457851591838,-0.7916457851591838,-0.7916457851591838,-0.8147475316187593,-0.8377504291514271,-0.8606309485647747,-0.873756366758319,-0.873756366758319,-0.9007842662335372,-0.9146919700930018,-0.9523936474894779,-0.9903574223365235,-1.0134480059084838,-1.0284757762804793,-1.0362231105149542,-1.058666030817343,-1.073807890876303,-1.073807890876303,-1.073807890876303,-1.073807890876303,-1.073807890876303,-1.0959331314143617,-1.0959331314143617,-1.0959331314143617,-1.0959331314143617,-1.0959331314143617,-1.0959331314143617,-1.0959331314143617,-1.0959331314143617,-1.102497588542981,-1.102497588542981,-1.102497588542981,-1.1088669291616444,-1.1088669291616444,-1.1088669291616444,-1.1088669291616444,-1.1088669291616444,-1.1088669291616444,-1.1088669291616444,-1.1088669291616444,-1.1088669291616444,-1.1088669291616444,-1.1088669291616444,-1.1088669291616444,-1.1088669291616444,-1.1088669291616444,-1.1088669291616444,-1.1088669291616444,-1.1088669291616444,-1.1088669291616444,-1.1088669291616444,-1.1088669291616444,-1.1088669291616444,-1.1088669291616444,-1.1088669291616444,-1.1088669291616444,-1.1088669291616444,-1.1088669291616444,-1.1088669291616444,-1.1088669291616444,-1.1088669291616444,-1.1088669291616444,-1.1088669291616444,-1.1088669291616444,-1.1088669291616444,-1.1088669291616444,-1.0940589702887369,-1.0940589702887369,-1.079440878506582,-1.0650151518513198,-1.0650151518513198,-1.0650151518513198,-1.0437417658272583,-1.0437417658272583,-1.0295583198359504,-1.0155801988393662,-1.0018083199538594,-0.972434301041968,-0.9588399723775369,-0.9588399723775369,-0.9588399723775369,-0.9588399723775369,-0.9588399723775369,-0.9588399723775369,-0.9588399723775369,-0.9588399723775369,-0.9588399723775369,-0.9588399723775369,-0.9588399723775369,-0.9588399723775369,-0.9588399723775369,-0.9588399723775369,-0.9588399723775369,-0.9588399723775369,-0.9588399723775369,-0.9588399723775369,-0.9588399723775369,-0.9588399723775369,-0.9588399723775369,-0.972434301041968,-0.972434301041968,-0.9862512313439469,-1.0002908704357276,-1.0002908704357276,-1.0002908704357276,-1.0002908704357276,-1.0002908704357276,-1.0002908704357276,-1.0002908704357276,-1.0002908704357276,-1.0002908704357276,-1.0002908704357276,-1.0002908704357276,-1.0002908704357276,-1.0002908704357276,-1.0002908704357276,-1.0145529778344633,-1.0145529778344633,-1.0145529778344633,-1.0145529778344633,-1.0145529778344633,-1.0145529778344633,-1.0145529778344633,-1.0145529778344633,-1.0145529778344633,-1.0145529778344633,-1.0145529778344633,5.235987755982988],[5.235987755982988,5.235987755982988,5.235987755982988,5.235987755982988,5.235987755982988,5.235987755982988,5.235987755982988,5.235987755982988,5.235987755982988,5.235987755982988,5.235987755982988,5.235987755982988,5.235987755982988,5.235987755982988,5.235987755982988,5.235987755982988,5.235987755982988,5.235987755982988,5.235987755982988,5.235987755982988,5.235987755982988,5.235987755982988,5.235987755982988,5.235987755982988,5.235987755982988,5.235987755982988,5.235987755982988,5.235987755982988,5.266854853160709,5.277891932564273,5.2893330809204215,5.301197735360597,5.301197735360597,5.301197735360597,5.301197735360597,5.301197735360597,5.301197735360597,5.301197735360597,5.301197735360597,5.301197735360597,5.301197735360597,5.301197735360597,5.301197735360597,5.301197735360597,5.301197735360597,5.301197735360597,5.301197735360597,5.301197735360597,5.301197735360597,5.301197735360597,5.301197735360597,5.301197735360597,5.301197735360597,5.301197735360597,5.301197735360597,5.301197735360597,5.376367552932365,5.4082170054355725,5.6573401090134245,6.07473124431787,6.25884911058534,0.19225158683171628,0.19225158683171628,0.309788505210993,0.36567430710659377,0.41931407843340884,0.4452401966939794,0.4952375878924271,0.5192930971467593,0.5192930971467593,0.5427148747964852,0.5876599904036919,0.6091909829709857,0.6301029667700875,0.650404745629306,0.6701066295421148,0.7077580447204717,0.7431610658174497,0.7764301172416798,0.7923018002334699,0.807685202014065,0.807685202014065,0.807685202014065,0.807685202014065,0.807685202014065,0.807685202014065,0.807685202014065,0.807685202014065,0.807685202014065,0.807685202014065,0.8225955601522449,0.8225955601522449,0.852833820015577,0.8995806558818725,0.9298885367038197,0.9426732282406044,0.9599442380646855,0.9599442380646855,0.9599442380646855,0.9896973600833506,0.9896973600833506,0.9896973600833506,0.9896973600833506,0.9896973600833506,0.9896973600833506,1.0013247430397345,1.0013247430397345,1.0013247430397345,1.0013247430397345,1.0013247430397345,1.0013247430397345,1.0013247430397345,1.0013247430397345,1.0013247430397345,1.0013247430397345,1.0013247430397345,1.0013247430397345,1.0013247430397345,1.0013247430397345,1.0013247430397345,1.0013247430397345,1.0013247430397345,1.0191006482873557,1.0191006482873557,1.0191006482873557,1.0191006482873557,1.0191006482873557,1.0191006482873557,1.0191006482873557,1.0191006482873557,1.0191006482873557,1.0191006482873557,1.0191006482873557,1.0191006482873557,1.0191006482873557,1.0191006482873557,1.0191006482873557,1.0191006482873557,1.0191006482873557,1.0191006482873557,1.0191006482873557,1.0191006482873557,1.0191006482873557,1.0471975511965976],[1.0471975511965976,1.0471975511965976,1.0471975511965976,1.0471975511965976,1.0471975511965976,1.0471975511965976,1.0471975511965976,1.0471975511965976,1.0471975511965976,1.0471975511965976,1.0471975511965976,1.0471975511965976,1.0471975511965976,1.0471975511965976,1.0471975511965976,1.0471975511965976,1.0471975511965976,1.0471975511965976,1.0471975511965976,1.0471975511965976,1.0471975511965976,1.0471975511965976,1.0471975511965976,1.0471975511965976,1.0471975511965976,1.0471975511965976,1.0471975511965976,1.0471975511965976,1.0471975511965976,1.0471975511965976,1.0762072677580836,1.0762072677580836,1.0762072677580836,1.0945661542623706,1.15195286501865,1.15195286501865,1.321066428017448,1.3436770252746872,1.3665652665764996,1.3665652665764996,1.3897118942433737,1.4130961078777744,1.4130961078777744,1.436695640538783,1.460486855904458,1.460486855904458,1.5085436682885942,1.5085436682885942,1.5085436682885942,1.5327563012370407,1.5570550152302285,1.60579686654016,1.6301822757128785,1.6545387178500917,1.6545387178500917,1.6545387178500917,1.703050064791726,1.703050064791726,1.7271488671109239,1.7511068771758622,1.779042532992525,1.7833930338236479,1.8132930929753628,1.8132930929753628,1.8132930929753628,1.8132930929753628,1.8132930929753628,1.8132930929753628,1.8132930929753628,1.8132930929753628,1.8132930929753628,1.8132930929753628,1.8132930929753628,1.8132930929753628,1.8132930929753628,1.8132930929753628,1.8132930929753628,1.8132930929753628,1.8132930929753628,1.8132930929753628,1.8132930929753628,1.8132930929753628,1.8132930929753628,1.8132930929753628,1.8132930929753628,1.8132930929753628,1.8132930929753628,1.838353808345069,1.838353808345069,1.8875687338135123,1.9116757379450122,2.0694444755409664,2.110658238199287,2.110658238199287,2.15007735148614,2.15007735148614,2.15007735148614,2.15007735148614,2.1691131280321283,2.1691131280321283,2.1691131280321283,2.1877019846800456,2.205847079941914,2.205847079941914,2.205847079941914,2.205847079941914,2.205847079941914,2.205847079941914,2.205847079941914,2.205847079941914,2.205847079941914,2.205847079941914,2.205847079941914,2.205847079941914,2.205847079941914,2.205847079941914,2.205847079941914,2.205847079941914,2.205847079941914,2.205847079941914,2.205847079941914,2.205847079941914,2.205847079941914,2.205847079941914,2.205847079941914,2.1937994700877272,2.1821720871313435,2.1821720871313435,2.1821720871313435,2.1709463065469192,2.160104362741711,2.124942980786683,2.124942980786683,2.10681025334375,2.10681025334375,2.10681025334375,2.10681025334375,2.096960464826421,2.096960464826421,2.096960464826421,2.096960464826421,2.096960464826421,2.096960464826421,2.096960464826421,2.096960464826421,2.096960464826421,2.096960464826421,2.0694444755409664,2.0694444755409664,2.0694444755409664,2.0694444755409664,2.0943951023931953],[2.0943951023931953,2.0943951023931953,2.0943951023931953,2.0943951023931953,2.0943951023931953,2.0943951023931953,2.0943951023931953,2.0943951023931953,2.0943951023931953,2.0943951023931953,2.0943951023931953,2.0943951023931953,2.0943951023931953,2.0943951023931953,2.0943951023931953,2.0943951023931953,2.0943951023931953,2.0943951023931953,2.0943951023931953,2.0943951023931953,2.0943951023931953,2.0943951023931953,2.0943951023931953,2.0943951023931953,2.0943951023931953,2.0943951023931953,2.0943951023931953,2.0943951023931953,2.0943951023931953,2.0943951023931953,2.0943951023931953,2.0943951023931953,2.0943951023931953,2.0943951023931953,2.0943951023931953,2.0943951023931953,2.0943951023931953,2.0943951023931953,2.0943951023931953,2.0943951023931953,2.0943951023931953,2.0943951023931953,2.0943951023931953,2.0943951023931953,2.0943951023931953,2.0943951023931953,2.0943951023931953,2.0943951023931953,2.0943951023931953,2.0943951023931953,2.0943951023931953,2.271991269676683,2.5449999727633936,2.671506763676058,2.908499485464634,2.912079422438429,3.144127771750117,3.258706541448772,3.330398136160842,3.3488462275519986,3.3670923776165878,3.4029450136558435,3.420536443020308,3.4508400710030673,3.4981402808535536,3.5134614294237423,3.5134614294237423,3.5134614294237423,3.5134614294237423,3.5134614294237423,3.5134614294237423,3.5134614294237423,3.5134614294237423,3.5134614294237423,3.5134614294237423,3.5134614294237423,3.5134614294237423,3.5134614294237423,3.5134614294237423,3.5134614294237423,3.5134614294237423,3.5134614294237423,3.5134614294237423,3.5134614294237423,3.5134614294237423,3.5134614294237423,3.5134614294237423,3.770747531084752,3.770747531084752,3.88276628359487,3.933447483672325,3.962216522489918,3.981883537953651,3.9902247605995176,4.0803222283671925,4.100111311442669,4.112636752410049,4.132291268432969,4.1390659543575,4.1390659543575,4.145672464846552,4.164538150868221,4.164538150868221,4.164538150868221,4.164538150868221,4.164538150868221,4.164538150868221,4.164538150868221,4.164538150868221,4.164538150868221,4.164538150868221,4.164538150868221,4.164538150868221,4.164538150868221,4.164538150868221,4.164538150868221,4.164538150868221,4.164538150868221,4.164538150868221,4.164538150868221,4.164538150868221,4.164538150868221,4.164538150868221,4.164538150868221,4.164538150868221,4.164538150868221,4.164538150868221,4.164538150868221,4.1887902047863905],[4.1887902047863905,4.1887902047863905,4.1887902047863905,4.1887902047863905,4.1887902047863905,4.1887902047863905,4.1887902047863905,4.1887902047863905,4.1887902047863905,4.1887902047863905,4.1887902047863905,4.1887902047863905,4.1887902047863905,4.1887902047863905,4.1887902047863905,4.1887902047863905,4.1887902047863905,4.1887902047863905,4.1887902047863905,4.1887902047863905,4.1887902047863905,4.1887902047863905,4.1887902047863905,4.1887902047863905,4.201368157798673,4.240027372189809,4.253217044211944,4.2936671435166245,4.2936671435166245,4.33538206057805,4.349552945412226,4.4074591506603324,4.472584313994719,4.502066385780062,4.59190579400509,4.59190579400509,4.622144053868421,4.637287457912427,4.652437813787197,4.652437813787197,4.652437813787197,4.652437813787197,4.652437813787197,4.652437813787197,4.652437813787197,4.652437813787197,4.652437813787197,4.652437813787197,4.652437813787197,4.652437813787197,4.652437813787197,4.652437813787197,4.652437813787197,4.652437813787197,4.652437813787197,4.652437813787197,4.652437813787197,4.652437813787197,4.652437813787197,4.652437813787197,4.652437813787197,4.652437813787197,4.652437813787197,4.652437813787197,4.652437813787197,4.652437813787197,4.590019003791239,4.458196817605793,4.2116869660077745,4.141949491870421,4.088354092737539,3.940080215692868,3.91578150169968,3.891425059562467,3.8549920405355627,3.793999085086629,3.7590279256897023,3.735277383911822,3.711675396538215,3.6788181450849775,3.6696440905398675,3.633296469520847,3.633296469520847,3.619228133651047,3.604919809124276,3.5903713113078535,3.5903713113078535,3.5528077513054104,3.530364831003021,3.530364831003021,3.530364831003021,3.508268980119176,3.4930977304060025,3.455975102999884,3.388317806393983,3.3730982814701673,3.3599411459974116,3.3412711164005575,3.3412711164005575,3.3412711164005575,3.3374500516076724,3.3374500516076724,3.333737467660374,3.333737467660374,3.333737467660374,3.3018902103829895,3.3018902103829895,3.2876328236681314,3.2876328236681314,3.2876328236681314,3.2846867042457655,3.2846867042457655,3.2846867042457655,3.2846867042457655,3.2846867042457655,3.2846867042457655,3.2846867042457655,3.270538667869923,3.25631368600054,3.25631368600054,3.242016930968251,3.242016930968251,3.242016930968251,3.2255669363805164,3.2255669363805164,3.2255669363805164,3.2255669363805164,3.2113440241482123,3.2095114055523,3.179915440248309,3.179915440248309,3.179915440248309,3.178559114786663,3.178559114786663,3.178559114786663,3.178559114786663,3.178559114786663,3.178559114786663,3.178559114786663,3.178559114786663,3.178559114786663,3.1647827188807414,3.137139992238017,3.137139992238017,3.137139992238017,3.137139992238017,3.137139992238017,3.137139992238017,3.137139992238017,3.137139992238017,3.137139992238017,3.137139992238017,3.137139992238017,3.141592653589793],[3.141592653589793,3.141592653589793,3.141592653589793,3.141592653589793,3.141592653589793,3.141592653589793,3.141592653589793,3.141592653589793,3.141592653589793,3.141592653589793,3.141592653589793,3.141592653589793,3.141592653589793,3.141592653589793,3.141592653589793,3.141592653589793,3.141592653589793,3.141592653589793,3.141592653589793,3.141592653589793,3.141592653589793,3.141592653589793,3.141592653589793,3.141592653589793,3.141592653589793,3.141592653589793,3.1692353802325175,3.1692353802325175,3.210449142890838,3.226018818918194,3.280779687728026,3.4464521188688697,3.4464521188688697,3.4892097375627755,3.5070847225963218,3.5252068042821465,3.5375472398966306,3.5680324003017025,3.5680324003017025,3.5865349614913704,3.598483608654814,3.617124253188259,3.628844646723787,3.6549420067654355,3.6549420067654355,3.696820112733285,3.696820112733285,3.7158974837644947,3.743483253068328,3.7630090001865533,3.773765404382806,3.782618136928417,3.782618136928417,3.793221171220247,3.793221171220247,3.793221171220247,3.793221171220247,3.793221171220247,3.793221171220247,3.793221171220247,3.793221171220247,3.793221171220247,3.793221171220247,3.793221171220247,3.793221171220247,3.793221171220247,3.793221171220247,3.793221171220247,3.793221171220247,3.793221171220247,3.793221171220247,3.793221171220247,3.793221171220247,3.8127364890258018,3.85188698088432,3.9106879136685793,3.9199979239819083,3.9482642030113024,3.9673514588515375,3.986368917158423,3.99704204885005,4.005303289216116,4.005303289216116,4.02414164013679,4.02414164013679,4.0505075887630095,4.076134121571302,4.083223806970812,4.101019665984815,4.101019665984815,4.107737572459962,4.107737572459962,4.114311151012982,4.114311151012982,4.131523601323657,4.13774436089245,4.13774436089245,4.143832565729934,4.143832565729934,4.1497919707466355,4.1497919707466355,4.1497919707466355,4.1497919707466355,4.1497919707466355,4.1497919707466355,4.1497919707466355,4.155626210267391,4.155626210267391,4.155626210267391,4.155626210267391,4.155626210267391,4.155626210267391,4.155626210267391,4.1613388016531445,4.1613388016531445,4.1613388016531445,4.1613388016531445,4.1613388016531445,4.1613388016531445,4.1613388016531445,4.1613388016531445,4.1613388016531445,4.1613388016531445,4.1613388016531445,4.1887902047863905],[4.1887902047863905,4.1887902047863905,4.1887902047863905,4.1887902047863905,4.1887902047863905,4.1887902047863905,4.1887902047863905,4.1887902047863905,4.1887902047863905,4.1887902047863905,4.1887902047863905,4.1887902047863905,4.1887902047863905,4.1887902047863905,4.1887902047863905,4.1887902047863905,4.1887902047863905,4.1887902047863905,4.1887902047863905,4.1887902047863905,4.1887902047863905,4.1887902047863905,4.1887902047863905,4.1887902047863905,4.1887902047863905,4.1887902047863905,4.1887902047863905,4.1887902047863905,4.1887902047863905,4.1887902047863905,4.1887902047863905,4.1887902047863905,4.1887902047863905,4.1887902047863905,4.1887902047863905,4.1887902047863905,4.1887902047863905,4.1887902047863905,4.1887902047863905,4.1887902047863905,4.1887902047863905,4.1887902047863905,4.1887902047863905,4.1887902047863905,4.1887902047863905,4.1887902047863905,4.2029736507776985,4.2029736507776985,4.217361147166624,4.217361147166624,4.23195104462926,4.261729473493421,4.317850256194598,4.447952313904563,4.48351044251602,4.591292368950165,4.610077822833687,4.666621259778505,4.704339212245369,4.856609547697221,4.970622199118649,5.005913874232549,5.040348079744057,5.064249251300634,5.064249251300634,5.064249251300634,5.064249251300634,5.064249251300634,5.064249251300634,5.064249251300634,5.064249251300634,5.064249251300634,5.064249251300634,5.064249251300634,5.064249251300634,5.064249251300634,5.064249251300634,5.064249251300634,5.064249251300634,5.064249251300634,5.064249251300634,5.064249251300634,5.064249251300634,5.081128134363291,5.081128134363291,5.1141412349356745,5.1141412349356745,5.1141412349356745,5.1141412349356745,5.1141412349356745,5.1141412349356745,5.1141412349356745,5.1141412349356745,5.1141412349356745,5.1141412349356745,5.1141412349356745,5.146140551771101,5.185767374025027,5.185767374025027,5.201016736532918,5.201016736532918,5.201016736532918,5.201016736532918,5.201016736532918,5.201016736532918,5.210098854491548,5.210098854491548,5.210098854491548,5.210098854491548,5.210098854491548,5.210098854491548,5.210098854491548,5.210098854491548,5.210098854491548,5.210098854491548,5.210098854491548,5.210098854491548,5.210098854491548,5.210098854491548,5.210098854491548,5.210098854491548,5.210098854491548,5.210098854491548,5.210098854491548,5.210098854491548,5.210098854491548,5.235987755982988]],"response_history":["I'm not sure I understandthe ","I'm not sure I understandthe","I'm not sure I understandth","I'm not sure I understandt","I'm not sure I understand the question. So,  I guess my answr","I'm not sure I understand the question. So,  I guess my answer is no."],"rt":100807,"trial_type":"polygon-arrow-question","trial_index":0,"trial_index_global":34,"time_elapsed":545368,"internal_chunk_id":"0-0"},{"instructions":"It is also possible to successively apply <img src=\"./images/hexagon_symbol.png\" style=\"width:14px;height:14px\">, and the operation can simply be performed starting with the left-most pair. For example, 2 <img src=\"./images/hexagon_symbol.png\" style=\"width:14px;height:14px\"> 3 <img src=\"./images/hexagon_symbol.png\" style=\"width:14px;height:14px\"> 4 = 5 <img src=\"./images/hexagon_symbol.png\" style=\"width:14px;height:14px\"> 4 = 3.","rt":16451,"trial_type":"instructions","trial_index":0,"trial_index_global":35,"time_elapsed":561824,"internal_chunk_id":"0-0"},{"nsides":6,"instructions":"We have one last definition to learn today. Let's start with an example. Under our operation <img src=\"./images/hexagon_symbol.png\" style=\"width:14px;height:14px\"> we can make every other number using just 1: 2 = 1 <img src=\"./images/hexagon_symbol.png\" style=\"width:14px;height:14px\"> 1, 3 = 1 <img src=\"./images/hexagon_symbol.png\" style=\"width:14px;height:14px\"> 1 <img src=\"./images/hexagon_symbol.png\" style=\"width:14px;height:14px\"> 1, 4 = 1 <img src=\"./images/hexagon_symbol.png\" style=\"width:14px;height:14px\"> 1 <img src=\"./images/hexagon_symbol.png\" style=\"width:14px;height:14px\"> 1 <img src=\"./images/hexagon_symbol.png\" style=\"width:14px;height:14px\"> 1, 5 = 1 <img src=\"./images/hexagon_symbol.png\" style=\"width:14px;height:14px\"> 1 <img src=\"./images/hexagon_symbol.png\" style=\"width:14px;height:14px\"> 1 < img src=\"./images/hexagon_symbol.png\" style=\"width:14px;height:14px\"> 1 <img src=\"./images/hexagon_symbol.png\" style=\"width:14px;height:14px\"> 1, and 0 = 1 <img src=\"./images/hexagon_symbol.png\" style=\"width:14px;height:14px\"> 1 <img src=\"./images/hexagon_symbol.png\" style=\"width:14px;height:14px\"> 1 <img src=\"./images/hexagon_symbol.png\" style=\"width:14px;height:14px\"> 1 <img src=\"./images/hexagon_symbol.png\" style=\"width:14px;height:14px\"> 1 <img src=\"./images/hexagon_symbol.png\" style=\"width:14px;height:14px\"> 1. Because 1 can make every other element under <img src=\"./images/hexagon_symbol.png\" style=\"width:14px;height:14px\">, we say that 1 is a <i>generator</i> under <img src=\"./images/hexagon_symbol.png\" style=\"width:14px;height:14px\">. <br /><br /> However, 2 is not a generator under <img src=\"./images/hexagon_symbol.png\" style=\"width:14px;height:14px\">, because 4 = 2 <img src=\"./images/hexagon_symbol.png\" style=\"width:14px;height:14px\"> 2, and 0 = 2 <img src=\"./images/hexagon_symbol.png\" style=\"width:14px;height:14px\"> 2 <img src=\"./images/hexagon_symbol.png\" style=\"width:14px;height:14px\"> 2, but there is no way to make 1, 3, or 5 using just 2.","orientation_history":[0],"rt":98898,"trial_type":"polygon-arrow-instructions","trial_index":0,"trial_index_global":36,"time_elapsed":660724,"internal_chunk_id":"0-0"},{"nsides":6,"question":"Now you try! Is 3 a generator under <img src=\"./images/hexagon_symbol.png\" style=\"width:14px;height:14px\">? <br /><br /> (Remember, a generator is an element which can make every other element.)","response_type":"multi","response_choices":["Yes","No"],"correct_response":"No","response":"Yes","orientation_history":[[0]],"response_history":["Yes"],"rt":41449,"trial_type":"polygon-arrow-question","trial_index":0,"trial_index_global":37,"time_elapsed":702176,"internal_chunk_id":"0-0.10-0"},{"nsides":6,"feedback":"Sorry, that's incorrect. 3 is not a generator unde r <img s rc=\"./images/hexagon_symbol.png\" style=\"width:14px;height:14px\">, because 3 = 3, 0 = 3 <img src=\"./images/hexagon_symbol.png\" style=\"width:14px;height:14px\"> 3, but there is no way to make 1, 2, 4, or 5 using just 3.","orientation_history":[0],"rt":18824,"trial_type":"polygon-arrow-feedback","trial_index":0,"trial_index_global":38,"time_elapsed":721003,"internal_chunk_id":"0-0.10-0"},{"nsides":6,"question":"Is 5 a generator under <img src=\"./images/hexagon_symbol.png\" style=\"width:14px;height:14px\">? <br /><br /> (Remember, a generator is an element which can make every other element.)","response_type":"multi","response_choices":["Yes","No"],"correct_response":"Yes","response":"No","orientation_history":[[0]],"response_history":["No"],"rt":28639,"trial_type":"polygon-arrow-question","trial_index":0,"trial_index_global":39,"time_elapsed":749645,"internal_chunk_id":"0-0.10-0"},{"nsides":6,"feedback":"Sorry, that's incorrect. 5 is a generator under <img src=\"./images/hexagon_symbol.png\" style=\"width:14px;height:14px\">, because 5 = 5, 4 = 5 <img src=\"./images/hexagon_symbol.png\" style=\"width:14px;height:14px\"> 5, 3 = 5 <img src=\"./images/hexagon_symbol.png\" style=\"width:14px;height:14px\"> 5 <img src=\"./images/hexagon_symbol.png\" style=\"width:14px;height:14px\"> 5, 2 = 5 <img src=\"./images/hexagon_symbol.png\" style=\"width:14px;height:14px\"> 5 <img src=\"./images/hexagon_symbol.png\" style=\"width:14px;height:14px\"> 5 <img src=\"./images/hexagon_symbol.png\" style=\"width:14px;height:14px\"> 5, 1 = 5 <img src=\"./images/hexagon_symbol.png\" style=\"width:14px;height:14px\"> 5 <img src=\"./images/hexagon_symbol.png\" style=\"width:14px;height:14px\"> 5 <img src=\"./images/hexagon_symbol.png\" style=\"width:14px;height:14px\"> 5 <img src=\"./images/hexagon_symbol.png\" style=\"width:14px;height:14px\"> 5, and 0 = 5 <img src=\"./images/hexagon_symbol.png\" style=\"width:14px;height:14px\"> 5 <img src=\"./images/hexagon_symbol.png\" style =\"width:14px;height:14px\"> 5 <img src=\"./images/hexagon_symbol.png\" style=\"width:14px;height:14px\"> 5 <img src=\"./images/hexagon_symbol.png\" style=\"width:14px;height:14px\"> 5 <img src=\"./images/hexagon_symbol.png\" style=\"width:14px;height:14px\"> 5, so you can make all of the numbers under <img src=\"./images/hexagon_symbol.png\" style=\"width:14px;height:14px\"> using 5","orientation_history":[0],"rt":86241,"trial_type":"polygon-arrow-feedback","trial_index":0,"trial_index_global":40,"time_elapsed":835888,"internal_chunk_id":"0-0.10-0"},{"nsides":6,"question":"Is 4 a generator under <img src=\"./images/hexagon_symbol.png\" style=\"width:14px;height:14px\">? <br /><br /> (Remember, a generator is an element which can make every other element.)","response_type":"multi","response_choices":["Yes","No"],"correct_response":"No","response":"No","orientation_history":[[0]],"response_history":["No"],"rt":28004,"trial_type":"polygon-arrow-question","trial_index":0,"trial_index_global":41,"time_elapsed":863895,"internal_chunk_id":"0-0.10-0"},{"nsides":6,"feedback":"Correct! 4 is not a generator under <img src=\"./images/hexagon_symbol.png\" style=\"width:14px;height:14px\">, because 4 = 4, 2 = 4 <img src=\"./images/hexagon_symbol.png\" style=\"width:14px;height:14px\"> 4, and 0 = 4 <img src=\"./images/hexagon_symbol.png\" style=\"width:14px;height:14px\"> 4 <img src=\"./images/hexagon_symbol.png\" style=\"width:14px;height:14px\"> 4, but there is no way to make 1, 3, or 5 using just 4.","orientation_history":[0],"rt":1240,"trial_type":"polygon-arrow-feedback","trial_index":0,"trial_index_global":42,"time_elapsed":865138,"internal_chunk_id":"0-0.10-0"},{"nsides":6,"question":"Is 0 a generator under <img src=\"./images/hexagon_symbol.png\" style=\"width:14px;height:14px\">? <br /><br /> (Remember, a generator is an element which can make every other element.)","response_type":"multi","response_choices":["Yes","No"],"correct_response":"No","response":" Yes","orientation_history":[[0]],"response_history":["No","Yes"],"rt":20073,"trial_type":"polygon-arrow-question","trial_index":0,"trial_index_global":43,"time_elapsed":885214,"internal_chunk_id":"0-0.10-0"},{"nsides":6,"feedback":"Sorry, that's incorrect. 0 is not a generator under <img src=\"./images/hexagon_symbol.png\" style=\"width:14px;height:14px\">, because 0 = 0, but there is no way to make 1, 2, 3, 4, or 5 using just 0.","orientation_history":[0],"rt":2775,"trial_type":"polygon-arrow-feedback","trial_index":0,"trial_index_global":44,"time_elapsed":887991,"internal_chunk_id":"0-0.10-0"},{"nsides":6,"question":"Let's review: under <img src=\"./images/hexagon_symbol.png\" style=\"width:14px;height:14px\">, 1 and 5 are generators. However, 0, 2, 3 and 4 are not generators. Try playing with these non-generators on the hexagon and seeing which elements each of them does generate (i.e. which elements you can get by combining each non-generator with itself repeatedly). Do you see  spatial  relationships among particular subsets of the elements that are not generators under <img src=\"./images/hexagon_symbol.png\" style=\"width:14px;height:14px\">?","response_type":"free","response_choices":[],"correct_response":"","response":"I think I have finally understood this. I'm sorry, but I didn't quite get this at first. So, 1 and 5 are the only generators. Got it...I'm not really sure about the spacial relationship but I finally figured out what was meant by generators, I guess that is progress.","orientation_history":[[0],[0,0,0,0,0,0,0,0,0,0,0,0,0,0,0,0,0,0,0,0,0,0,0,0,0,0,0,0,0,0,0,0,0,0,0,0,0,0,0,-6.254207913328025,-6.254207913328025,-6.225230519476463,-6.210757017936494,-6.196301708079917,-6.196301708079917,-6.18187058278943,-6.18187058278943,-6.153104541591727,-6.1387812529611,-6.1387812529611,-6.1387812529611,-6.1387812529611,-6.1387812529611,-6.1387812529611,-6.1387812529611,-6.1387812529611,-6.1387812529611,-6.1387812529611,-6.1387812529611,-6.1387812529611,-6.1387812529611,-6.1387812529611,-6.1387812529611,-6.1387812529611,-6.1387812529611,-6.1387812529611,-6.1387812529611,-6.1387812529611,-6.1387812529611,-6.1387812529611,-6.1387812529611,-6.1387812529611,-6.1387812529611,-5.806062938252236,-5.806062938252236,-5.625411626912592,-5.599637146004634,-5.533653777483783,-5.533653777483783,-5.507751093027616,-5.507751093027616,-5.507751093027616,-5.507751093027616,-5.507751093027616,-5.507751093027616,-5.507751093027616,-5.494445158452254,-5.481467301764629,-5.456152198096524,-5.456152198096524,-5.456152198096524,-5.456152198096524,-5.443814956311656,-5.4317896340566465,-5.420067898620645,-5.420067898620645,-5.37385804358782,-5.37385804358782,-5.3503197907724385,-5.330170012796419,-5.317044594602874,-5.307434639509885,-5.294137550922337,-5.280588244625806,-5.266784593526984,-5.223831086803712,-5.208995380084739,-5.193899908449904,-5.178544850001533,-5.178544850001533,-5.178544850001533,-5.170310818344397,-5.154871536594035,-5.131556561608918,-5.131556561608918,-5.131556561608918,-5.131556561608918,-5.131556561608918,-5.131556561608918,-5.131556561608918,-5.131556561608918,-5.131556561608918,-5.131556561608918,-5.131556561608918,-5.131556561608918,-5.131556561608918,-5.131556561608918,-5.131556561608918,-5.131556561608918,-5.131556561608918,-5.131556561608918,-5.131556561608918,-5.131556561608918,-5.131556561608918,-5.131556561608918,-5.131556561608918,-5.131556561608918,-5.131556561608918,-5.131556561608918,-5.131556561608918,-5.131556561608918,-5.131556561608918,-5.131556561608918,-5.131556561608918,-5.131556561608918,-5.131556561608918,-5.131556561608918,-5.131556561608918,-5.131556561608918,-5.131556561608918,-5.131556561608918,-5.147059195533934,-5.162325185080714,-5.1545778508462385,-5.169443515873224,-5.169443515873224,-5.169443515873224,-5.169443515873224,-5.169443515873224,-5.161764017911786,-5.161764017911786,-5.161764017911786,-5.161764017911786,-5.161764017911786,-5.161764017911786,-5.190510090925465,-5.190510090925465,-5.190510090925465,-5.190510090925465,-5.182758308213258,-5.182758308213258,-5.182758308213258,-5.182758308213258,-5.182758308213258,-5.182758308213258,-5.182758308213258,-5.1752207625218265,-5.181528296533442,-5.179306077969189,-5.179306077969189,-5.179306077969189,-5.179306077969189,-5.179306077969189,-5.179306077969189,-5.179306077969189,-5.179306077969189,-5.179306077969189,-5.179306077969189,-5.179306077969189,-5.179306077969189,-5.179306077969189,-5.179306077969189,-5.179306077969189,-5.179306077969189,-5.179306077969189,-5.179306077969189,-5.179306077969189,-5.179306077969189,-5.179306077969189,-5.179306077969189,-5.179306077969189,-5.179306077969189,-5.179306077969189,-5.179306077969189,-5.179306077969189,-5.179306077969189,-5.179306077969189,-5.179306077969189,-5.179306077969189,-5.179306077969189,-5.179306077969189,-5.179306077969189,-5.179306077969189,-5.179306077969189,-5.179306077969189,-5.179306077969189,-5.179306077969189,-5.179306077969189,-5.179306077969189,-5.179306077969189,-5.179306077969189,-5.179306077969189,-5.179306077969189,-5.179306077969189,-5.179306077969189,-5.179306077969189,-5.179306077969189,-5.179306077969189,-5.179306077969189,-5.179306077969189,-5.179306077969189,-5.179306077969189,-5.179306077969189,-5.179306077969189,-5.179306077969189,-5.179306077969189,-5.179306077969189,-5.179306077969189,-5.179306077969189,-5.179306077969189,-5.179306077969189,-5.179306077969189,-5.179306077969189,-5.179306077969189,-5.179306077969189,-5.179306077969189,-5.179306077969189,-5.179306077969189,-5.179306077969189,-5.179306077969189,-5.179306077969189,-5.179306077969189,-5.179306077969189,-5.179306077969189,-5.179306077969189,-5.179306077969189,-5.179306077969189,-5.179306077969189,-5.179306077969189,-5.179306077969189,-5.179306077969189,-5.179306077969189,-5.179306077969189,-5.179306077969189,-5.179306077969189,-5.179306077969189,-5.179306077969189,-5.147059195533934,-5.127830796434227,-5.088303372818212,-4.99080905965595,-4.7151469600615865,-4.572754365359232,-4.453191999256284,-4.438432923406264,-4.39482422463905,-4.39482422463905,-4.338409409326023,-4.324640916262556,-4.284190816957876,-4.257961949163086,-4.232341930544605,-4.232341930544605,-4.219763977532322,-4.219763977532322,-4.219763977532322,-4.207342256210367,-4.195077635476723,-4.182970773385835,-4.182970773385835,-4.182970773385835,-4.182970773385835,-4.182970773385835,-4.182970773385835,-4.182970773385835,-4.182970773385835,-4.182970773385835,-4.182970773385835,-4.182970773385835,-4.182970773385835,-4.182970773385835,-4.182970773385835,-4.182970773385835,-4.182970773385835,-4.182970773385835,-4.182970773385835,-4.182970773385835,-4.182970773385835,-4.182970773385835,-4.182970773385835,-4.182970773385835,-4.182970773385835,-4.182970773385835,-4.182970773385835,-4.182970773385835,-4.182970773385835,-4.182970773385835,-4.182970773385835,-4.182970773385835,-4.182970773385835,-4.182970773385835,-4.182970773385835,-4.182970773385835,-4.182970773385835,-4.182970773385835,-4.182970773385835,-4.182970773385835,-4.182970773385835,-4.182970773385835,-4.182970773385835,-4.182970773385835,-4.182970773385835,-4.182970773385835,-4.182970773385835,-4.182970773385835,-4.182970773385835,-4.182970773385835,-4.182970773385835,-4.182970773385835,-4.182970773385835,-4.182970773385835,-4.182970773385835,-4.182970773385835,-4.147600348572665,-4.129104090331577,-4.031824400610271,-3.89801342313568,-3.7344395475688215,-3.700617863285799,-3.6436453645824143,-3.618406575332635,-3.5883104785932236,-3.5822151793936294,-3.5702749163551246,-3.552457842553968,-3.540350172124474,-3.540350172124474,-3.540350172124474,-3.540350172124474,-3.540350172124474,-3.540350172124474,-3.540350172124474,-3.540350172124474,-3.528107355679122,-3.505375925375553,-3.488255495211297,-3.4425623518847868,-3.4101769844760375,-3.3699389747093202,-3.357593922865096,-3.3299086906612527,-3.3149368881165353,-3.2858609261905967,-3.2858609261905967,-3.2737071642758124,-3.261505207347729,-3.249258422229319,-3.2354504986161263,-3.221933793626132,-3.2098684579897974,-3.160770772798147,-3.136706983163153,-3.1246628695924175,-3.1126152597382317,-3.0885235363133106,-3.0885235363133106,-3.0885235363133106,-3.0885235363133106,-3.0885235363133106,-3.0885235363133106,-3.0885235363133106,-3.0885235363133106,-3.0885235363133106,-3.0885235363133106,-3.0885235363133106,-3.0885235363133106,-3.0885235363133106,-3.0885235363133106,-3.0885235363133106,-3.0885235363133106,-3.0885235363133106,-3.0885235363133106,-3.0885235363133106,-3.0885235363133106,-3.0885235363133106,-3.0885235363133106,-3.0885235363133106,-3.0885235363133106,-3.0885235363133106,-3.0885235363133106,-3.0885235363133106,-3.0885235363133106,-3.0885235363133106,-3.0885235363133106,-3.0885235363133106,-3.0885235363133106,-3.0885235363133106,-3.0885235363133106,-3.0885235363133106,-3.0885235363133106,-3.0885235363133106,-3.0885235363133106,-3.0885235363133106,-3.0885235363133106,-3.0885235363133106,-3.0885235363133106,-3.0638734084283,-3.0005862973122435,-2.9560133827562165,-2.6615456037497083,-2.513162774896494,-2.3827156015865003,-2.3827156015865003,-2.3642372122147135,-2.3642372122147135,-2.345396911413762,-2.3362258616312004,-2.3182083310503665,-2.309361851201231,-2.3001966471535185,-2.3001966471535185,-2.3001966471535185,-2.3001966471535185,-2.2829981519451303,-2.2829981519451303,-2.2653492504764032,-2.2204814236916475,-2.2028621017940218,-2.122901231740662,-2.0609650471898577,-2.0441213110412884,-2.022224749526379,-2.022224749526379,-2.022224749526379,-2.022224749526379,-2.022224749526379,-2.022224749526379,-2.022224749526379,-2.022224749526379,-2.022224749526379,-2.022224749526379,-2.022224749526379,-2.022224749526379,-2.022224749526379,-2.022224749526379,-2.022224749526379,-2.022224749526379,-2.022224749526379,-2.022224749526379,-2.022224749526379,-2.022224749526379,-2.022224749526379,-1.9884227379491444,-1.9052120664385654,-1.7365044723272849,-1.4296161179460807,-1.293529023640267,-1.0181342719470914,-0.9282627874314189,-0.8653627265357526,-0.8636996251942897,-0.8553335642822804,-0.8553335642822804,-0.8553335642822804,-0.8470806567466322,-0.8470806567466322,-0.8470806567466322,-0.8470806567466322,-0.8470806567466322,-0.8470806567466322,-0.8470806567466322,-0.8470806567466322,-0.8470806567466322,-0.8470806567466322,-0.8470806567466322,-0.8470806567466322,-0.8470806567466322,-0.8401937132896533,-0.8260753432744545,-0.8032614824618571,-0.7564207695458869,-0.7236456251418106,-0.5309624032628273,-0.36378327178575987,-0.3344157396436698,-0.3175614705823806,-0.2886579574379695,-0.2762457399423601,-0.2637356813724354,-0.2637356813724354,-0.2637356813724354,-0.2637356813724354,-0.2511305814464926,-0.2511305814464926,-0.2511305814464926,-0.2511305814464926,-0.2511305814464926,-0.22564727234297965,-0.22564727234297965,-0.1867888025554807,-0.17368127529591515,-0.14725730388511415,-0.1339490649988111,-0.1339490649988111,-0.12058234602214224,-0.12058234602214224,-0.12058234602214224,-0.12058234602214224,-0.10716156700157953,-0.10716156700157953,-0.10716156700157953,-0.10716156700157953,-0.10716156700157953,-0.10716156700157953,-0.10716156700157953,-0.10716156700157953,-0.10716156700157953,-0.10716156700157953,-0.10716156700157953,-0.10716156700157953,-0.10716156700157953,-0.10716156700157953,-0.10716156700157953,-0.10716156700157953,-0.10716156700157953,-0.10716156700157953,-0.10716156700157953,-0.10716156700157953,-0.10716156700157953,-0.10716156700157953,-0.10716156700157953,-0.10716156700157953,-0.10716156700157953,-0.10716156700157953,-0.10716156700157953,-0.10716156700157953,-0.10716156700157953,-0.10716156700157953,-0.06533655747561884,-0.05192670530366872,-0.011540958626786058,0.0019569446642968558,-6.254207913328025,-6.22718746414076,-6.200206412952056,-6.200206412952056,-6.18674288880612,-6.18674288880612,-6.18674288880612,-6.18674288880612,-6.18674288880612,-6.18674288880612,-6.18674288880612,-6.18674288880612,-6.18674288880612,-6.18674288880612,-6.18674288880612,-6.173303814172794,-6.159893962000845,-6.1198864713750565,-6.067228643409114,-6.0283962317846695,-5.940587261111327,-5.887952352897248,-5.699415686190129,-5.6339584273452035,-5.583064077892016,-5.559469637131322,-5.459960423414319,-5.386427819338886,-5.347906985627885,-5.318997293357679,-5.308297824448718,-5.297430623541069,-5.275187757074631,-5.263809773927003,-5.058252301888726,-4.845900695750331,-4.813814894422261,-4.747838425958681,-4.731760973185031,-4.6995392203767645,-4.651164704097875,-4.555088358847334,-4.386046441309205,-4.286332141308145,-4.245901814415675,-4.2327502604524945,-4.219763977532322,-4.200285921715794,-4.179245625053975,-4.179245625053975,-4.179245625053975,-4.179245625053975,-4.179245625053975,-4.179245625053975,-4.179245625053975,-4.179245625053975,-4.179245625053975,-4.179245625053975,-4.179245625053975,-4.179245625053975,-4.179245625053975,-4.179245625053975,-4.179245625053975,-4.179245625053975,-4.179245625053975,-4.179245625053975,-4.179245625053975,-4.179245625053975,-4.179245625053975,-4.179245625053975,-4.179245625053975,-4.179245625053975,-4.179245625053975,-4.179245625053975,-4.179245625053975,-4.179245625053975,-4.179245625053975,-4.179245625053975,-4.179245625053975,-4.179245625053975,-4.179245625053975,-4.179245625053975,-4.179245625053975,-4.179245625053975,-4.179245625053975,-4.179245625053975,-4.179245625053975,-4.179245625053975,-4.179245625053975,-4.179245625053975,-4.179245625053975,-4.179245625053975,-4.179245625053975,-4.179245625053975,-4.179245625053975,-4.179245625053975,-4.179245625053975,-4.158615814883021,-3.9591615857849813,-3.569684016286021,-3.4251068194727505,-3.3015124406158542,-3.1981205534164365,-3.182921723856856,-3.154843661851234,-3.154843661851234,-3.154843661851234,-3.154843661851234,-3.154843661851234,-3.1403858963316527,-3.140005668213094,-3.1263130331110975,-3.1261279507515596,-3.1126152597382317,-3.1126152597382317,-3.099458124265476,-3.099458124265476,-3.099458124265476,-3.099458124265476,-3.099458124265476,-3.099458124265476,-3.099458124265476,-3.099458124265476,-3.099458124265476,-3.099458124265476,-3.099458124265476,-3.0863055424853094,-3.0736739166411926,-3.061378092334813,-3.061378092334813,-3.061378092334813,-3.061378092334813,-3.061378092334813,-3.061378092334813,-3.061378092334813,-3.061378092334813,-3.061378092334813,-3.061378092334813,-3.061378092334813,-3.061378092334813,-3.061378092334813,-3.061378092334813,-3.061378092334813,-3.061378092334813,-3.061378092334813,-3.061378092334813,-3.0486002819038873,-3.0063503968471528,-2.9496888008878592,-2.9231351018570844,-2.7198545941009105,-2.6489676507374256,-2.626372626650727,-2.6152725433914092,-2.598163946679204,-2.598163946679204,-2.5872483859229156,-2.559320934415939,-2.542032496742442,-2.5246126561906643,-2.5141963662596942,-2.50392595241082,-2.493800493000547,-2.4865687372447,-2.4397827121444684,-2.4147124371431747,-2.397277678979239,-2.379800157951725,-2.370667991732314,-2.370667991732314,-2.370667991732314,-2.370667991732314,-2.370667991732314,-2.3528525048624607,-2.3528525048624607,-2.3272170963407834,-2.3011360550500313,-2.257156513702328,-2.2106310908794677,-2.2106310908794677,-2.2028621017940218,-2.175244815912479,-2.167865455436867,-2.167865455436867,-2.167865455436867,-2.167865455436867,-2.167865455436867,-2.167865455436867,-2.167865455436867,-2.167865455436867,-2.167865455436867,-2.167865455436867,-2.167865455436867,-2.167865455436867,-2.167865455436867,-2.1606336996810205,-2.1606336996810205,-2.1606336996810205,-2.1606336996810205,-2.1606336996810205,-2.1606336996810205,-2.1606336996810205,-2.1606336996810205,-2.1606336996810205,-2.1606336996810205,-2.1606336996810205,-2.1606336996810205,-2.1606336996810205,-2.1606336996810205,-2.1606336996810205,-2.1606336996810205,-2.1606336996810205,-2.1606336996810205,-2.1606336996810205,-2.1606336996810205,-2.1606336996810205,-2.1606336996810205,-2.1606336996810205,-2.1606336996810205,-2.1606336996810205,-2.1606336996810205,-2.1606336996810205,-2.1606336996810205,-2.1606336996810205,-2.1606336996810205,-2.1606336996810205,-2.1606336996810205,-2.1606336996810205,-2.1606336996810205,-2.1606336996810205,-2.1606336996810205,-2.1606336996810205,-2.1606336996810205,-2.1606336996810205,-2.1606336996810205,-2.1606336996810205,-2.1606336996810205,-2.1606336996810205,-2.1606336996810205,-2.1606336996810205,-2.1606336996810205,-2.118751877960796,-2.0557386139418687,-2.018286352417042,-1.992480259023968,-1.9388983781683171,-1.6859733200564895,-1.5418189329433352,-1.3387737156898707,-1.3107282657474384,-1.2557674912260177,-1.2289177050629503,-1.043503138733029,-0.9675141027686331,-0.9572176768230092,-0.9470596754599825,-0.9470596754599825,-0.9470596754599825,-0.9470596754599825,-0.9470596754599825,-0.9470596754599825,-0.9470596754599825,-0.9470596754599825,-0.9370393801301544,-0.9370393801301544,-0.9370393801301544,-0.9370393801301544,-0.9370393801301544,-0.9370393801301544,-0.9370393801301544,-0.92715598102117,-0.92715598102117,-0.8786159402372418,-0.8454703521803841,-0.6145237149417229,-0.5137731045281493,-0.36378327178575987,-0.3466628416215043,-0.30096969829499365,-0.28464325836513726,-0.25635202633057386,-0.25635202633057386,-0.24061168406936506,-0.2372746552993643,-0.22514735570407307,-0.22514735570407307,-0.22514735570407307,-0.22514735570407307,-0.22514735570407307,-0.21294317483284342,-0.197821454202324,-0.18298024339105812,-0.1708512512214293,-0.1586623779528047,-0.14641682669186107,-0.14641682669186107,-0.13211451068601932,-0.11991255375793575,-0.10766576863952526,-0.10766576863952526,-0.10766576863952526,-0.10766576863952526,-0.10766576863952526,-0.10766576863952526,-0.10766576863952526,-0.10766576863952526,-0.10766576863952526,-0.10766576863952526,-0.10766576863952526,-0.10766576863952526,-0.10766576863952526,-0.10766576863952526,-0.10766576863952526,-0.10766576863952526,-0.10766576863952526,-0.10766576863952526,-0.10766576863952526,-0.10766576863952526,-0.10766576863952526,-0.10766576863952526,-0.10766576863952526,-0.10766576863952526,-0.10766576863952526,-0.10766576863952526,-0.10766576863952526,-0.10766576863952526,-0.10766576863952526,-0.10766576863952526,0.00459198467884292,-6.160366700698688,-5.939450251936716,-5.833802562125282,-5.544526789270929,-5.442500032677654,-5.318438321923442,-5.275969967217926,-5.235066569061675,-5.223831086803712,-5.205600287739752,-5.194468898431175,-5.194468898431175,-5.194468898431175,-5.194468898431175,-5.194468898431175,-5.187330451402534,-5.180135363408749,-5.172883711466368,-5.172883711466368,-5.1655755976019435,-5.1655755976019435,-5.1655755976019435,-5.1655755976019435,-5.1655755976019435,-5.1655755976019435,-5.150790521500593,-5.120550255253466,-5.092848796059271,-5.036851816884801,-4.828224084772067,-4.715315651018151,-4.5399593232294695,-4.435730227284255,-4.214582676748083,-4.098666300455567,-3.92200881672755,-3.9060132524755664,-3.88214174014389,-3.866278049607222,-3.8504303198586967,-3.8504303198586967,-3.826137453579345,-3.8188143521662283,-3.811614873777233,-3.8030617167929237,-3.8030617167929237,-3.8030617167929237,-3.8030617167929237,-3.8030617167929237,-3.8030617167929237,-3.8030617167929237,-3.8030617167929237,-3.8030617167929237,-3.8030617167929237,-3.8030617167929237,-3.8030617167929237,-3.8030617167929237,-3.8030617167929237,-3.8030617167929237,-3.8030617167929237,-3.8030617167929237,-3.8030617167929237,-3.8030617167929237,-3.8030617167929237,-3.8030617167929237,-3.8030617167929237,-3.8030617167929237,-3.8030617167929237,-3.8030617167929237,-3.8030617167929237,-3.8030617167929237,-3.8030617167929237,-3.8030617167929237,-3.8030617167929237,-3.8030617167929237,-3.8030617167929237,-3.8030617167929237,-3.8030617167929237,-3.7785844971173415,-3.7696901954498854,-3.7422604423843877,-3.7422604423843877,-3.732864745721053,-3.72334122412744,-3.707090264813095,-3.697360545815793,-3.6909407460186485,-3.6909407460186485,-3.665034184058577,-3.665034184058577,-3.6449377709710777,-3.6449377709710777,-3.6449377709710777,-3.6449377709710777,-3.62435410205359,-3.5976499815907674,-3.587015142530139,-3.587015142530139,-3.565393731561768,-3.565393731561768,-3.5332786088712664,-3.5111377054046518,-3.499908862944308,-3.4771412621451665,-3.4771412621451665,-3.465605647565142,-3.465605647565142,-3.442239667158974,-3.4304132655481236,-3.3667400092938657,-3.351551700324395,-3.351551700324395,-3.3272081412294554,-3.3149368881165353,-3.3149368881165353,-3.3149368881165353,-3.3026035476569473,-3.2902114270217195,-3.2902114270217195,-3.2652645881334967,-3.2652645881334967,-3.252716984134862,-3.252716984134862,-3.24012481795347,-3.214821977845485,-3.214821977845485,-3.214821977845485,-3.214821977845485,-3.214821977845485,-3.214821977845485,-3.214821977845485,-3.214821977845485,-3.214821977845485,-3.214821977845485,-3.214821977845485,-3.214821977845485,-3.1766302375725757,-3.1766302375725757,-3.1766302375725757,-3.1766302375725757,-3.1766302375725757,-3.1766302375725757,-3.1766302375725757,-3.1766302375725757,-3.1766302375725757,-3.1766302375725757,-3.1766302375725757,-3.1766302375725757,-3.1766302375725757,-3.1766302375725757,-3.1766302375725757,-3.1766302375725757,-3.1766302375725757,-3.1766302375725757,-3.1766302375725757,-3.1766302375725757,-3.1766302375725757,-3.1766302375725757,-3.1766302375725757,-3.1766302375725757,-3.1766302375725757,-3.1766302375725757,-3.1766302375725757,-3.1766302375725757,-3.1766302375725757,-3.1766302375725757,-3.1766302375725757,-3.1766302375725757,-3.1766302375725757,-3.1766302375725757,-3.1766302375725757,-3.1766302375725757,-3.1766302375725757,-3.1766302375725757,-3.047771232185025,-2.7908647053415896,-2.6422109968016403,-2.4941872653657122,-2.415872978208221,-2.4039889876105613,-2.3594639787760374,-2.337743023372509,-2.296923336422008,-2.296923336422008,-2.2672889412195754,-2.229490188982065,-2.229490188982065,-2.2208242416418793,-2.2016673592322578,-2.1826026571208432,-2.1716222683637536,-2.1716222683637536,-2.1716222683637536,-2.1716222683637536,-2.1716222683637536,-2.1716222683637536,-2.160463283868082,-2.160463283868082,-2.160463283868082,-2.160463283868082,-2.160463283868082,-2.160463283868082,-2.160463283868082,-2.160463283868082,-2.160463283868082,-2.160463283868082,-2.160463283868082,-2.160463283868082,-2.160463283868082,-2.160463283868082,-2.152544897332544,-2.129821536490902,-2.0944032832340485,-2.037713424379395,-1.8014485623515926,-1.6773466469288358,-1.5418189329433352,-1.4263922725764102,-1.3978934835551184,-1.3978934835551184,-1.3837289618216495,-1.3837289618216495,-1.3837289618216495,-1.3837289618216495,-1.3837289618216495,-1.3837289618216495,-1.3837289618216495,-1.3837289618216495,-1.3837289618216495,-1.3837289618216495,-1.3837289618216495,-1.3837289618216495,-1.3837289618216495,-1.3555960925321937,-1.3277582493795137,-1.2866365423225163,-1.1766174831551623,-1.1638506214470619,-1.1333300398707076,-1.1208283586910897,-1.1208283586910897,-1.1208283586910897,-1.1208283586910897,-1.1208283586910897,-1.1208283586910897,-1.1208283586910897,-1.1208283586910897,-1.1208283586910897,-1.1208283586910897,-1.1208283586910897,-1.115191439816459,-1.115191439816459,-1.115191439816459,-1.115191439816459,-1.115191439816459,-1.115191439816459,-1.115191439816459,-1.115191439816459,-1.115191439816459,-1.115191439816459,-1.115191439816459,-1.115191439816459,-1.115191439816459,-1.115191439816459,-1.115191439816459,-1.0037747251177107,-0.8362507552581242,-0.6284117108726903,-0.3372781665792157,-0.24593244762911137,-0.19233704849623035,-0.16604287355336034,-0.14217121156462031,-0.11810096153684135,-0.11810096153684135,-0.10599935600236154,-0.06946876536107194,-0.056181998768145114,-0.04406317145155825,-0.03192281442642653,-0.03192281442642653,-0.019764457458370188,-0.019764457458370188,-0.007591662061980031,-0.007591662061980031,-0.007591662061980031,-0.007591662061980031,0.00459198467884292,0.00459198467884292,0.00459198467884292,0.00459198467884292,0.00459198467884292,0.00459198467884292,0.00459198467884292,0.00459198467884292,0.00459198467884292,0.00459198467884292,0.00459198467884292,0.00459198467884292,0.00459198467884292,0.00459198467884292,0.00459198467884292,0.00459198467884292,0.00459198467884292,0.00459198467884292,0.00459198467884292,0.00459198467884292,0.00459198467884292,0.00459198467884292,0.00459198467884292,0.00459198467884292,0.00459198467884292,0.00459198467884292,0.00459198467884292,0.00459198467884292,0.00459198467884292,0.00459198467884292,0.00459198467884292,0.00459198467884292,0.00459198467884292,0.00459198467884292,0.00459198467884292,0.00459198467884292,0.00459198467884292,0.00459198467884292,0.00459198467884292,0.00459198467884292,0.00459198467884292,0.00459198467884292,0.00459198467884292,0.00459198467884292,0.00459198467884292,0.00459198467884292,0.00459198467884292,0.00459198467884292,0.00459198467884292,0.00459198467884292,0.00459198467884292,0.00459198467884292,0.00459198467884292,0.00459198467884292,0.00459198467884292,0.00459198467884292,0.00459198467884292,0.00459198467884292,0.00459198467884292,0.00459198467884292,0.00459198467884292,0.00459198467884292,0.00459198467884292,0.00459198467884292,0.00459198467884292,0.00459198467884292,0.00459198467884292,0.00459198467884292,0.00459198467884292,0.00459198467884292,0.00459198467884292,0.00459198467884292,0.00459198467884292,0.00459198467884292,0.00459198467884292,0.00459198467884292,0.00459198467884292,0.00459198467884292,0.00459198467884292,0.00459198467884292,0.00459198467884292,0.00459198467884292,0.00459198467884292,0.00459198467884292,0.00459198467884292,0.00459198467884292,0.00459198467884292,0.00459198467884292,0.00459198467884292,0.00459198467884292,0.00459198467884292,0.00459198467884292,0.00459198467884292,0.00459198467884292,0.00459198467884292,0.00459198467884292,0.00459198467884292,0.00459198467884292,0.00459198467884292,0.00459198467884292,0.00459198467884292,0.00459198467884292,-6.254207913328025,-6.242013395879773,-6.181167348024905,-6.085106687326648,-6.061507154665639,-6.038122941031238,-6.014976313364365,-5.9890007958762,-5.947723348478163,-5.901217525501115,-5.880710767221547,-5.796209961730803,-5.779197157062928,-5.76796528024052,-5.756865196981202,-5.711628589202034,-5.711628589202034,-5.676768297183511,-5.66620530978