[{"nsides":6,"instructions":"Let's define a new operation <img src=\"./images/hexagon_symbol.png\" style=\"width:14px;height:14px\">. This operation will give us a way of combining two of the numbers 0, 1, 2, 3, 4, 5 to get another one of them back. Consider the hexagon at the right, where I've labeled each point with one of the numbers. To perform <img src=\"./images/hexagon_symbol.png\" style=\"width:14px;height:14px\">, you can use the interactive diagram on the right, or perform the operation in your mind. or perform the operation in your mind. Point the arrow at the first number on the hexagon, then move the arrow the second number of points clockwise around the hexagon. The number the arrow arrives at is your result. (The operation is called <img src=\"./images/hexagon_symbol.png\" style=\"width:14px;height:14px\"> because it uses the hexagon, which has 6 sides.) <br /><br />For example, 3 <img src=\"./images/hexagon_symbol.png\" style=\"width:14px;height:14px\"> 5 = 2,  because  5 steps clockwise from 3 on the hexagon brings us to 2. So 3 <img src=\"./images/hexagon_symbol.png\" style=\"width:14px;height:14px\"> 5 = 2.<br /><br />Similarly, 1 <img src=\"./images/hexagon_symbol.png\" style=\"width:14px;height:14px\"> 4 = 5, because 4 steps clockwise from 1 brings us to 5. <br /><br />Click \"Continue\" when you are ready to move on.","orientation_history":[0,[0,0,0,0,0,0,-6.233195719941746,-6.208232117838723,-6.133835519013904,-6.109300565951169,-6.1128805029249635,-6.042105541263879,-6.024447332691764,-5.9580193427305534,-5.886122754702545,-5.814742177140928,-5.736356233746255,-5.658140300158912,-5.58007120581162,-5.457868085173133,-5.368692412053618,-5.330895295559054,-5.303014076194879,-5.303014076194879,-5.303014076194879,-5.303014076194879,-5.303014076194879,-5.303014076194879,-5.303014076194879,-5.303014076194879,-5.303014076194879,-5.303014076194879,-5.303014076194879,-5.303014076194879,-5.303014076194879,-5.303014076194879,-5.303014076194879,-5.314702379041532,-5.314702379041532,-5.3556836055963535,-5.458708774340358,-5.586584357306926,-5.697503518577861,-5.828428234463978,-5.936439959164024,-6.0260866754855105,-6.121124339250478,-6.175049281672225,-6.209049779144646,-6.2417985392526605,-6.258190513560666,-6.258190513560666,-6.258190513560666,-6.258190513560666,-6.258190513560666,-6.258190513560666,-6.258190513560666,-6.258190513560666,-6.258190513560666,-6.258190513560666,-6.258190513560666,-6.258190513560666,-6.258190513560666,-6.258190513560666,-6.258190513560666,-6.258190513560666,-6.258190513560666,-6.258190513560666,-6.258190513560666,-6.258190513560666,-6.258190513560666,-6.258190513560666,-6.258190513560666,-6.258190513560666,-6.258190513560666,-6.258190513560666,-6.258190513560666,-6.258190513560666,-6.258190513560666,-6.258190513560666,-6.258190513560666,-6.258190513560666,-6.258190513560666,-6.258190513560666,-6.258190513560666,-6.258190513560666,-6.258190513560666,-6.258190513560666,-6.258190513560666,-6.258190513560666,-6.258190513560666,-6.258190513560666,-6.258190513560666,-6.258190513560666,-6.258190513560666,-6.258190513560666,-6.258190513560666,-6.258190513560666,-6.258190513560666,-6.258190513560666,-6.258190513560666,-6.258190513560666,-6.258190513560666,-6.258190513560666,-6.258190513560666,-6.258190513560666,-6.258190513560666,-6.258190513560666,-6.258190513560666,-6.258190513560666,-6.258190513560666,-6.258190513560666,-6.258190513560666,-6.258190513560666,-6.258190513560666,-6.258190513560666,-6.258190513560666,-6.258190513560666,0]],"rt":48981,"trial_type":"polygon-arrow-instructions","trial_index":0,"trial_index_global":1,"time_elapsed":59602,"internal_chunk_id":"0-0"},{"nsides":6,"question":"Now try one on your own! What is 4 <img src=\"./images/hexagon_symbol.png\" style=\"width:14px;height:14px\"> 5? <br /><br /> (Remember, to perform <img src=\"./images/hexagon_symbol.png\" style=\"width:14px;height:14px\">, you can use the interactive diagram on the right, or perfor m the op eration in your mind. Point the arrow at the first number on the hexagon, then move the arrow the second number of points clockwise around the hexagon. The number the arrow arrives at is your result.)","response_type":"free","response_choices":[],"correct_response":"3","response":"3","orientation_history":[[0]],"response_history":["3"],"rt":16481,"trial_type":"polygon-arrow-question","trial_index":0,"trial_index_global":2,"time_elapsed":76085,"internal_chunk_id":"0-0.2-0"},{"nsides":6,"feedback":"Correct! 4 <img src=\"./images/hexagon_symbol.png\" style=\"width:14px;height:14px\"> 5 = 3 because 5 steps clockwise on the hexagon from 4 brings us to 3","orientation_history":[0],"rt":1531,"trial_type":"polygon-arrow-feedback","trial_index":0,"trial_index_global":3,"time_elapsed":77617,"internal_chunk_id":"0-0.2-0"},{"nsides":6,"question":"What is 3 <img src=\"./images/hexagon_symbol.png\" style=\"width:14px;height:14px\"> 2? <br /><br /> (Remember, to perform <img src=\"./images/hexagon_symbol.png\" style=\"width:14px;height:14px\">, you can use the interactive diagram on the right, or perform the operation in your mind. Point the arrow at the first number on the hexagon, then move the arrow the second number of points clockwise around the hexagon. The number the arrow arrives at is your result.)","response_type":"free","response_choices":[],"correct_response":"5","response":"5","orientation_history":[[0]],"response_history":["5"],"rt":5404,"trial_type":"polygon-arrow-question","trial_index":0,"trial_index_global":4,"time_elapsed":83022,"internal_chunk_id":"0-0.2-0"},{"nsides":6,"feedback":"Correct! 3 <img src=\"./images/hexagon_symbol.png\" style=\"width:14px;height:14px\"> 2 = 5 because 2 steps clockwise on the hexagon from 3 brings us to 5","orientation_history":[0],"rt":1063,"trial_type":"polygon-arrow-feedback","trial_index":0,"trial_index_global":5,"time_elapsed":84085,"internal_chunk_id":"0-0.2-0"},{"nsides":6,"question":"What is 1 <img src=\"./images/hexagon_symbol.png\" style=\"width:14px;height:14px\"> 5? <br /><br /> (Remember, to perform <img src=\"./images/hexagon_symbol.png\" style=\"width:14px;height:14px\">, you can use the interactive diagram on the right, or perform the operation in your mind. Point the arrow at the first number on the hexagon, then move the arrow the second number of points clockwise around the hexagon. The number the arrow arrives at is your result.)","response_type":"free","response_choices":[],"correct_response":"0","response":"0","orientation_history":[[0]],"response_history":["0"],"rt":5333,"trial_type":"polygon-arrow-question","trial_index":0,"trial_index_global":6,"time_elapsed":89418,"internal_chunk_id":"0-0.2-0"},{"nsides":6,"feedback":"Correct! 1 <img src=\"./images/hexagon_symbol.png\" style=\"width:14px;height:14px\"> 5 = 0 because 5 steps clockwise on the hexagon from 1 brings us to 0","orientation_history":[0],"rt":888,"trial_type":"polygon-arrow-feedback","trial_index":0,"trial_index_global":7,"time_elapsed":90307,"internal_chunk_id":"0-0.2-0"},{"nsides":6,"question":"What is 1 <img src=\"./images/hexagon_symbol.png\" style=\"width:14px;height:14px\"> 1? <br /><br /> (Remember, to perform <img src=\"./images/hexagon_symbol.png\" style=\"width:14px;height:14px\">, you can use the interactive diagram on the right, or perform the operation in your mind. Point the arrow at the first number on the hexagon, then move the arrow the second number of points clockwise around the hexagon. The number the arrow arrives at is your result.)","response_type":"free","response_choices":[],"correct_response":"2","response":"2","orientation_history":[[0]],"response_history":["2"],"rt":2603,"trial_type":"polygon-arrow-question","trial_index":0,"trial_index_global":8,"time_elapsed":92910,"internal_chunk_id":"0-0.2-0"},{"nsides":6,"feedback":"Correct! 1 <img src=\"./images/hexagon_symbol.png\" style=\"width:14px;height:14px\"> 1 = 2 because 1 steps clockwise on the hexagon from 1 bri ngs us t o 2","orientation_history":[0],"rt":1007,"trial_type":"polygon-arrow-feedback","trial_index":0,"trial_index_global":9,"time_elapsed":93918,"internal_chunk_id":"0-0.2-0"},{"nsides":6,"question":"What is 3 <img src=\"./images/hexagon_symbol.png\" style=\"width:14px;height:14px\"> 0? <br /><br /> (Remember, to perform <img src=\"./images/hexagon_symbol.png\" style=\"width:14px;height:14px\">, you can use the interactive diagram on the right, or perform the operation in your mind. Point the arrow at the first number on the hexagon, then move the arrow the second number of points clockwise around the hexagon. The number the arrow arrives at is your result.)","response_type":"free","response_choices":[],"correct_response":"3","response":"3","orientation_history":[[0]],"response_history":["3"],"rt":2507,"trial_type":"polygon-arrow-question","trial_index":0,"trial_index_global":10,"time_elapsed":96426,"internal_chunk_id":"0-0.2-0"},{"nsides":6,"feedback":"Correct! 3 <img src=\"./images/hexagon_symbol.png\" style=\"width:14px;height:14px\"> 0 = 3 because 0 steps clockwise on the hexagon from 3 brings us to 3","orientation_history":[0],"rt":824,"trial_type":"polygon-arrow-feedback","trial_index":0,"trial_index_global":11,"time_elapsed":97250,"internal_chunk_id":"0-0.2-0"},{"nsides":6,"question":"What is 4 <img src=\"./images/hexagon_symbol.png\" style=\"width:14px;height:14px\"> 4? <br /><br /> (Remember, to perform <img src=\"./images/hexagon_symbol.png\" style=\"width:14px;height:14px\">, you can use the interactive diagram on the right, or perform the operation in your mind. Point the arrow at the first number on the hexagon, then move the arrow the second number of points clockwise around the hexagon. The number the arrow arrives at is your result.)","response_type":"free","response_choices":[],"correct_response":"2","response":"2","orientation_history":[[0]],"response_history":["2"],"rt":4088,"trial_type":"polygon-arrow-question","trial_index":0,"trial_index_global":12,"time_elapsed":101339,"internal_chunk_id":"0-0.2-0"},{"nsides":6,"feedback":"Correct! 4 <img src=\"./images/hexagon_symbol.png\" style=\"width:14px;height:14px\"> 4 = 2 because 4 steps clockwise on the hexagon from 4 brings us to 2","orientation_history":[0],"rt":722,"trial_type":"polygon-arrow-feedback","trial_index":0,"trial_index_global":13,"time_elapsed":102061,"internal_chunk_id":"0-0.2-0"},{"nsides":6,"question":"What is 1 <img src=\"./images/hexagon_symbol.png\" style=\"width:14px;height:14px\"> 3? <br /><br /> (Remember, to perform <img src=\"./images/hexagon_symbol.png\" style=\"width:14px;height:14px\">, you can use the interactive diagram on the right, or perform the operation in your mind. Point the arrow at the first number on the hexagon, then move the arrow the second number of points clockwise around the hexagon. The number the arrow arrives at is your result.)","response_type":"free","response_choices":[],"correct_response":"4","response":"4","orientation_history":[[0]],"response_history":["4"],"rt":4008,"trial_type":"polygon-arrow-question","trial_index":0,"trial_index_global":14,"time_elapsed":106069,"internal_chunk_id":"0-0.2-0"},{"nsides":6,"feedback":"Correct! 1 <img src=\"./images/hexagon_symbol.png\" style=\"width:14px;height:14px\"> 3 = 4 because 3 steps clockwise on the hexagon from 1 brings us to 4","orientation_history":[0],"rt":657,"trial_type":"polygon-arrow-feedback","trial_index":0,"trial_index_global":15,"time_elapsed":106727,"internal_chunk_id":"0-0.2-0"},{"nsides":6,"question":"What is 4 <img src=\"./images/hexagon_symbol.png\" style=\"width:14px;height:14px\"> 3? <br /><br /> (Remember, to perform <img src=\"./images/hexagon_symbol.png\" style=\"width:14px;height:14px\">, you can use the interactive diagram on the right, or perform the operation in your mind. Point the arrow at the first number on the hexagon, then move the arrow the second number of points clockwise around the hexagon. The number the arrow arri ves at i s your result.)","response_type":"free","response_choices":[],"correct_response":"1","response":"1","orientation_history":[[0]],"response_history":["1"],"rt":4603,"trial_type":"polygon-arrow-question","trial_index":0,"trial_index_global":16,"time_elapsed":111330,"internal_chunk_id":"0-0.2-0"},{"nsides":6,"feedback":"Correct! 4 <img src=\"./images/hexagon_symbol.png\" style=\"width:14px;height:14px\"> 3 = 1 because 3 steps clockwise on the hexagon from 4 brings us to 1","orientation_history":[0],"rt":649,"trial_type":"polygon-arrow-feedback","trial_index":0,"trial_index_global":17,"time_elapsed":111981,"internal_chunk_id":"0-0.2-0"},{"nsides":6,"question":"What is 0 <img src=\"./images/hexagon_symbol.png\" style=\"width:14px;height:14px\"> 5? <br /><br /> (Remember, to perform <img src=\"./images/hexagon_symbol.png\" style=\"width:14px;height:14px\">, you can use the interactive diagram on the right, or perform the operation in your mind. Point the arrow at the first number o n the he xagon, then move the arrow the second number of points clockwise around the hexagon. The number the arrow arrives at is your result.)","response_type":"free","response_choices":[],"correct_response":"5","response":"5","orientation_history":[[0]],"response_history":["5"],"rt":3776,"trial_type":"polygon-arrow-question","trial_index":0,"trial_index_global":18,"time_elapsed":115757,"internal_chunk_id":"0-0.2-0"},{"nsides":6,"feedback":"Correct! 0 <img src=\"./images/hexagon_symbol.png\" style=\"width:14px;height:14px\"> 5 = 5 because 5 steps clockwise on the hexagon from 0 brings us to 5","orientation_history":[0],"rt":1174,"trial_type":"polygon-arrow-feedback","trial_index":0,"trial_index_global":19,"time_elapsed":116932,"internal_chunk_id":"0-0.2-0"},{"nsides":6,"question":"What is 2 <img src=\"./images/hexagon_symbol.png\" style=\"width:14px;height:14px\"> 5? <br /><br /> (Remember, to perform <img src=\"./images/hexagon_symbol.png\" style=\"width:14px;height:14px\">, you can  use the  interactive diagram on the right, or perform the operation in your mind. Point the arrow at the first number on the hexagon, then move the arrow the second number of points clockwise around the hexagon. The number the arrow arrives at is your result.)","response_type":"free","response_choices":[],"correct_response":"1","response":"1","orientation_history":[[0]],"response_history":["1"],"rt":6665,"trial_type":"polygon-arrow-question","trial_index":0,"trial_index_global":20,"time_elapsed":123598,"internal_chunk_id":"0-0.2-0"},{"nsides":6,"feedback":"Correct! 2 <img src=\"./images/hexagon_symbol.png\" style=\"width:14px;height:14px\"> 5 = 1 because 5 steps clockwise on the hexagon from 2 brings us to 1","orientation_history":[0],"rt":697,"trial_type":"polygon-arrow-feedback","trial_index":0,"trial_index_global":21,"time_elapsed":124296,"internal_chunk_id":"0-0.2-0"},{"nsides":6,"instructions":"Now we're going to discuss a couple special properties of this new operation, <img s rc=\"./images/hexagon_symbol.png\" style=\"width:14px;height:14px\"> that we've learned. First, notice that the number 0 behaves in a special way under <img src=\"./images/hexagon_symbol.png\" style=\"width:14px;height:14px\">. Whenever we combine 0 with anything else, we get that same thing back. We'll say that 0 is the <i>identity</i> under <img src=\"./images/hexagon_symbol.png\" style=\"width:14px;height:14px\">, because when you combine it with something it gives you that identical thing back.","orientation_history":[0],"rt":13103,"trial_type":"polygon-arrow-instructions","trial_index":0,"trial_index_global":22,"time_elapsed":137400,"internal_chunk_id":"0-0"},{"nsides":6,"instructions":"Now that we know 0 is the identity under <img src=\"./images/hexagon_symbol.png\" style=\"width:14px;height:14px\">, we're going to make a new definition. We'll say that the <i>inverse</i> of a number is the thing that you combine with it to produce the identity under our operation. For example,  5 <img  src=\"./images/hexagon_symbol.png\" style=\"width:14px;height:14px\"> 1 = 0, so we say 1 is the inverse of 5 under <img src=\"./images/hexagon_symbol.png\" style=\"width:14px;height:14px\">, (remember 0 is the identity under <img src=\"./images/hexagon_symbol.png\" style=\"width:14px;height:14px\">). Similarly, 3 is its own inverse under <img src=\"./images/hexagon_symbol.png\" style=\"width:14px;height:14px\">, because 3 <img src=\"./images/hexagon_symbol.png\" style=\"width:14px;height:14px\"> 3 = 0.","orientation_history":[0],"rt":30045,"trial_type":"polygon-arrow-instructions","trial_index":0,"trial_index_global":23,"time_elapsed":167446,"internal_chunk_id":"0-0"},{"nsides":6,"question":"Now you try! What is the inverse of 4 under <img src=\"./images/hexagon_symbol.png\" style=\"width:14px;height:14px\">? <br /><br /> (Remember, the inverse of an element is the thing which you combine with it to produce the identity.)","response_type":"free","response_choices":[],"correct_response":"2","response":"2","orientation_history":[[0]],"response_history":["2"],"rt":4072,"trial_type":"polygon-arrow-question","trial_index":0,"trial_index_global":24,"time_elapsed":171519,"internal_chunk_id":"0-0.6-0"},{"nsides":6,"feedback":"Correct! The inverse of 4 under <img src=\"./images/hexagon_symbol.png\" style=\"width:14px;height:14px\"> is 2 because 2 steps clockwise on the hexagon from 4 brings us to 0, and 0 is the identity under <img src=\"./images/hexagon_symbol.png\" style=\"width:14px;height:14px\">.","orientation_history":[0],"rt":1229,"trial_type":"polygon-arrow-feedback","trial_index":0,"trial_index_global":25,"time_elapsed":172749,"internal_chunk_id":"0-0.6-0"},{"nsides":6,"question":"What is the inverse of 1 under <img src=\"./images/hexagon_symbol.png\" style=\"width:14px;height:14px\">? <br /><br /> (Remember, the inverse of an element is the thing which you combine with it to produce the identity.)","response_type":"free","response_choices":[],"correct_response":"5","response":"5","orientation_history":[[0]],"response_history":["5"],"rt":5547,"trial_type":"polygon-arrow-question","trial_index":0,"trial_index_global":26,"time_elapsed":178296,"internal_chunk_id":"0-0.6-0"},{"nsides":6,"feedback":"Correct! The inverse of 1 under <img src=\"./images/hexagon_symbol.png\" style=\"width:14px;height:14px\"> is 5 because 5 steps clockwise on the hexagon from 1 brings us to 0, and 0 is the identity under <img src=\"./images/hexagon_symbol.png\" style=\"width:14px;height:14px\">.","orientation_history":[0],"rt":1198,"trial_type":"polygon-arrow-feedback","trial_index":0,"trial_index_global":27,"time_elapsed":179494,"internal_chunk_id":"0-0.6-0"},{"nsides":6,"question":"What is the inverse of 3 under <img src=\"./images/hexagon_symbol.png\" style=\"width:14px;height:14px\">? <br /><br /> (Remember, the inverse of an element is the thing which you combine with it to produce the identity.)","response_type":"free","response_choices":[],"correct_response":"3","response":"3","orientation_history":[[0]],"response_history":["3"],"rt":2285,"trial_type":"polygon-arrow-question","trial_index":0,"trial_index_global":28,"time_elapsed":181780,"internal_chunk_id":"0-0.6-0"},{"nsides":6,"feedback":"Correct! The inverse of 3 under <img src=\"./images/hexagon_symbol.png\" style=\"width:14px;height:14px\"> is 3 because 3 steps clockwise on the hexagon from 3 brings us to 0, and 0 is the identity under <img src=\"./images/hexagon_symbol.png\" style=\"width:14px;height:14px\">.","orientation_history":[0],"rt":602,"trial_type":"polygon-arrow-feedback","trial_index":0,"trial_index_global":29,"time_elapsed":182382,"internal_chunk_id":"0-0.6-0"},{"nsides":6,"question":"What is the inverse of 2 under <img src=\"./images/hexagon_symbol.png\" style=\"width:14px;height:14px\">? <br /><br /> (Remember, the inverse of an element is the thing which you combine with it to produce the identity.)","response_type":"free","response_choices":[],"correct_response":"4","response":"4","orientation_history":[[0]],"response_history":["4"],"rt":4983,"trial_type":"polygon-arrow-question","trial_index":0,"trial_index_global":30,"time_elapsed":187366,"internal_chunk_id":"0-0.6-0"},{"nsides":6,"feedback":"Correct! The inverse of 2 under <img src=\"./images/hexagon_symbol.png\" style=\"width:14px;height:14px\"> is 4 because 4 steps clockwise on the hexagon from 2 brings us to 0, and 0 is the identity under <img src=\"./images/hexagon_symbol.png\" style=\"width:14px;height:14px\">.","orientation_history":[0],"rt":897,"trial_type":"polygon-arrow-feedback","trial_index":0,"trial_index_global":31,"time_elapsed":188264,"internal_chunk_id":"0-0.6-0"},{"nsides":6,"question":"What is the inverse of 0 under <img src=\"./images/hexagon_symbol.png\" style=\"width:14px;height:14px\">? <br /><br /> (Remember, the inverse of an element is the thing which you combine with it to produce the identity.)","response_type":"free","response_choices":[],"correct_response":"0 ","response":"0","orientation_history":[[0]],"response_history":["0"],"rt":5459,"trial_type":"polygon-arrow-question","trial_index":0,"trial_index_global":32,"time_elapsed":193723,"internal_chunk_id":"0-0.6-0"},{"nsides":6,"feedback":"Correct! The inverse of 0 under <img src=\"./images/hexagon_symbol.png\" style=\"width:14px;height:14px\"> is 0 because 0 steps clockwise on the hexagon from 0 brings us to 0, and 0 is the identity under <img src=\"./images/hexagon_symbol.png\" style=\"width:14px;height:14px\">.","orientation_history":[0],"rt":2007,"trial_type":"polygon-arrow-feedback","trial_index":0,"trial_index_global":33,"time_elapsed":195732,"internal_chunk_id":"0-0.6-0"},{"instructions":"It is also possible to successively apply <img src=\"./images/hexagon_symbol.png\" style=\"width:14px;height:14px\">, and the operation can simply be performed starting with the left-most pair. For example, 2 <img src=\"./images/hexagon_symbol.png\" style=\"width:14px;height:14px\"> 3 <im g src=\"./images/hexagon_symbol.png\" style=\"width:14px;height:14px\"> 4 = 5 <img src=\"./images/hexagon_symbol.png\" style=\"width:14px;height:14px\"> 4 = 3.","rt":34619,"trial_type":"instructions","trial_index":0,"trial_index_global":34,"time_elapsed":230351,"internal_chunk_id":"0-0"},{"nsides":6,"instructions":"We have one last definition to learn today. Let's start with an example. Under our operation <img src=\"./images/hexagon_symbol.png\" style=\"width:14px;height:14px\"> we can make every other number using just 1: 2 = 1 <img src=\"./images/hexagon_symbol.png\" style=\"width:14px;height:14px\"> 1, 3 = 1 <img src=\"./images/hexagon_symbol.png\" style=\"width:14px;height:14px\"> 1 <img src=\"./images/hexagon_symbol.png\" style=\"width:14px;height:14px\"> 1, 4 = 1 <img src=\"./images/hexagon_symbol.png\" style=\"width:14px;height:14px\"> 1 <img src=\"./images/hexagon_symbol.png\" style=\"width:14px;height:14px\"> 1 <img src=\"./images/hexagon_symbol.png\" style=\"width:14px;height:14px\"> 1, 5 = 1 <img src=\"./images/hexagon_symbol.png\" style=\"width:14px;height:14px\"> 1 <img src=\"./images/hexagon_symbol.png\" style=\"width:14px;height:14px\"> 1 <img src=\"./images/hexagon_symbol.png\" style=\"width:14px;height:14px\"> 1 <img src=\"./images/hexagon_symbol.png\" style=\"width:14px;height:14px\"> 1, and 0 = 1 <img src=\"./images/hexagon_symbol.png\" style=\"width:14px;height:14px\"> 1 <img src=\"./images/hexagon_symbol.png\" style=\"width:14px;height:14px\"> 1 <img src=\"./images/hexagon_symbol.png\" style=\"width:14px;height:14px\"> 1 <img src=\"./images/hexagon_symbol.png\" style=\"width:14px;height:14px\"> 1 <img src=\"./images/hexagon_symbol.png\" style=\"width:14px;height:14px\"> 1. Because 1 can make every other element under <img src=\"./images/hexagon_symbol.png\" style=\"width:14px;height:14px\">, we say that 1 is a <i>generator</i> under <img src=\"./images/hexagon_symbol.png\" style=\"width:14px;height:14px\">. <br /><br /> However, 2 is not  a genera tor under <img src=\"./images/hexagon_symbol.png\" style=\"width:14px;height:14px\">, because 4 = 2 <img src=\"./images/hexagon_symbol.png\" style=\"width:14px;height:14px\"> 2, and 0 = 2 <img src=\"./images/hexagon_symbol.png\" style=\"width:14px;height:14px\"> 2 <img src=\"./images/hexagon_symbol.png\" style=\"width:14px;height:14px\"> 2, but there is no way to make 1, 3, or 5 using just 2.","orientation_history":[0],"rt":36722,"trial_type":"polygon-arrow-instructions","trial_index":0,"trial_index_global":35,"time_elapsed":267073,"internal_chunk_id":"0-0"},{"nsides":6,"question":"Now you try! Is 3 a generator under <img src=\"./images/hexagon_symbol.png\" style=\"width:14px;height:14px\">? <br /><br /> (Remember, a generator is an element which can make every other element.)","response_type":"multi","response_choices":["Yes","No"],"correct_response":"No","response":"No","orientation_history":[[0]],"response_history":["No"],"rt":12287,"trial_type":"polygon-arrow-question","trial_index":0,"trial_index_global":36,"time_elapsed":279361,"internal_chunk_id":"0-0.9-0"},{"nsides":6,"feedback":"Correct! 3 is not a generator under <img src=\"./images/hexagon_symbol.png\" style=\"width:14px;height:14px\">, because 3 = 3, 0 = 3 <img src=\"./images/hexagon_symbol.png\" style=\"width:14px;height:14px\"> 3, but there is no way to make 1, 2, 4, or 5 using just 3.","orientation_history":[0],"rt":5606,"trial_type":"polygon-arrow-feedback","trial_index":0,"trial_index_global":37,"time_elapsed":284968,"internal_chunk_id":"0-0.9-0"},{"nsides":6,"question":"Is 5 a generator under <img src=\"./images/hexagon_symbol.png\" style=\"width:14px;height:14px\">? <br /><br /> (Remember, a generator is an element which can make every other element.)","response_type":"multi","response_choices":["Yes","No"],"correct_response":"Yes","response":"No","orientation_history":[[0]],"response_history":["No"],"rt":4380,"trial_type":"polygon-arrow-question","trial_index":0,"trial_index_global":38,"time_elapsed":289349,"internal_chunk_id":"0-0.9-0"},{"nsides":6,"feedback":"Sorry, that's incorrect. 5 is a generator under <img src=\"./images/hexagon_symbol.png\" style=\"width:14px;height:14px\">, because 5 = 5, 4 = 5 <img src=\"./images/hexagon_symbol.png\" style=\"width:14px;height:14px\"> 5, 3 = 5 <img src=\"./images/hexagon_symbol.png\" style=\"width:14px;height:14px\"> 5 <img src=\"./images/hexagon_symbol.png\" style=\"width:14px;height:14px\"> 5, 2 = 5 <img src=\"./images/hexagon_symbol.png\" style=\"width:14px;height:14px\"> 5 <img src=\"./images/hexagon_symbol.png\" style=\"width:14px;height:14px\"> 5 <img src=\"./images/hexagon_symbol.png\" style=\"width:14px;height:14px\"> 5, 1 = 5 <img src=\"./images/hexagon_symbol.png\" style=\"width:14px;height:14px\"> 5 <img src=\"./images/hexagon_symbol.png\" style=\"width:14px;height:14px\"> 5 <img src=\"./images/hexagon_symbol.png\" style=\"width:14px;height:14px\"> 5 <img src=\"./images/hexagon_symbol.png\" style=\"width:14px;height:14px\"> 5, and 0 = 5 <img src=\"./images/hexagon_symbol.png\" style=\"width:14px;height:14px\"> 5 <img src=\"./images/hexagon_symbol.png\" style=\"width:14px;height:14px\"> 5 <img src=\"./images/hexagon_symbol.png\" style=\"width:14px;height:14px\"> 5 <img src=\"./images/hexagon_symbol.png\" style=\"width:14px;height:14px\"> 5 <img src=\"./images/hexagon_symbol.png\" style=\"width:14px;height:14px\"> 5, so you can make all of the numbers under <img src=\"./images/hexagon_symbol.png\" style=\"width:14px;height:14px\"> using 5","orientation_history":[0],"rt":24865,"trial_type":"polygon-arrow-feedback","trial_index":0,"trial_index_global":39,"time_elapsed":314215,"internal_chunk_id":"0-0.9-0"},{"nsides":6,"question":"Is 4 a generator under <img src=\"./images/hexagon_symbol.png\" style=\"width:14px;height:14px\">? <br /><br /> (Remember, a generator is an element which can make every other element.)","response_type":"multi","response_choices":["Yes","No"],"correct_response":" No","response":"No","orientation_history":[[0]],"response_history":["No"],"rt":20872,"trial_type":"polygon-arrow-question","trial_index":0,"trial_index_global":40,"time_elapsed":335087,"internal_chunk_id":"0-0.9-0"},{"nsides":6,"feedback":"Correct! 4 is not a generator under <img src=\"./images/hexagon_symbol.png\" style=\"width:14px;height:14px\">, because 4 = 4, 2 = 4 <img src=\"./images/hexagon_symbol.png\" style=\"width:14px;height:14px\"> 4, and 0 = 4 <img src=\"./images/hexagon_symbol.png\" style=\"width:14px;height:14px\"> 4 <img src=\"./images/hexagon_symbol.png\" style=\"width:14px;height:14px\"> 4, but there is no way to make 1, 3, or 5 using just 4.","orientation_history":[0],"rt":1675,"trial_type":"polygon-arrow-feedback","trial_index":0,"trial_index_global":41,"time_elapsed":336762,"internal_chunk_id":"0-0.9-0"},{"nsides":6,"question":"Is 0 a generator under <img src=\"./images/hexagon_symbol.png\" style=\"width:14px;height:14px\">? <br /><br /> (Remember, a generator i s an ele ment which can make every other element.)","response_type":"multi","response_choices":["Yes","No"],"correct_response":"No","response":"No","orientation_history":[[0]],"response_history":["No"],"rt":4451,"trial_type":"polygon-arrow-question","trial_index":0,"trial_index_global":42,"time_elapsed":341214,"internal_chunk_id":"0-0.9-0"},{"nsides":6,"feedback":"Correct! 0 is not a generator under <img src=\"./images/hexagon_symbol.png\" style=\"width:14px;height:14px\">, because 0 = 0, but there is no way to make 1, 2, 3, 4, or 5 using just 0.","orientation_history":[0],"rt":1746,"trial_type":"polygon-arrow-feedback","trial_index":0,"trial_index_global":43,"time_elapsed":342960,"internal_chunk_id":"0-0.9-0"},{"nsides":9,"instructions":"Now we are going to ask you some questions about a new operation, <img src=\"./images/nonagon_symbol.png\" style=\"width:14px;height:14px\">, on the numbers 0, 1, 2, 3, 4, 5, 6, 7, 8. It works exactly like <img src=\"./images/hexagon_symbol.png\" st yle=\"width:14px;height:14px\">, except now you use the nonagon shown at the right. <br /><br />We'll give you one practice question with feedback to make sure you understand the new operation. After that, try to complete the remaining questions as accurately as possible.","orientation_history":[0],"rt":7071,"trial_type":"polygon-arrow-instructions","trial_index":0,"trial_index_global":44,"time_elapsed":350031,"internal_chunk_id":"0-0"},{"nsides":9,"question":"Practice: What is 5 <img src=\"./images/nonagon_symbol.png\" style=\"width:14px;height:14px\"> 5?","response_type":"free","response_choices":[],"correct_response":"1","response":"1","orientation_history":[[0]],"response_history":["1"],"rt":6968,"trial_type":"polygon-arrow-question","trial_index":0,"trial_index_global":45,"time_elapsed":356999,"internal_chunk_id":"0-0.11-0"},{"nsides":9,"feedback":"Correct! 5 <img src=\"./images/nonagon_symbol.png\" style=\"width:14px;height:14px\"> 5 = 1 because 5 steps clockwise on the nonago n from 5  brings us to 1","orientation_history":[0],"rt":1039,"trial_type":"polygon-arrow-feedback","trial_index":0,"trial_index_global":46,"time_elapsed":358039,"internal_chunk_id":"0-0.11-0"},{"nsides":9,"question":"What is 3 <img src=\"./images/nonagon_symbol.png\" style=\"width:14px;height:14px\"> 3?","response_type":"free","response_choices":[],"correct_response":"6","response":"6","orientation_history":[[0]],"response_history":["6"],"rt":4015,"trial_type":"polygon-arrow-question","trial_index":0,"trial_index_global":47,"time_elapsed":362055,"internal_chunk_id":"0-0.11-0"},{"nsides":9,"question":"What is 7 <img src=\"./images/nonagon_symbol.png\" style=\"width:14px;height:14px\"> 4?","response_type":"free","response_choices":[],"correct_response":"2","response":"2","orientation_history":[[0]],"response_history":["2"],"rt":4285,"trial_type":"polygon-arrow-question","trial_index":0,"trial_index_global":48,"time_elapsed":366341,"internal_chunk_id":"0-0.11-0"},{"nsides":9,"question":"What i s 1 <img src=\"./images/nonagon_symbol.png\" style=\"width:14px;height:14px\"> 8?","response_type":"free","response_choices":[],"correct_response":"0","response":"0","orientation_history":[[0]],"response_history":["0"],"rt":6275,"trial_type":"polygon-arrow-question","trial_index":0,"trial_index_global":49,"time_elapsed":372617,"internal_chunk_id":"0-0.11-0"},{"nsides":9,"question":"What is 5 <img src=\"./images/nonagon_symbol.png\" style=\"width:14px;height:14px\"> 4?","response_type":"free","response_choices":[],"correct_response":"0","response":"0","orientation_history":[[0]],"response_history":["0"],"rt":3794,"trial_type":"polygon-arrow-question","trial_index":0,"trial_index_global":50,"time_elapsed":376412,"internal_chunk_id":"0-0.11-0"},{"nsides":9,"question":"What is 6 <img src=\"./images/nonagon_symbol.png\" style=\"width:14px;height:14px\"> 6?","response_type":"free","response_choices":[],"correct_response":"3","response":"3","orientation_history":[[0]],"response_history":[" 3"],"rt":5127,"trial_type":"polygon-arrow-question","trial_index":0,"trial_index_global":51,"time_elapsed":381539,"internal_chunk_id":"0-0.11-0"},{"nsides":9,"question":"What is 4 <img src=\"./images/nonagon_symbol.png\" style=\"width:14px;height:14px\"> 1? Please explain in words how you got your answer.","response_type":"free","response_choices":[],"correct_response":"","response":"Start at 4, move 1 spot clockwise. The answer is 5.","orientation_history":[[0]],"response_history":["4","Start at 4, move 1 spot to ","Start at 4, move 1 spot to","Start at 4, move 1 spot t","Start at 4, move 1 spot clockwise. The answer is 5."],"rt":26633,"trial_type":"polygon-arrow-question","trial_index":0,"trial_index_global":52,"time_elapsed":408173,"internal_chunk_id":"0-0.11-0"},{"nsides":9,"question":"What is 8 <img src=\"./images/nonagon_symbol.png\" style=\"width:14px;height:14px\"> 4? Please explain in words how you got your answer.","response_type":"free","response_choices":[],"correct_response":"","response":"Start at 8 and move 4 spots clockwise. The answer is 3.","orientation_history":[[0]],"response_history":["Start at 8. ","Start at 8.","Start at 8 and move 4 spots clockwise. The answer is 3."],"rt":17356,"trial_type":"polygon-arrow-question","trial_index":0,"trial_index_global":53,"time_elapsed":425529,"internal_chunk_id":"0-0.11-0"},{"nsides":9,"question":"What is the identity under <img src=\"./images/nonagon_symbol.png\" style=\"width:14px;height:14px\">? Please explain in words how you got your answer.","response_type":"free","response_choices":[],"correct_response":"0","response":"The identity is 0. If I recall correctly, the identity is a number (9) the identity that returns that number. Here it is 0, e.g. 8(9)0 = 8.","orientation_history":[[0]],"response_history":["The identity is 0. ","The identity is 0.","The identity is 0, because","The identity is 0, becaus","The identity is 0, becau","The identity is 0, beca","The identity is 0, bec","The ide ntity is  0, be","The identity is 0, b","The identity is 0, ","The identity is 0,","The identity is 0. I ","The identity is 0. If I recall correctly, the identity is whatever (0","The identity is 0. If I recall correctly, the identity is w","The identity is 0. If I recall correctly, the identity is a number ()","The identity is 0. If I recall correctly, the identity is a number (9) *","The identity is 0. If I recall correctly, the identity is a number (9) the identity that returns that number. Here it is 0, ei.","The identity is 0. If I recall correctly, the identity is a number (9) the identity that returns that number. Here it is 0, ei","The identity is 0. If I recall correctly, the identity is a number (9) the identity that returns that number. Here it is 0, e.g. 8(9)0 = 8."],"rt":50418,"trial_type":"polygon-arrow-question","trial_index":0,"trial_index_global":54,"time_elapsed":475948,"internal_chunk_id":"0-0.11-0"},{"nsides":9,"question":"What is the inverse of 5 under <img src=\"./images/nonagon_symbol.png\" style=\"width:14px;height:14px\">?","response_type":"free","response_choices":[],"correct_response":"4","response":"4","orientation_history":[[0]],"response_history":["4"],"rt":22792,"trial_type":"polygon-arrow-question","trial_index":0,"trial_index_global":55,"time_elapsed":498741,"internal_chunk_id":"0-0.11-0"},{"nsides":9,"question":"What is the inverse of 2 under <img src=\"./images/nonagon_symbol.png\" style=\"width:14px;height:14px\">?","response_type":"free","response_choices":[],"correct_response":"7","response":"7","orientation_history":[[0]],"response_history":["7"],"rt":8770,"trial_type":"polygon-arrow-question","trial_index":0,"trial_index_global":56,"time_elapsed":507511,"internal_chunk_id":"0-0.11-0"},{"nsides":9,"question":"What is the inverse of 3 under <img src=\"./images/nonagon_symbol.png\" style=\"width:14px;height:14px\">? Please explain in words how you got your answer.","response_type":"free","response_choices":[],"correct_response":"","response":"I believe the inverse is 6. The inverse is [a number](9)[the inverse]=0. So 3(9)6=0.","orientation_history":[[0]],"response_history":["The inverse","I believe the inverse is 6. The inverse is whatever number applied ","I believe the inverse is 6. The inverse is n","I believe the inverse is 6. The inverse is pa n","I believe the inverse is 6. The inverse is pa ","I believe the inverse is 6. The inverse is pa","I believe the inverse is 6. The inverse is p","I believe the inverse is 6. The inverse is [p","I believe the inverse is 6. The inverse is [a number] ","Ibelievetheinverseis6.Theinverseis[anumber](0","Ibelievetheinverseis6.Theinverseis[anumber](9)[theuniver","Ibelievetheinverseis6.Theinverseis[anumber](9)[theunive","Ibelievetheinverseis6.Theinverseis[anumber](9)[theuniv","Ibelievetheinverseis6.Theinverseis[anumber](9)[theuni","Ibelievetheinverseis6.Theinverseis[anumber](9)[theun","Ibelievetheinverseis6.Theinverseis[anumber](9)[theu","Ibelievetheinverseis6.Theinverseis[anumber](9)[theuin","Ibelievetheinverseis6.Theinverseis[anumber](9)[theui","Ibelievetheinverseis6.Theinverseis[anumber](9)[theu","Ibelievetheinverseis6.Theinverseis[anumber](9)[theuniv","Ibelievetheinverseis6.Theinverseis[anumber](9)[theuni","Ibelievetheinverseis6.Theinverseis[anumber](9)[theun","Ibelievetheinverseis6.Theinverseis[anumber](9)[theu","Ibelievetheinverseis6.Theinverseis[anumber](9)[theinverse]=0.So3(9)6","Ibelievetheinverseis6.Theinverseis[anumber](9)[theinverse]=0.So3(9)6=0.(Ap","Ibelievetheinverseis6.Theinverseis[anumber](9)[theinverse]=0.So3(9)6=0.(A","Ibelievetheinverseis6.Theinverseis[anumber](9)[theinverse]=0.So3(9)6=0.(","Ibelievetheinverseis6.Theinverseis[anumber](9)[theinverse]=0.So3(9)6=0.","Ibelievetheinverseis6.Theinverseis[anumber](9)[theinverse]=0.So3(9)6=0."],"rt":59435,"trial_type":"polygon-arrow-question","trial_index":0,"trial_index_global":57,"time_elapsed":566946,"internal_chunk_id":"0-0.11-0"},{"nsides":9,"question":"Is 2 a generator under <img src=\"./images/nonagon_symbol.png\" style=\"width:14px;height:14px\">? Please explain in words how you got your answer.","response_type":"free","response_choices":[],"correct_response":"","response":"2. 2(9)2 = 4. 2(9)2 (9)2 = 6. 2(9)2 (9)2 (9)2 = 8. 2(9)2 (9)2 (9)2 (9) 2 = 0. . .","orientation_history":[[0]],"response_history":["2(9)","2(9","2(","2. 2(0","2. 2(2)","2. 2(2","2. 2(9)2 = 4. (","2. 2(9)2 = 4. 2(9)2 (0","2. 2(9)2 = 4. 2(9)2 (9)2 = 6. 2(9)2 (0","2. 2(9)2 = 4. 2(9)2 (9)2 = 6. 2(9)2 ((","2. 2(9)2 = 4. 2(9)2 (9)2 = 6. 2(9)2 (9)2 9","2. 2(9)2 = 4. 2(9)2 (9)2 = 6. 2(9)2 (9)2 (9)2 = 8. 2(92","2. 2(9)2 = 4. 2(9)2 (9)2 = 6. 2(9)2 (9)2 (9)2 = 8. 2(9)2 (0","2. 2(9)2 = 4. 2(9)2 (9)2 = 6. 2(9)2 (9)2 (9)2 = 8. 2(9)2 (9)2 (2","2. 2(9)2 = 4. 2(9)2  (9)2 = 6 . 2(9)2 (9)2 (9)2 = 8. 2(9)2 (9)2 (9","2. 2(9)2 = 4. 2(9)2 (9)2 = 6. 2(9)2 (9)2 (9)2 = 8. 2(9)2 (9)2 (9)2 (2","2. 2(9)2 = 4. 2(9)2 (9)2 = 6. 2(9)2 (9)2 (9)2 = 8. 2(9)2 (9)2 (9)2 (9) 2 = 0. ","2. 2(9)2 = 4. 2(9)2 (9)2 = 6. 2(9)2 (9)2 (9)2 = 8. 2(9)2 (9)2 (9)2 (9) 2 = 0..","2. 2(9)2 = 4. 2(9)2 (9)2 = 6. 2(9)2 (9)2 (9)2 = 8. 2(9)2 (9)2 (9)2 (9) 2 = 0. . ."],"rt":73244,"trial_type":"polygon-arrow-question","trial_index":0,"trial_index_global":58,"time_elapsed":640190,"internal_chunk_id":"0-0.11-0"},{"nsides":9,"question":"Is 3 a generator under <img src=\"./images/nonagon_symbol.png\" style=\"width:14px;height:14px\">? Please explain in words how you got your answer.","response_type":"free","response_choices":[],"correct_response":"","response":"(Sorry, enter submitted on the last answer rather than giving me a new line, so I only offered my example without explaining it!) No, 3 can generate 3, 6 and 0, but none of the other numbers.","orientation_history":[[0]],"response_history":["Sor ry, I accidentall","Sorry, ","(Sorry, enter submitted on the last answer t","(Sorry, enter submitted on the last answer rather than givin ","(Sorry, enter submitted on the last answer rather than giving me a new line, so I was","(Sorry, enter submitted on the last answer rather than giving me a new line, so I wa","(Sorry, enter submitted on the last answer rather than giving me a new line, so I w","(Sorry, enter submitted on the last answer rather than giving me a new line, so I only offered my example without the words","(Sorry, enter submitted on the last answer rather than giving me a new line, so I only offered my example without the word","(Sorry, enter submitted on the last answer rather than giving me a new line, so I only offered my example without the wor","(Sorry, enter submitted on the last answer rather than giving me a new line, so I only offered my example without the wo","(Sorry, enter submitted on the last answer rather than giving me a new line, so I only of fered my  example without the w","(Sorry, enter submitted on the last answer rather than giving me a new line, so I only offered my example without the s","(Sorry, enter submitted on the last answer rather than giving me a new line, so I only offered my example without the w","(Sorry, enter submitted on the last answer rather than giving me a new line, so I only offered my example without the te","(Sorry, enter submitted on the last answer rather than giving me a new line, so I only offered my example without the t","(Sorry, enter submitted on the last answer rather than giving me a new line, so I only offered my example without the ","(Sorry, enter submitted on the last answer rather than giving me a new line, so I only offered my example without the","(Sorry, enter submitted on the last answer rather than giving me a new line, so I only offered my example without th","(Sorry, enter submitted on the last answer rather than giving me a new line, so I only offered my example without t ","(Sorr y, enter submitted on the last answer rather than giving me a new line, so I only offered my example without e","(Sorry, enter submitted on the last answer rather than giving me a new line, so I only offered my example without explaining it!) No, 3 can generate 3, 6 ","(Sorry, enter submitted on the last answer rather than giving me a new line, so I only offered my example without explaining it!) No, 3 can generate 3, 6, ","(Sorry, enter submitted on the last answer rather than giving me a new line, so I only offered my example without explaining it!) No, 3 can generate 3, 6,","(Sorry, enter submitted on the last answer rather than giving me a new line, so I only offered my example without explaining it!) No, 3 can generate 3, 6 and 0, n","(Sorry, enter submitted on the last answer rather than giving me a new line, so I only offered my example without explaining it!) No, 3 can generate 3, 6 and 0, but none of the other numbers."],"rt":79253,"trial_type":"polygon-arrow-questi on","trial_index":0,"trial_index_global":59,"time_elapsed":719443,"internal_chunk_id":"0-0.11-0"},{"nsides":9,"question":"Is 5 a generator under <img src=\"./images/nonagon_symbol.png\" style=\"width:14px;height:14px\">? Please explain in words how you got your answer.","response_type":"free","response_choices":[],"correct_response":"","response":"Yes, running 5 through its paces, it appears that it can generate all the other numbers.","orientation_history":[[0]],"response_history":["Yes, running 5 through its paces, it appaers that ","Yes, running 5 through its paces, it appea","Yes, running 5 through its paces, it appears that it can generate all the other numbers. ","Yes, running 5 through its paces, it appears that it can generate all the other numbers."],"rt":79927,"trial_type":"polygon-arrow-question","trial_index":0,"trial_index_global":60,"time_elapsed":799370,"internal_chunk_id":"0-0.11-0"},{"nsides":9,"question":"Is 6 a generator under <img src=\"./images/nonagon_symbol.png\" styl e=\"width:14px;height:14px\">? Please explain in words how you got your answer.","response_type":"free","response_choices":[],"correct_response":"","response":"No, it appears 6 can only generate 0, 3 and 6.","orientation_history":[[0]],"response_history":["No, it appears 6 can only generate 6","No, it appears 6 can only generate 0, 3 and 6."],"rt":26112,"trial_type":"polygon-arrow-question","trial_index":0,"trial_index_global":61,"time_elapsed":825482,"internal_chunk_id":"0-0.11-0"},{"nsides":"n","instructions":"Now we'd like to ask you some questions about <img src=\"./images/ngon_symbol.png\" style=\"width:14px;height:14px\">, where n could be any positive counting number. For example, n could be 3, and the polygon a triangle, or n could be any other counting number you can think of. If you need to write the operation, you can use \"(n)\", and your answers can include n to stand in for the arbitrary value if necessary. (You can use the polygon at the right to think, but it  doesn't  necessarily correspond to the real polygon, which is why we've left most of it dashed.)","orientation_history":[0],"rt":19896,"trial_type":"polygon-arrow-instructions","trial_index":0,"trial_index_global":62,"time_elapsed":845378,"internal_chunk_id":"0-0"},{"nsides":"n","question":"What is the formula for the inverse of 1 under <img src=\"./images/ngon_symbol.png\" style=\"width:14px;height:14px\">?","response_type":"free","response_choices":[],"correct_response":"n-1","response":"1+(n-1)=n","orientation_history":[[0]],"response_history":["1","n=","n","1+5=6","1+5=n","1+(5=n","1+(n5=n","1+(n-5=n","1+(n-=n","1+(n-1=n","1+(n-1_=n","1+(n-1=n","1+(n-1)=n"],"rt":106933,"trial_type":"polygon-arrow-question","trial_index":0,"trial_index_global":63,"time_elapsed":952311,"internal_chunk_id":"0-0.13-0"},{"nsides":"n","question":"What is the formula for the inverse of an element x under <img src=\"./images/ngon_symbol.png\" style=\"width:14px;height:14px\">? Please explain in words wh y your a nswer is correct.","response_type":"free","response_choices":[],"correct_response":"n-x","response":"n is the sum of x and the distance from x to n. So the formula would be n = x + (x-n)","orientation_history":[[0]],"response_history":["The sum of the inverse ","x","X","N is the sum of x ","n is the sum x of ","n is the sum x of","n is the sum x o","n is the sum x ","n is the sum x","n is the sum of x and the distance of ","n is the sum of x and the distance of","n is the sum of x and the distance o","n is the sum of x and the distance from x to n. So the forumu","n is the sum of x and the distance from x to n. So the forum","n is the sum of x and the distance from x to n. So the foru","n is the sum of x and the distance from x to n. So the formula would be n = x(n-x)","n is the sum of x and the distance from x to n. So the formula would be n = x(n-x","n is the sum of x and the distance from x to n. So the formula would be n = x(n-","n is the sum of x and the distance from x  to n. S o the formula would be n = x(n","n is the sum of x and the distance from x to n. So the formula would be n = x( ","n is the sum of x and the distance from x to n. So the formula would be n = x(","n is the sum of x and the distance from x to n. So the formula would be n = x + n","n is the sum of x and the distance from x to n. So the formula would be n = x + (n0x)","n is the sum of x and the distance from x to n. So the formula would be n = x + (n0x","n is the sum of x and the distance from x to n. So the formula would be n = x + (n0","n is the sum of x and the distance from x to n. So the formula would be n = x + (n-x)","n is the sum of x and the distance from x to n. So the formula would be n = x + (n-x","n is the sum of x and the distance from x to n. So the formula would be n = x + (n-","n is the sum of x and the distance from x to n. So the formula would be n = x + (n","n is the sum of x and the distance from x to n. So the formula would be n = x + (x-n)"],"rt":100983,"trial_type":"polygon-arrow-question","trial_index":0,"trial_index_global":64,"time_elapsed":1053294,"internal_chunk_id":"0-0.13-0"},{"nsides":"n","question":"Is there a pattern to which elements are generators? How can you know if an element x is a generator under <img src=\"./images/ngon_symbol.png\" style=\"width:14px;height:14px\"> without seeing whether it can make all the elements?.","response_type":"free","response_choices":[],"correct_response":"","response":"Well, we know that 1 is always a generator. And 5 was a generator for both n = 6 and n = 9. And 4 was a generator for n = 9 but not n = 6. Maybe if neither a (non-1) number or its factors (square root?) can be divided evenly into n, it is a generator for n.","orientation_history":[[0],[0,0,0.04986505409184705,-6.208325459468819,-6.125184227580378,-6.028471959676341,-5.916868664990952,-5.7299730280901615,-5.544279296642134,-5.332267408870625,-5.2430737962788925,-5.156675246920445,-5.114874515047594,-5.018035509786287,-4.940414001048894,-4.8825077958007865,-4.8173826324664,-4.725536506201663,-4.637529132673922,-4.472380455259295,-4.339030201087743,-4.223839919395059,-4.1183830184274,-4.060336918800461,-4.0128937099023085,-3.994028023880638,-3.9796405274917124,-3.9796405274917124,-3.9796405274917124,-3.9796405274917124,-3.9796405274917124,-3.9796405274917124,-3.9796405274917124,-3.9796405274917124,-3.9796405274917124,-3.9796405274917124,-3.9796405274917124,-3.9796405274917124,-4.019384906738735,-4.059627195711677,-4.10024441837315,-4.165751621493172,-4.246922088976236,-4.293310449691455,-4.3494736856232965,-4.392550469547058,-4.44356998541403,-4.463857934332348,-4.4835844682155725,-4.519437104254829,-4.536182629408255,-4.5378604801827604,-4.554387900785481,-4.572049107750457,-4.588388398257902,-4.605282250238668,-4.605282250238668,-4.605282250238668,-4.605282250238668,-4.605282250238668,-4.621401498830286,-4.637529132673922,-4.637529132673922,-4.652912534454518,-4.668288658744391,-4.698061152456029,-4.713142275910752,-4.728189019874668,-4.758152801254025,-4.7710581817657935,-4.7710581817657935,-4.7835413903851975,-4.7835413903851975,-4.795619103795608,-4.809719947196861,-4.823751973085064,-4.823751973085064,-4.823751973085064,-4.823751973085064,-4.823751973085064,-4.823751973085064,-4.823751973085064,-4.823751973085064,-4.823751973085064,-4.823751973085064,-4.823751973085064,-4.823751973085064,-4.823751973085064,-4.823751973085064,-4.823751973085064,-4.821151458843202,-4.848622465896669,-4.8591786956526,-4.8858190419769905,-4.912104414113548,-4.908475983012343,-4.9340749417436225,-4.946728045000997,-4.959279687070564,-4.984067997107864,-5.013169368146988,-5.025299304549241,-5.042420918959006,-5.047656473215413,-5.083106419648504,-5.137969945821217,-5.194653522833318,-5.257778618656744,-5.3264535208887835,-5.4119387273886375,-5.536078277661855,-5.620322855921251,-5.7299730280901615,-5.818616888125954,-5.886574905072177,-5.975346220391716,-6.059435511859322,-6.108656806977657,-6.158367063746876,-6.191660335754879,0.05819472399682635,0.04153885183252015,0.04153885183252015,0.04153885183252015,0.04153885183252015,0.024901451988824874,0.024901451988824874,0.009379822787302317,0.009379822787302317,0.009379822787302317,-0.006924532907229164,-0.006924532907229164,-0.006924532907229164,-0.006924532907229164,-0.006924532907229164,-0.006924532907229164,-0.006924532907229164,-0.006924532907229164,-0.006924532907229164,-0.006924532907229164,-0.006924532907229164,-0.006924532907229164,-0.006924532907229164,-0.006924532907229164,-0.006924532907229164,-0.006924532907229164,-0.006924532907229164,-0.006924532907229164,-0.006924532907229164,-0.006924532907229164,-0.006924532907229164,-0.006924532907229164,-0.006924532907229164,-0.006924532907229164],[-0.006924532907229164,-0.006924532907229164,-0.006049642491782414,0.044976865550943934,0.20797896545913863,0.4294529078454523,0.6959127815894266,0.9465166558283824,1.17516887902539,1.3077204113220642,1.3968453803114889,1.4530796563627286,1.5051159711719448,1.5644521768753161,1.6222247157388092,1.6875313782544556,1.7523777353547054,1.7911674128892632,1.829833875909662,1.876972045020526,1.939483247826973,1.9978010593453959,2.0676139022410176,2.1467754614210666,2.225670107016186,2.3227610170046473,2.4269167389703403,2.5084723485089926,2.620632694478328,2.7328883575461376,2.86892010374702,3.006026296332199,3.126374471983697,3.283408524402044,3.484820126917767,3.6776881351950097,3.8137273580873066,3.9278786251401137,4.006938841935112,4.0714930480264595,4.1578562704339905,4.221668431889082,4.312380117352813,4.417476691484742,4.518012123483723,4.659366176595789,4.80963508361211,4.9868057442715,5.130487741892946,5.28425742290043,5.3998599057239325,5.53068730179799,5.655583389299819,5.71938824155632,5.788326443555336,5.8227138318568725,5.856938951078528,5.905462829994101,5.957875322148377,6.005361198552158,6.023024835341529,6.040279566606914,6.0859168100987135,6.11492509913834,6.1451676210180395,6.159598746308527,6.160424169150369,6.174674018887907,6.203220208969237,-0.06568035562295171,-0.051596779800091586,-0.051596779800091586,-0.037909719029530775,-0.037909719029530775,-0.02403777652436334,-0.02403777652436334,-0.010181850377234847,-0.010181850377234847,-0.010181850377234847,-0.010181850377234847,-0.010181850377234847,-0.010181850377234847,-0.010181850377234847,-0.010181850377234847,0.0036527780652568786,0.017460876265489533,0.017460876265489533,0.031237272171411368,0.031237272171411368,0.031237272171411368,0.031237272171411368,0.031237272171411368,0.031237272171411368,0.031237272171411368,0.031237272171411368,0.031237272171411368,0.031237272171411368,0.031237272171411368,0.031237272171411368,0.031237272171411368,0.031237272171411368,0.031237272171411368,0.031237272171411368,0.031237272171411368,0.031237272171411368,0.031237272171411368,0.031237272171411368,0.031237272171411368,0.031237272171411368,0.031237272171411368,0.031237272171411368,0.031237272171411368,0.031237272171411368,0.031237272171411368,0.044976865550943934,0.10409791834538673,0.18280706503445088,0.29829860088669236,0.41121151204258344,0.5223222479246158,0.6090605866006009,0.6597896526532887,0.690023568167587,0.7100093749403876,0.7294262406086054,0.7294262406086054,0.7294262406086054,0.7294262406086054,0.7294262406086054,0.7294262406086054,0.7294262406086054,0.7294262406086054,0.7294262406086054,0.7294262406086054,0.7294262406086054,0.7294262406086054,0.7294262406086054,0.7294262406086054,0.7294262406086054,0.7294262406086054,0.7294262406086054,0.7294262406086054,0.7294262406086054,0.7389462068742038,0.7875746306308004,0.8671549719024345,0.943622307904846,1.0231777192143185,1.0841253969196991,1.1145089274742581,1.1620920307512415,1.179146032532299,1.179146032532299,1.179146032532299,1.179146032532299,1.179146032532299,1.179146032532299,1.179146032532299,1.179146032532299,1.179146032532299,1.179146032532299,1.179146032532299,1.179146032532299,1.179146032532299,1.179146032532299,1.179146032532299,1.179146032532299,1.179146032532299,1.179146032532299,1.179146032532299,1.179146032532299,1.179146032532299,1.179146032532299,1.179146032532299,1.179146032532299,1.179146032532299,1.179146032532299,1.179146032532299,1.179146032532299,1.179146032532299,1.179146032532299,1.179146032532299,1.179146032532299,1.179146032532299,1.179146032532299,1.1918397901782734,1.2568260618688767,1.3790278761073544,1.519199546994805,1.6632059422936305,1.8357948597484237,2.0175054314826824,2.1512348750325465,2.2275344721364485,2.2726588894298407,2.2726588894298407,2.2726588894298407,2.2726588894298407,2.2726588894298407,2.2726588894298407,2.2726588894298407,2.2726588894298407,2.2726588894298407,2.2726588894298407,2.2726588894298407,2.2726588894298407,2.2726588894298407,2.2726588894298407,2.2726588894298407,2.2726588894298407,2.2726588894298407,2.2726588894298407,2.2726588894298407,2.2726588894298407,2.2815053692789764,2.327534250443323,2.4243251120439835,2.560363290507862,2.7493308632762226,3.0283291946898583,3.294581243840783,3.500106705870608,3.6563104853607156,3.770650574163545,3.8268413603647815,3.8529072978166425,3.8613104613642895,3.8613104613642895,3.8613104613642895,3.8613104613642895,3.8613104613642895,3.8613104613642895,3.8613104613642895,3.8613104613642895,3.8613104613642895,3.8613104613642895,3.8613104613642895,3.8613104613642895,3.8613104613642895,3.8613104613642895,3.8613104613642895,3.8613104613642895,3.8613104613642895,3.8697136249119364,3.8869458698859676,3.9422145605195205,4.011122917937187,4.096855442085153,4.196047298681105,4.310741018835607,4.416489037484894,4.506999750472574,4.615949098691269,4.692829740776249,4.7539874804101405,4.814351062592953,4.873507472815623,4.9310934013555965,4.9592001844962565,4.9730674414685,4.9868057442715,4.9868057442715,4.9868057442715,4.9868057442715,4.9868057442715,4.9868057442715,4.9868057442715,4.9868057442715,4.9868057442715,4.9868057442715,4.9868057442715,4.9868057442715,4.9868057442715,4.9868057442715,4.9868057442715,4.9868057442715,4.9868057442715,4.9868057442715,4.9868057442715,4.9868057442715,4.9868057442715,4.9868057442715,4.9868057442715,4.9868057442715,4.9868057442715,4.9868057442715,4.9868057442715,4.9868057442715,4.9868057442715,4.9868057442715,4.9868057442715,4.9868057442715,4.9868057442715,4.9868057442715,4.9868057442715,4.9868057442715,4.9868057442715,4.9868057442715,4.9868057442715,4.9868057442715,4.9868057442715,4.9868057442715,4.9868057442715,4.9868057442715,4.9868057442715,4.9868057442715,4.9868057442715,4.9868057442715,4.9868057442715,4.9868057442715,4.9868057442715,4.9868057442715,4.991710801968843,4.991710801968843,4.991710801968843,4.991710801968843,4.991710801968843,4.991710801968843,4.991710801968843,4.991710801968843,4.991710801968843,4.991710801968843,4.991710801968843,4.991710801968843,4.991710801968843,4.991710801968843,4.991710801968843,4.996753513006883,4.996753513006883,5.010687581271382,5.016042282435363,5.0215493401173354,5.027215001874103,5.07465712108322,5.125061056140395,5.2201491509165665,5.355334896889408,5.513010887314417,5.727547625302906,5.963136893003369,6.163013495315903,-0.014876651564730059,0.06472295226618163,0.16453923165389206,0.17215557183449892,0.18280706503445088,0.1930905363407458,0.20302266901221921,0.21644337651976353,0.2126193033821595,0.22577643885491527,0.22577643885491527,0.22577643885491527,0.22577643885491527,0.22577643885491527,0.22577643885491527,0.22577643885491527,0.22577643885491527,0.22577643885491527,0.22577643885491527,0.22577643885491527,0.22577643885491527,0.22577643885491527,0.22577643885491527,0.22577643885491527,0.22577643885491527,0.22577643885491527,0.19936250427450264,0.17588535147237416,0.16217669309414795,0.13450071234293692,0.12054248478818974,0.10899184338528789,0.10899184338528789,0.09469508835299889,0.08033190208832353,0.06784869346891975,0.05315998894481333,0.05315998894481333,0.05315998894481333,0.03841958248664756,0.023633637370270355,0.023633637370270355,0.023633637370270355,0.023633637370270355,0.023633637370270355,0.023633637370270355,0.023633637370270355,0.023633637370270355,0.023633637370270355,0.023633637370270355,0.023633637370270355,0.023633637370270355,0.023633637370270355,0.023633637370270355,0.023633637370270355,0.023633637370270355,0.023633637370270355,0.023633637370270355,0.023633637370270355,0.023633637370270355,0.023633637370270355,0.06984735836254896,0.1792983075039123,0.34322747332797365,0.5437781823219687,0.7401231384610346,0.8783730699608979,0.953460988643398,1.0182167393606758,1.0472822501529806,1.09344462774005,1.17516887902539,1.2477922562008563,1.3297217506285224,1.3684728086808577,1.3807609766251834,1.4066698119593117,1.4066698119593117,1.4066698119593117,1.4066698119593117,1.4066698119593117,1.4066698119593117,1.4066698119593117,1.4066698119593117,1.4066698119593117,1.4066698119593117,1.443465800532686,1.5051159711719448,1.5691309490062888,1.6745290150615633,1.7690796947976495,1.8760072599846072,1.939360291968746,2.016065547668555,2.0678531939330282,2.125365457154766,2.1899372171145455,2.2454995187948663,2.2634936853821284,2.290514134569393,2.308369379708946,2.3430971961803344,2.3699923791775994,2.412709305260748,2.4398367952630906,2.4779432470130667,2.5045748181332144,2.511007895936065,2.511007895936065,2.511007895936065,2.511007895936065,2.511007895936065,2.511007895936065,2.511007895936065,2.511007895936065,2.511007895936065,2.511007895936065,2.511007895936065,2.511007895936065,2.511007895936065,2.511007895936065,2.511007895936065,2.511007895936065,2.511007895936065,2.511007895936065,2.511007895936065,2.511007895936065,2.511007895936065,2.511007895936065,2.511007895936065,2.511007895936065,2.511007895936065,2.511007895936065,2.511007895936065,2.511007895936065,2.511007895936065,2.511007895936065,2.511007895936065,2.511007895936065,2.511007895936065,2.511007895936065,2.511007895936065,2.511007895936065,2.511007895936065,2.511007895936065,2.511007895936065,2.511007895936065,2.511007895936065,2.511007895936065,2.511007895936065,2.511007895936065,2.511007895936065,2.511007895936065,2.511007895936065,2.511007895936065,2.511007895936065,2.511007895936065,2.511007895936065,2.511007895936065,2.511007895936065,2.511007895936065,2.511007895936065,2.511007895936065,2.511007895936065,2.511007895936065,2.511007895936065,2.511007895936065,2.511007895936065,2.511007895936065,2.511007895936065,2.511007895936065,2.511007895936065,2.511007895936065,2.511007895936065,2.511007895936065,2.511007895936065,2.511007895936065,2.511007895936065,2.511007895936065,2.511007895936065,2.511007895936065,2.511007895936065,2.511007895936065,2.511007895936065,2.511007895936065,2.511007895936065,2.511007895936065,2.511007895936065,2.511007895936065,2.511007895936065,2.511007895936065,2.511007895936065,2.511007895936065,2.511007895936065,2.511007895936065,2.511007895936065,2.511007895936065,2.511007895936065,2.511007895936065,2.511007895936065,2.511007895936065,2.521120070828946,2.584494052372614,2.652472891807122,2.7584535627122104,2.9178223268451555,3.091062653841611,3.261260247962536,3.422048261536202,3.512539457780383,3.5528041656323763,3.5528041656323763,3.5528041656323763,3.5528041656323763,3.5528041656323763,3.5528041656323763,3.5528041656323763,3.5528041656323763,3.5528041656323763,3.5528041656323763,3.5528041656323763,3.5528041656323763,3.5528041656323763,3.5528041656323763,3.5528041656323763,3.5528041656323763,3.5528041656323763,3.5528041656323763,3.5528041656323763,3.5528041656323763,3.5528041656323763,3.5528041656323763,3.5528041656323763,3.5528041656323763,3.5528041656323763,3.5528041656323763,3.5528041656323763,3.5528041656323763,3.5528041656323763,3.5528041656323763,3.5528041656323763,3.5528041656323763,3.5528041656323763,3.5528041656323763,3.5528041656323763,3.5528041656323763,3.5528041656323763,3.5528041656323763,3.5528041656323763,3.5528041656323763,3.5528041656323763,3.5528041656323763,3.5528041656323763,3.5528041656323763,3.5528041656323763,3.5528041656323763,3.5528041656323763,3.5528041656323763,3.5528041656323763,3.5528041656323763,3.5528041656323763,3.5528041656323763,3.587468425137147,3.6462955796167833,3.6961617839496625,3.7882698960611707,3.912547628767709,4.05335847860502,4.255008685324314,4.44131323557197,4.646708624761738,4.811857302176365,4.882953885480175,4.962994752673892,4.989732565182441,5.0302361407187295,5.0302361407187295,5.0302361407187295,5.0302361407187295,5.0302361407187295,5.0302361407187295,5.0302361407187295,5.0302361407187295,5.0302361407187295,5.0302361407187295,5.0302361407187295,5.0302361407187295,5.0302361407187295,5.0302361407187295,5.0302361407187295,5.0302361407187295,5.0302361407187295,5.0302361407187295,5.0302361407187295,5.0302361407187295,5.0302361407187295,5.0302361407187295,5.0302361407187295,5.0302361407187295,5.0302361407187295,5.0302361407187295,5.0302361407187295,5.0302361407187295,5.0302361407187295,5.0302361407187295,5.0302361407187295,5.0302361407187295,5.0302361407187295,5.0302361407187295,5.0302361407187295,5.0302361407187295,5.0302361407187295,5.0302361407187295,5.0302361407187295,5.0302361407187295,5.0302361407187295,5.0302361407187295,5.0302361407187295,5.0302361407187295,5.0302361407187295,5.0302361407187295,5.0302361407187295,5.0302361407187295,5.0302361407187295,5.045231070428158,5.045231070428158,5.045231070428158,5.06658858196729,5.110356233762544,5.187128125032322,5.4077213789864675,5.653421230506977,5.849156030147672,6.049862513725419,6.203616955625667,0.02269643052189707,0.10142144430815381,0.15175706377999587,0.18721370947264582,0.20526649471546876,0.20526649471546876,0.20526649471546876,0.20526649471546876,0.20526649471546876,0.20526649471546876,0.20526649471546876,0.20526649471546876,0.20526649471546876,0.20526649471546876,0.20526649471546876,0.20526649471546876,0.20526649471546876,0.20526649471546876,0.20526649471546876,0.20526649471546876,0.2155518462953434,0.23593869064328787,0.30071405512628857,0.36366698573821443,0.4223526625505729,0.47100781868097363,0.5043601080767586,0.5670684793792313,0.5990941391943938,0.6222829564822403,0.6304038147812743,0.6304038147812743,0.6304038147812743,0.6304038147812743,0.6304038147812743,0.6304038147812743,0.6304038147812743,0.6304038147812743,0.6304038147812743,0.6304038147812743,0.6304038147812743,0.6304038147812743,0.6304038147812743,0.6304038147812743,0.6304038147812743,0.6304038147812743,0.6304038147812743,0.6304038147812743,0.6304038147812743,0.6304038147812743,0.6304038147812743,0.6304038147812743,0.6304038147812743,0.6304038147812743,0.6304038147812743,0.6304038147812743,0.6304038147812743,0.6304038147812743,0.6304038147812743,0.6304038147812743,0.6304038147812743,0.6304038147812743,0.6304038147812743,0.6304038147812743,0.6304038147812743,0.6304038147812743,0.6304038147812743,0.6304038147812743,0.6304038147812743,0.6304038147812743,0.6304038147812743,0.6304038147812743,0.6304038147812743,0.6304038147812743,0.6304038147812743,0.6304038147812743,0.6304038147812743,0.6304038147812743,0.6304038147812743,0.6304038147812743,0.6304038147812743,0.6304038147812743,0.6304038147812743,0.6304038147812743,0.6304038147812743,0.6304038147812743,0.6304038147812743,0.6304038147812743,0.6304038147812743,0.6304038147812743,0.6304038147812743,0.6304038147812743,0.6304038147812743,0.6591857879923894,0.7040940791540197,0.7596964948977866,0.8103776949752417,0.8567839820846842,0.9103567136885921,0.9583271302826974,0.9859698569254218,1.002813593073992,1.0136977255777178,1.0194938778744762,1.0304190880917699,1.0414683621711387,1.0414683621711387,1.0414683621711387,1.0414683621711387,1.0414683621711387,1.0414683621711387,1.0414683621711387,1.0414683621711387,1.0414683621711387,1.0414683621711387,1.0692389987645596,1.1199584648084706,1.163760085918098,1.2302061296912723,1.2838015288241535,1.3100957037670236,1.3100957037670236,1.3100957037670236,1.3100957037670236,1.3100957037670236,1.3100957037670236,1.3100957037670236,1.3100957037670236,1.3100957037670236,1.3100957037670236,1.3100957037670236,1.3100957037670236,1.3100957037670236,1.3100957037670236,1.3100957037670236,1.3100957037670236,1.3100957037670236,1.3100957037670236,1.3100957037670236,1.3100957037670236,1.3100957037670236,1.3100957037670236,1.3100957037670236,1.3100957037670236,1.3100957037670236,1.3100957037670236,1.3100957037670236,1.333967365755763,1.3807609766251834,1.4402719436187381,1.5321364203592096,1.6470130257761089,1.803614902758124,1.9755202341085363,2.1306010114111738,2.2267708220367064,2.3010400616011184,2.322082591057171,2.3529329445653504,2.3625541999562207,2.3830327556890403,2.3830327556890403,2.3830327556890403,2.3830327556890403,2.3830327556890403,2.3830327556890403,2.3830327556890403,2.3830327556890403,2.3830327556890403,2.3830327556890403,2.3830327556890403,2.3830327556890403,2.3830327556890403,2.4034337953219955,2.435326632808332,2.5204185627012974,2.6057288343201037,2.7222091518857194,2.8171414060031434,2.934015243362677,3.0620243020358746,3.156816397122072,3.24532534185646,3.258080608439605,3.2557657977593193,3.2557657977593193,3.2557657977593193,3.2557657977593193,3.2557657977593193,3.2557657977593193,3.2557657977593193,3.2557657977593193,3.2557657977593193,3.2557657977593193,3.2557657977593193,3.2557657977593193,3.2557657977593193,3.2557657977593193,3.2557657977593193,3.2557657977593193,3.2932057288898626,3.357684165240194,3.4346829682374134,3.557309522024145,3.7194134067601254,3.9071498872454065,4.062107368641412,4.193642631382008,4.278727688616754,4.317915933256783,4.321473763907955,4.321473763907955,4.321473763907955,4.321473763907955,4.321473763907955,4.321473763907955,4.321473763907955,4.321473763907955,4.321473763907955,4.321473763907955,4.321473763907955,4.321473763907955,4.321473763907955,4.321473763907955,4.321473763907955,4.321473763907955,4.321473763907955,4.321473763907955,4.321473763907955,4.321473763907955,4.321473763907955,4.321473763907955,4.321473763907955,4.321473763907955,4.321473763907955,4.321473763907955,4.321473763907955,4.321473763907955,4.321473763907955,4.321473763907955,4.321473763907955,4.321473763907955,4.321473763907955,4.321473763907955,4.321473763907955,4.321473763907955,4.321473763907955,4.321473763907955,4.321473763907955,4.321473763907955,4.321473763907955,4.321473763907955,4.321473763907955,4.321473763907955,4.321473763907955,4.321473763907955,4.321473763907955,4.321473763907955,4.321473763907955,4.321473763907955,4.321473763907955,4.321473763907955,4.321473763907955,4.321473763907955,4.321473763907955,4.321473763907955,4.321473763907955,4.321473763907955,4.321473763907955,4.321473763907955,4.321473763907955,4.321473763907955,4.321473763907955,4.321473763907955,4.321473763907955,4.321473763907955,4.321473763907955,4.321473763907955,4.321473763907955,4.321473763907955,4.321473763907955,4.321473763907955,4.321473763907955,4.321473763907955,4.321473763907955,4.321473763907955,4.321473763907955,4.321473763907955,4.321473763907955,4.321473763907955,4.321473763907955,4.321473763907955,4.321473763907955,4.321473763907955,4.321473763907955,4.321473763907955,4.321473763907955,4.321473763907955,4.321473763907955,4.321473763907955,4.321473763907955,4.321473763907955,4.321473763907955,4.321473763907955,4.321473763907955,4.321473763907955,4.321473763907955,4.321473763907955,4.328491624562957,4.349863951385335,4.361978186239026,4.4017299616348735,4.464540314288975,4.549790996967374,4.691454856216353,4.850201670019301,4.994094587680057,5.153807129154075,5.277788012233067,5.3453684494832014,5.4215808611274605,5.4426327151909115,5.452937108195403,5.452937108195403,5.452937108195403,5.452937108195403,5.452937108195403,5.452937108195403,5.452937108195403,5.452937108195403,5.452937108195403,5.452937108195403,5.452937108195403,5.463675244646964,5.463675244646964,5.47463432277897,5.495850100691873,5.505658078647725,5.538091146148785,5.592019911317405,5.6718498970296425,5.753857342555828,5.867460063311489,6.011513614880803,6.1319996578784295,-0.037909719029530775,0.04058450726812701,0.1141731441695264,0.1391963614141567,0.1391963614141567,0.1391963614141567,0.1391963614141567,0.1391963614141567,0.1391963614141567,0.1391963614141567,0.1391963614141567,0.1391963614141567,0.1391963614141567,0.1391963614141567,0.1391963614141567,0.16396208666218293,0.24402258891950446,0.34088647097158975,0.4876139696993409,0.6429459165047184,0.7927583730776159,0.9140830738695145,0.9807952588685229,1.0090722928057667,1.0090722928057667,1.0090722928057667,1.0090722928057667,1.0090722928057667,1.0090722928057667,1.0090722928057667,1.0090722928057667,1.0090722928057667,1.0090722928057667,1.0090722928057667,1.0090722928057667,1.0090722928057667,1.0602454977635714,1.132561712717081,1.2105695881725158,1.2703933586867477,1.3159169490719766,1.3280428163930695,1.3280428163930695,1.3280428163930695,1.3280428163930695,1.3280428163930695,1.3280428163930695,1.3280428163930695,1.3280428163930695,1.3280428163930695,1.3280428163930695,1.3280428163930695,1.3280428163930695,1.3280428163930695,1.3280428163930695,1.3280428163930695,1.3280428163930695,1.3280428163930695,1.3280428163930695,1.3280428163930695,1.3280428163930695,1.3280428163930695,1.3280428163930695,1.3280428163930695,1.3280428163930695,1.3280428163930695,1.3280428163930695,1.3280428163930695,1.3280428163930695,1.3280428163930695,1.3280428163930695,1.3280428163930695,1.3280428163930695,1.3280428163930695,1.3280428163930695,1.3280428163930695,1.3280428163930695,1.3280428163930695,1.3280428163930695,1.3280428163930695,1.3280428163930695,1.3280428163930695,1.3280428163930695,1.3280428163930695,1.3280428163930695,1.3280428163930695,1.3280428163930695,1.3280428163930695,1.3280428163930695,1.3280428163930695,1.3280428163930695,1.3280428163930695,1.3280428163930695,1.3280428163930695,1.3280428163930695,1.3280428163930695,1.3280428163930695,1.3280428163930695,1.3280428163930695,1.3280428163930695,1.3280428163930695,1.3280428163930695,1.3280428163930695,1.3280428163930695,1.3280428163930695,1.3280428163930695,1.3280428163930695,1.3280428163930695,1.3280428163930695,1.3280428163930695,1.3280428163930695,1.3280428163930695,1.3280428163930695,1.3280428163930695,1.3280428163930695,1.3280428163930695,1.3280428163930695,1.3280428163930695,1.3280428163930695,1.3280428163930695,1.3588006831669146,1.3980006478197131,1.4602023757021556,1.5638717938876676,1.654005918781442,1.7376729129768538,1.7657183629192859,1.8103391049658664,1.826866525568587,1.8607518554727047,1.8607518554727047,1.8607518554727047,1.8607518554727047,1.8607518554727047,1.8607518554727047,1.8607518554727047,1.8607518554727047,1.8607518554727047,1.8607518554727047,1.8957230148696316,1.9375237467424828,2.065237355355338,2.2056123411196715,2.3772524732453784,2.585060517568822,2.7399446920407104,2.887015117089219,2.977638344710832,3.0204137927211248,3.0204137927211248,3.0204137927211248,3.0204137927211248,3.0204137927211248,3.0204137927211248,3.0204137927211248,3.0204137927211248,3.0204137927211248,3.021172517916961,3.075912297966841,3.1284953595777827,3.1794369724773857,3.265900585885557,3.3976628523634833,3.5395599069676473,3.6922092353629123,3.8237341720215667,3.925968407788271,3.9891803799242895,4.028742239834813,4.047924767795755,4.055996000748239,4.080741021713973,4.106289124491154,4.123769861190565,4.123769861190565,4.132645058872111,4.132645058872111,4.136582884409929,4.164195329739261,4.217361283400572,4.313888411834989,4.439834675781995,4.585058454122478,4.720647662419678,4.86537757063568,4.953754356780529,5.00814951565529,5.03976664394367,5.0603978380406005,5.085361440143624,5.100306320869509,5.1154066958716164,5.1154066958716164,5.1154066958716164,5.130658012621762,5.146055346441868,5.187128125032322,5.222133275297022,5.253696288808145,5.317852460197747,5.3914787504778126,5.481247522575206,5.55345878872995,5.619948498571469,5.651650624448575,5.667339171203454,5.67708545128605,5.67708545128605,5.67708545128605,5.67708545128605,5.67708545128605,5.67708545128605,5.67708545128605,5.67708545128605,5.67708545128605,5.67708545128605,5.67708545128605,5.67708545128605,5.67708545128605,5.67708545128605,5.67708545128605,5.67708545128605,5.67708545128605,5.67708545128605,5.67708545128605,5.67708545128605,5.67708545128605,5.67708545128605,5.67708545128605,5.67708545128605,5.67708545128605,5.67708545128605,5.67708545128605,5.67708545128605,5.67708545128605,5.67708545128605,5.67708545128605,5.67708545128605,5.67708545128605,5.67708545128605,5.67708545128605,5.67708545128605,5.67708545128605,5.67708545128605,5.67708545128605,5.67708545128605,5.67708545128605,5.67708545128605,5.67708545128605,5.67708545128605,5.67708545128605,5.67708545128605,5.67708545128605,5.67708545128605,5.67708545128605,5.67708545128605,5.67708545128605,5.67708545128605,5.67708545128605,5.67708545128605,5.67708545128605,5.67708545128605,5.67708545128605,5.67708545128605,5.67708545128605,5.67708545128605,5.686947064527187,5.692709179906527,5.712643579897508,5.743386521051131,5.790877458429758,5.8392109602151745,5.930759547424692,6.027516663637918,6.102628346139735,6.166915242787249,6.205005602537272,-0.05318100660359004,-0.05318100660359004,-0.04068556200403162,-0.04068556200403162,-0.04068556200403162,-0.04068556200403162,-0.04068556200403162,-0.04068556200403162,-0.04068556200403162,-0.04068556200403162,-0.04068556200403162,-0.04068556200403162,-0.04068556200403162,-0.04068556200403162,-0.04068556200403162,-0.04068556200403162,-0.04068556200403162,-0.04068556200403162,-0.04068556200403162,-0.04068556200403162,-0.04068556200403162,-0.04068556200403162,-0.003261545626994433,0.12671524589297056,0.2930903146476205,0.5154019431743753,0.7279820824341477,0.8659532299542833,0.9375783463871941,0.9629265612450661,0.9629265612450661,0.9629265612450661,0.9629265612450661,0.9629265612450661,0.9629265612450661,0.9629265612450661,0.9629265612450661,0.9629265612450661,0.9629265612450661,0.9990410078756036,1.060696761270846,1.1205112563497313,1.1658233567179002,1.2082712977955419,1.2190645294546265,1.2299267220427736,1.2299267220427736,1.2299267220427736,1.2299267220427736,1.2299267220427736,1.2766193318800825,1.3567881370501802,1.4370395129139453,1.5162266250695524,1.5490437382488347,1.5702411345063307,1.5810566074378396,1.5918543098479299,1.5918543098479299,1.5918543098479299,1.5918543098479299,1.5918543098479299,1.602631774459491,1.6133865620324008,1.634818508327857,1.65776529956721,1.6684821192802208,1.6684821192802208,1.6684821192802208,1.6684821192802208,1.6684821192802208,1.6684821192802208,1.6684821192802208,1.6684821192802208,1.6684821192802208,1.6684821192802208,1.6684821192802208,1.6684821192802208,1.6684821192802208,1.6684821192802208,1.6684821192802208,1.6684821192802208,1.6684821192802208,1.6684821192802208,1.6684821192802208,1.6684821192802208,1.6684821192802208,1.6684821192802208,1.6684821192802208,1.6684821192802208,1.6684821192802208,1.6684821192802208,1.6684821192802208,1.6684821192802208,1.6684821192802208,1.6684821192802208,1.6684821192802208,1.6684821192802208,1.6684821192802208,1.6684821192802208,1.6684821192802208,1.6684821192802208,1.6684821192802208,1.6684821192802208,1.6684821192802208,1.6684821192802208,1.6684821192802208,1.6684821192802208,1.6684821192802208,1.6684821192802208,1.6684821192802208,1.6684821192802208,1.6684821192802208,1.6684821192802208,1.6684821192802208,1.6684821192802208,1.6684821192802208,1.6684821192802208,1.6684821192802208,1.6684821192802208,1.6684821192802208,1.6684821192802208,1.704671354877232,1.7583817374026978,1.8528829590289602,1.968763580172751,2.0931185747195125,2.2263820195679616,2.3546462495708242,2.4452309996464576,2.537690596355363,2.629308492961033,2.7069527517609853,2.754161743570199,2.777413366380662,2.777413366380662,2.777413366380662,2.777413366380662,2.777413366380662,2.777413366380662,2.777413366380662,2.777413366380662,2.777413366380662,2.777413366380662,2.777413366380662,2.777413366380662,2.777413366380662,2.777413366380662,2.777413366380662,2.8043127062067654,2.8518886509289176,2.912817005756601,3.012705466069381,3.152684189236619,3.3976628523634833,3.6855721646789226,3.993861993660964,4.228484295182509,4.386677335179606,4.455785466439153,4.4855177103234904,4.493448422893284,4.493448422893284,4.493448422893284,4.493448422893284,4.493448422893284,4.493448422893284,4.493448422893284,4.493448422893284,4.501398614126035,4.515239929074869,4.546208025707108,4.586436886077345,4.646708624761738,4.709127434757695,4.764344795440033,4.813372452532081,4.851350434591516,4.871419793176381,4.889445139179508,4.889445139179508,4.889445139179508,4.889445139179508,4.889445139179508,4.889445139179508,4.914619047185077,4.9530757773777845,5.038408564199162,5.143519426265108,5.265661094610643,5.415714813851181,5.593094601929993,5.764438958176904,5.906906351185606,6.000067532153687,6.05973621396068,6.106847730382738,6.140733060286856,6.1516661822539405,6.1516661822539405,6.1516661822539405,6.1516661822539405,6.1516661822539405,6.1516661822539405,6.1516661822539405,6.162615088962481,6.162615088962481,6.173577184479744,6.174054056165104,6.196002889570403,6.196002889570403,6.196002889570403,6.196002889570403,6.196002889570403,6.196002889570403,6.206752677765533,6.206752677765533,6.206752677765533,6.206752677765533,6.206752677765533,6.206752677765533,6.206752677765533,6.206752677765533,6.206752677765533,6.206752677765533,6.206752677765533,6.206752677765533,6.206752677765533,6.206752677765533,6.206752677765533,-0.06568035562295171,-0.06568035562295171,-0.05504245904741034,-0.05504245904741034,-0.04440696959889068,-0.04440696959889068,-0.04440696959889068,-0.04440696959889068,-0.04440696959889068,-0.04440696959889068,-0.04440696959889068,-0.04440696959889068,-0.04440696959889068,-0.04440696959889068,-0.04440696959889068,-0.04440696959889068,-0.04440696959889068,-0.04440696959889068,-0.04440696959889068,-0.04440696959889068,-0.04440696959889068,-0.04440696959889068,-0.04440696959889068,-0.04440696959889068,-0.04440696959889068,-0.04440696959889068,-0.04440696959889068,-0.04440696959889068,-0.04440696959889068,-0.04440696959889068,-0.04440696959889068,-0.04440696959889068,-0.04440696959889068,-0.04440696959889068,-0.04440696959889068,-0.04440696959889068,-0.04440696959889068,-0.04440696959889068,-0.04440696959889068,-0.04440696959889068,-0.04440696959889068,-0.04440696959889068,-0.04440696959889068,-0.04440696959889068,-0.04440696959889068,-0.04440696959889068,-0.04440696959889068,-0.04440696959889068,-0.04440696959889068,-0.04440696959889068,-0.04440696959889068,-0.04440696959889068,-0.04440696959889068,-0.04440696959889068,-0.04440696959889068,-0.04440696959889068,-0.04440696959889068,-0.04440696959889068,-0.04440696959889068,-0.04440696959889068,-0.04440696959889068,-0.04440696959889068,-0.04440696959889068,-0.04440696959889068,-0.04440696959889068,-0.04440696959889068,-0.04440696959889068,-0.04440696959889068,-0.04440696959889068,-0.04440696959889068,-0.04440696959889068,-0.04440696959889068,-0.04440696959889068,-0.04440696959889068,-0.04440696959889068,-0.04440696959889068,-0.04440696959889068,-0.04440696959889068,-0.04440696959889068,-0.04440696959889068,-0.04440696959889068,-0.04440696959889068,-0.04440696959889068,-0.04440696959889068,-0.04440696959889068,-0.04440696959889068,-0.04440696959889068,-0.04440696959889068,-0.04440696959889068,-0.04440696959889068,-0.04440696959889068,-0.04440696959889068,-0.04440696959889068,-0.04440696959889068,-0.04440696959889068,-0.04440696959889068,-0.04440696959889068,-0.04440696959889068,-0.04440696959889068,-0.04440696959889068,-0.04440696959889068,-0.04440696959889068,-0.04440696959889068,-0.04440696959889068,-0.04440696959889068,-0.04440696959889068,-0.04440696959889068,-0.04440696959889068,-0.04440696959889068,-0.04440696959889068,-0.04440696959889068,-0.04440696959889068,-0.04440696959889068,-0.04440696959889068,-0.04440696959889068,-0.04440696959889068,-0.04440696959889068,-0.04440696959889068,-0.04440696959889068,-0.04440696959889068,-0.04440696959889068,-0.04440696959889068,-0.04440696959889068,-0.04440696959889068,-0.04440696959889068,-0.04440696959889068,-0.04440696959889068,-0.04440696959889068,-0.04440696959889068,-0.04440696959889068,-0.04440696959889068,-0.04440696959889068,-0.04440696959889068,-0.04440696959889068,-0.04440696959889068,-0.04440696959889068,-0.04440696959889068,-0.04440696959889068,-0.04440696959889068,-0.04440696959889068,-0.04440696959889068,-0.04440696959889068,-0.04440696959889068,-0.04440696959889068,-0.04440696959889068,-0.04440696959889068,-0.04440696959889068,-0.04440696959889068,-0.04440696959889068,-0.04440696959889068,-0.04440696959889068,-0.04440696959889068,-0.04440696959889068,-0.04440696959889068,-0.04440696959889068,-0.04440696959889068,-0.04440696959889068,-0.04440696959889068,-0.04440696959889068,-0.04440696959889068,-0.04440696959889068,-0.04440696959889068,-0.04440696959889068,-0.04440696959889068,-0.04440696959889068,-0.04440696959889068,-0.04440696959889068,-0.04440696959889068,-0.04440696959889068,-0.04440696959889068,-0.04440696959889068,-0.04440696959889068,-0.04440696959889068,-0.04440696959889068,-0.04440696959889068,-0.04440696959889068,-0.04440696959889068,-0.04440696959889068,-0.04440696959889068,-0.04440696959889068,-0.04440696959889068,-0.04440696959889068,-0.04440696959889068,-0.04440696959889068,-0.04440696959889068,-0.04440696959889068,-0.04440696959889068,-0.04440696959889068,-0.04440696959889068,-0.04440696959889068,-0.04440696959889068,-0.04440696959889068,-0.04440696959889068,-0.04440696959889068,-0.04440696959889068,-0.04440696959889068,-0.04440696959889068,-0.04440696959889068,-0.04440696959889068,-0.04440696959889068,-0.04440696959889068,-0.04440696959889068,-0.04440696959889068,-0.04440696959889068,-0.04440696959889068,-0.04440696959889068,-0.04440696959889068,-0.04440696959889068,-0.04440696959889068,-0.04440696959889068,-0.04440696959889068,-0.04440696959889068,-0.04440696959889068,-0.04440696959889068,-0.04440696959889068,-0.04440696959889068,-0.04440696959889068,-0.04440696959889068,-0.04440696959889068,-0.04440696959889068,-0.04440696959889068,-0.04440696959889068,-0.04440696959889068,-0.04440696959889068,-0.04440696959889068,-0.04440696959889068,-0.04440696959889068,-0.04440696959889068,-0.04440696959889068,-0.04440696959889068,-0.04440696959889068,-0.04440696959889068,-0.04440696959889068,-0.04440696959889068,-0.04440696959889068,-0.04440696959889068,-0.04440696959889068,-0.04440696959889068,-0.04440696959889068,-0.04440696959889068,-0.04440696959889068,-0.04440696959889068,-0.04440696959889068,-0.04440696959889068,-0.04440696959889068,-0.04440696959889068,-0.04440696959889068,-0.04440696959889068,-0.04440696959889068,-0.04440696959889068,-0.04440696959889068,-0.04440696959889068,-0.04440696959889068,-0.04440696959889068,-0.04440696959889068,-0.04440696959889068,-0.04440696959889068,-0.04440696959889068,-0.04440696959889068,-0.04440696959889068,-0.04440696959889068]],"response_history":["Well, we know that 1 is always a generator for any shape ","Well, we know that 1 is always a generator. And 5 was a generator for both 65 ","Well,  we know  that 1 is always a generator. And 5 was a generator for both 65","Well, we know that 1 is always a generator. And 5 was a generator for both 6 ","Well, we know that 1 is always a generator. And 5 was a generator for both 6","Well, we know that 1 is always a generator. And 5 was a generator for both n = 6 and n= 9. ","Well, we know that 1 is always a generator. And 5 was a generator for both n = 6 and n = 9. Maybe when a number is wi","Well, we know that 1 is always a generator. And 5 was a generator for both n = 6 and n = 9. Maybe when a number is w","Well, we know that 1 is always a generator. And 5 was a generator for both n = 6 and n = 9. Maybe when a number is ","Well, we know that 1 is always a generator. And 5 was a generator for both n = 6 and n = 9. Maybe when a number is","Well, we know that 1 is always a generator. And 5 was a generator for both n = 6 and n = 9. Maybe when a number i","Well, we know that 1 is always a generator. And 5 was a generator for both n =  6 and n  = 9. Maybe when a number or its inverse ","Well, we know that 1 is always a generator. And 5 was a generator for both n = 6 and n = 9. Maybe when a number or its","Well, we know that 1 is always a generator. And 5 was a generator for both n = 6 and n = 9. Maybe when a number or it","Well, we know that 1 is always a generator. And 5 was a generator for both n = 6 and n = 9. Maybe when a number or i","Well, we know that 1 is always a generator. And 5 was a generator for both n = 6 and n = 9. Maybe when a number or ","Well, we know that 1 is always a generator. And 5 was a generator for both n = 6 and n = 9. Ma","Well, we know that 1 is always a generator. And 5 was a generator for both n = 6 and n = 9. M","Well, we know that 1 is always a generator. And 5 was a generator for both n = 6 and n = 9. ","Well, we know that 1 is always a generator. And 5 was a generator for both n = 6 and n = 9. And 4 was a generator for n-9 ","Well, we know that 1 is always a generator. And 5 was a  generat or for both n = 6 and n = 9. And 4 was a generator for n-9","Well, we know that 1 is always a generator. And 5 was a generator for both n = 6 and n = 9. And 4 was a generator for n-","Well, we know that 1 is always a generator. And 5 was a generator for both n = 6 and n = 9. And 4 was a generator for n=9, but not n=","Well, we know that 1 is always a generator. And 5 was a generator for both n = 6 and n = 9. And 4 was a generator for n=9, but not n","Well, we know that 1 is always a generator. And 5 was a generator for both n = 6 and n = 9. And 4 was a generator for n=9","Well, we know that 1 is always a generator. And 5 was a generator for both n = 6 and n = 9. And 4 was a generator for n=","Well, we know that 1 is always a generator. And 5 was a generator for both n = 6 and n = 9. And 4 was a generator for n = 9. ","Well, we know that 1 is always a generator. And 5 was a generator for both n = 6 and n = 9. And 4 was a generator for n = 9.","Well, we know that 1 is always a  generat or. And 5 was a generator for both n = 6 and n = 9. And 4 was a generator for n = 9, but","Well, we know that 1 is always a generator. And 5 was a generator for both n = 6 and n = 9. And 4 was a generator for n = 9, bu","Well, we know that 1 is always a generator. And 5 was a generator for both n = 6 and n = 9. And 4 was a generator for n = 9, b","Well, we know that 1 is always a generator. And 5 was a generator for both n = 6 and n = 9. And 4 was a generator for n = 9, ","Well, we know that 1 is always a generator. And 5 was a generator for both n = 6 and n = 9. And 4 was a generator for n = 9,","Well, we know that 1 is always a generator. And 5 was a generator for both n = 6 and n = 9. And 4 was a generator for n = 9 but not n = 6. Maybe i ","Well, we know that 1 is always a generator. And 5 was a generator for both n = 6 and n = 9. And 4 was a generator for n = 9 but not n = 6. Maybe if neither a number or is factors (squre ","Well, we know that 1 is always a generator. A nd 5 was  a generator for both n = 6 and n = 9. And 4 was a generator for n = 9 but not n = 6. Maybe if neither a number or is factors (squre","Well, we know that 1 is always a generator. And 5 was a generator for both n = 6 and n = 9. And 4 was a generator for n = 9 but not n = 6. Maybe if neither a number or is factors (squr","Well, we know that 1 is always a generator. And 5 was a generator for both n = 6 and n = 9. And 4 was a generator for n = 9 but not n = 6. Maybe if neither a number or is factors (square root?) can be divided evenly into n","Well, we know that 1 is always a generator. And 5 was a generator for both n = 6 and n = 9. And 4 was a generator for n = 9 but not n = 6. Maybe if neither a number or its factors (square root?) can be divided evenly into n ","Well, we know that 1 is always a generator. And 5 was a generator for both n = 6 and n = 9. And 4 was a generator for n = 9 but not n = 6. Maybe if neither a number or its factors (square root?) can be divided evenl y into n , it i sa ge","Well, we know that 1 is always a generator. And 5 was a generator for both n = 6 and n = 9. And 4 was a generator for n = 9 but not n = 6. Maybe if neither a number or its factors (square root?) can be divided evenly into n, it i sa g","Well, we know that 1 is always a generator. And 5 was a generator for both n = 6 and n = 9. And 4 was a generator for n = 9 but not n = 6. Maybe if neither a number or its factors (square root?) can be divided evenly into n, it i sa ","Well, we know that 1 is always a generator. And 5 was a generator for both n = 6 and n = 9. And 4 was a generator for n = 9 but not n = 6. Maybe if neither a number or its factors (square root?) can be divided evenly into n, it i sa","Well, we know that 1 is always a generator. And 5 was a generator for both n = 6 and n = 9. And 4 was a generator for n = 9 but not n = 6. Maybe if neither a number or its factors (square root?) can be divided evenly into n, it i s","Well, we know that 1 is always a  generat or. And 5 was a generator for both n = 6 and n = 9. And 4 was a generator for n = 9 but not n = 6. Maybe if neither a number or its factors (square root?) can be divided evenly into n, it i ","Well, we know that 1 is always a generator. And 5 was a generator for both n = 6 and n = 9. And 4 was a generator for n = 9 but not n = 6. Maybe if neither a number or its factors (square root?) can be divided evenly into n, it i","Well, we know that 1 is always a generator. And 5 was a generator for both n = 6 and n = 9. And 4 was a generator for n = 9 but not n = 6. Maybe if neither a number or its factors (square root?) can be divided evenly into n, it ","Well, we know that 1 is always a generator. And 5 was a generator for both n = 6 and n = 9. And 4 was a generator for n = 9 but not n = 6. Maybe if neither a  number or its factors (square root?) can be divided evenly into n, it ","Well, we know that 1 is always a generator. And 5 was a generator for both n = 6 and n = 9. And 4 was  a gener ator for n = 9 but not n = 6. Maybe if neither a ( number or its factors (square root?) can be divided evenly into n, it ","Well, we know that 1 is always a generator. And 5 was a generator for both n = 6 and n = 9. And 4 was a generator for n = 9 but not n = 6. Maybe if neither a (n number or its factors (square root?) can be divided evenly into n, it ","Well, we know that 1 is always a generator. And 5 was a generator for both n = 6 and n = 9. And 4 was a generator for n = 9 but not n = 6. Maybe if neither a (no number or its factors (square root?) can be divided evenly into n, it ","Well, we know that 1 is always a generator. And 5 was a generator for both n = 6 and n = 9. And 4 was a generator for n = 9 but not n = 6. Maybe if neither a (non number or its factors (square root?) can be divided evenly into n, it ","Well, we know that 1 is always a generator. And 5 was a generator for both n = 6 and n = 9. And 4 was a generator for n = 9 but not n = 6. Maybe if neither a (n o number  or its factors (square root?) can be divided evenly into n, it ","Well, we know that 1 is always a generator. And 5 was a generator for both n = 6 and n = 9. And 4 was a generator for n = 9 but not n = 6. Maybe if neither a (n number or its factors (square root?) can be divided evenly into n, it ","Well, we know that 1 is always a generator. And 5 was a generator for both n = 6 and n = 9. And 4 was a generator for n = 9 but not n = 6. Maybe if neither a ( number or its factors (square root?) can be divided evenly into n, it ","Well, we know that 1 is always a generator. And 5 was a generator for both n = 6 and n = 9. And 4 was a generator for n = 9 but not n = 6. Maybe if neither a  number or its factors (square root?) can be divided evenly into n, it ","Well, we know that 1 is always a generator. And 5 was a generator for both n = 6 and n = 9. And 4 was a generator for n = 9 but not n = 6. Maybe if neither a n number or its factors (square root?) can be divided evenly into  n, it ","Well, we know that 1 is always a generator. And 5 was a generator for both n = 6 and n = 9. And 4 was a generator for n = 9 but not n = 6. Maybe if neither a no number or its factors (square root?) can be divided evenly into n, it ","Well, we know that 1 is always a generator. And 5 was a generator for both n = 6 and n = 9. And 4 was a generator for n = 9 but not n = 6. Maybe if neither a n number or its factors (square root?) can be divided evenly into n, it ","Well, we know that 1 is always a generator. And 5 was a generator for both n = 6 and n = 9. And 4 was a generator for n = 9 but not n = 6. Maybe if neither a  number or its factors (square root?) can be divided evenly into n, it ","Well, we know that 1 is always a generator. And 5 was a generator for both n = 6 and n = 9. And 4 was a generator for n = 9 but not n = 6. Maybe if neither a ( number or its factors (square root?) can be divided evenly into n, it ","Well, we know that 1 is always a generator. And 5 was a  generat or for both n = 6 and n = 9. And 4 was a generator for n = 9 but not n = 6. Maybe if neither a (n number or its factors (square root?) can be divided evenly into n, it ","Well, we know that 1 is always a generator. And 5 was a generator for both n = 6 and n = 9. And 4 was a generator for n = 9 but not n = 6. Maybe if neither a (non number or its factors (square root?) can be divided evenly into n, it ","Well, we know that 1 is always a generator. And 5 was a generator for both n = 6 and n = 9. And 4 was a generator for n = 9 but not n = 6. Maybe if neither a (non- number or its factors (square root?) can be divided evenly into n, it ","Well, we know that 1 is always a generator. And 5 was a generator for both n = 6 and n = 9. And 4 was a generator for n = 9 but not n = 6. Maybe if neither a (non-10 number or its factors (square root?) can be divided evenly into n, it ","Well, we know that 1 is always a generator. And 5 was a generator for both n = 6 and n = 9. And 4 was a ge nerator  for n = 9 but not n = 6. Maybe if neither a (non-1) number or its factors (square root?) can be divided evenly into n, it is a generattor","Well, we know that 1 is always a generator. And 5 was a generator for both n = 6 and n = 9. And 4 was a generator for n = 9 but not n = 6. Maybe if neither a (non-1) number or its factors (square root?) can be divided evenly into n, it is a generatto","Well, we know that 1 is always a generator. And 5 was a generator for both n = 6 and n = 9. And 4 was a generator for n = 9 but not n = 6. Maybe if neither a (non-1) number or its factors (square root?) can be divided evenly into n, it is a generatt","Well, we know that 1 is always a generator. And 5 was a generator for both n = 6 and n = 9. And 4 was a generator for n = 9 but not n = 6. Maybe if neither a (non-1) number or its factors (square root?) can be divided evenly into n, it is a generator for n."],"rt":1353992,"trial_type":"polygon-arrow-question","trial_index":0,"trial_index_global":65,"time_elapsed":2407288,"internal_chunk_id":"0-0.13-0"},{"nsides":"n","question":"True or false: If x is an odd number, it must be a generator under <img src=\"./images/ngon_symbol.png\" style=\"width:14px;height:14px\">.","response_type":"multi","response_choices":["True","False"],"correct_response":"False","response":"False","orientation_history":[[0]],"response_history":["False"],"rt":8474,"trial_type":"polygon-arrow-question","trial_index":0,"trial_index_global":66,"time_elapsed":2415764,"internal_chunk_id":"0-0.13-0"},{"nsides":"n","question":"True or false: If x is an even number, it must not be a generator under <img src=\"./images/ngon_symbol.png\" style=\"width:14px;height:14px\">.","response_type":"multi","response_choices":["True","False"],"correct_response":"False","response":"False","orientation_history":[[0]],"response_history":["False"],"rt":2785,"trial_type":"polygon-arrow-question","trial_index":0,"trial_index_global":67,"time_elapsed":2418549,"internal_chunk_id":"0-0 .13-0"},{"nsides":"n","question":"True or false: If x is not a generator under <img src=\"./images/ngon_symbol.png\" style=\"width:14px;height:14px\">, x must divide n.","response_type":"multi","response_choices":["True","False"],"correct_response":"False","response":"True","orientation_history":[[0]],"response_history":["True"],"rt":78713,"trial_type":"polygon-arrow-question","trial_index":0,"trial_index_global":68,"time_elapsed":2497263,"internal_chunk_id":"0-0