[{"nsides":6,"instructions":"Let's define a new operation <img src=\"./images/hexagon_symbol.png\" style=\"width:14px;height:14px\">. This operation will give us a way of combining two of the numbers 0, 1, 2, 3, 4, 5 to get another one of them back. Consider the hexagon at the right, where I've labeled each point with one of the numbers. To perform <img src=\"./images/hexagon_symbol.png\" style=\"width:14px;height:14px\">, you can use the interactive diagram on the right, or perform the operation in your mind. or perform the operation in your mind. Point the arrow at the first number on the hexagon, then move the arrow the second number of points clockwise around the hexagon. The number the arrow arrives at is your result. (The operation is called <img src=\"./images/hexagon_symbol.png\" style=\"width:14px;height:14px\"> because it uses the hexagon, which has 6 sides.) <br /><br />For example, 3 <img src=\"./images/hexagon_symbol.png\" style=\"width:14px;height:14px\"> 5 = 2,  because  5 steps clockwise from 3 on the hexagon brings us to 2. So 3 <img src=\"./images/hexagon_symbol.png\" style=\"width:14px;height:14px\"> 5 = 2.<br /><br />Similarly, 1 <img src=\"./images/hexagon_symbol.png\" style=\"width:14px;height:14px\"> 4 = 5, because 4 steps clockwise from 1 brings us to 5. <br /><br />Click \"Continue\" when you are ready to move on.","orientation_history":[0],"rt":904835,"trial_type":"polygon-arrow-instructions","trial_index":0,"trial_index_global":1,"time_elapsed":908011,"internal_chunk_id":"0-0"},{"nsides":6,"question":"Now try one on your own! What is 4 <img src=\"./images/hexagon_symbol.png\" style=\"width:14px;height:14px\"> 5? <br /><br /> (Remember, to perform <img src=\"./images/hexagon_symbol.png\" style=\"width:14px;height:14px\">, you can use the interactive diagram on the right, or perform the operation in your mind. Point the arrow at the first number on the hexagon, then move the arrow the second number of points clockwise around the h exagon.  The number the arrow arrives at is your result.)","response_type":"free","response_choices":[],"correct_response":"3","response":"3","orientation_history":[[0],[0,0,0,0,0,0,0],[0,0,0,0,0,0,-6.211195526108618,-6.131514994886375,-5.834431516207481,-5.570441906635263,-5.384034915468115,-5.196621198772135,-5.020055958958471,-4.860142835800252,-4.7806873351535195,-4.752306904937797,-4.742136962287466,-4.723940813083506,-4.723940813083506,-4.698305404561829,-4.698305404561829,-4.690108866811916,-4.690108866811916,-4.690108866811916,-4.690108866811916,-4.690108866811916,-4.6819134302538234,-4.673720195191969,-4.6655302601577535,-4.657344721027513,-4.590392915745152,-4.5821637776818385,-4.474070653452733,-4.406848610083962,-4.345752270751652,-4.270932199418072,-4.198236661346516,-4.140673206905141,-4.128067429507784,-4.128067429507784,-4.092170073571328,-4.0397395221381025,-3.7668949834531054,-3.7668949834531054,-3.691777266624864,-3.586325806473762,-3.586325806473762,-3.3753205945056344,-3.3753205945056344,-3.1275090777669323,-2.9839256841204636,-2.948716022964011,-2.913948644286444,-2.8571837313882655,-2.751267067129559,-2.694308909335297,-2.6343134208642325,-2.6097272191542458,-2.579485161342655,-2.530332419674255,-2.5240756003286697,-2.5177030763196644,-2.4862653014826384,-2.454538045199674,-2.447411043933532,-2.447411043933532,-2.4175974593034075,-2.3855618097610147,-2.3771842449027094,-2.3771842449027094,-2.342110914369484,-2.323594512301475,-2.323594512301475,-2.2954159103261533,-2.2581962874302928,-2.2581962874302928,-2.2581962874302928,-2.2581962874302928,-2.231453693195588,-2.1950325589810813,-2.184549344783825,-2.184549344783825,-2.184549344783825,-2.176962236954857,-2.169532953137277,-2.169532953137277,-2.169532953137277,-2.169532953137277,-2.169532953137277,-2.169532953137277,-2.169532953137277,-2.169532953137277,-2.169532953137277,-2.169532953137277,-2.169532953137277,-2.169532953137277,-2.169532953137277,-2.169532953137277,-2.169532953137277,-2.1411566506813866,-2.130379419140196,-2.1194499737331185,-2.0742004919461436,-2.062504066566439,-2.062504066566439,-2.062504066566439,-2.062504066566439,-2.062504066566439,-2.062504066566439,-2.062504066566439,-2.062504066566439,-2.062504066566439,-2.062504066566439,-2.062504066566439,-2.062504066566439,-2.062504066566439,-2.062504066566439,-2.062504066566439,-2.062504066566439,-2.0571535641193304,-2.0758588652185583,-2.0758588652185583,-2.09475695879766,-2.101939906509311,-2.101939906509311,-2.101939906509311,-2.101939906509311,-2.101939906509311,-2.101939906509311,-2.101939906509311,-2.101939906509311,-2.101939906509311,-2.101939906509311,-2.101939906509311,-2.101939906509311,-2.101939906509311,-2.101939906509311,-2.101939906509311,-2.101939906509311,-2.101939906509311,-2.101939906509311,-2.101939906509311,-2.101939906509311,-2.101939906509311,-2.101939906509311,-2.101939906509311,-2.101939906509311,-2.101939906509311,-2.101939906509311,4.1887902047863905],[4.1887902047863905,4.1887902047863905,4.1887902047863905,4.1887902047863905,4.1887902047863905,4.1887902047863905,4.1887902047863905,4.1887902047863905,4.1887902047863905,4.1887902047863905,4.17689297016427,4.191266861943955,4.209837731540753,4.380314214242544,4.380314214242544,4.492661869748262,4.551457507192759,4.581368031928401,4.6250754033338,4.687176647407696,4.765257193753934,4.780858073239635,4.780858073239635,4.780858073239635,4.780858073239635,4.811983994155208,4.87817174743682,4.947386002475474,5.010114379719102,5.102366281732628,5.138909146608749,5.426896902601467,5.426896902601467,5.426896902601467,5.426896902601467,5.426896902601467,5.426896902601467,5.426896902601467,5.426896902601467,5.426896902601467,5.426896902601467,5.426896902601467,5.426896902601467,5.426896902601467,5.426896902601467,5.426896902601467,5.426896902601467,5.426896902601467,5.426896902601467,5.426896902601467,5.426896902601467,5.426896902601467,5.426896902601467,5.426896902601467,5.426896902601467,5.426896902601467,5.426896902601467,5.426896902601467,5.426896902601467,5.426896902601467,5.530167797512215,5.796083862803009,5.98306313272192,6.120489278218863,6.120489278218863,6.158329508725001,6.176490459432768,6.176490459432768,6.176490459432768,6.176490459432768,6.176490459432768,6.176490459432768,6.176490459432768,6.176490459432768,6.192386556288372,6.211336905959973,6.22684705328702,6.22684705328702,6.22684705328702,6.22684705328702,6.22684705328702,6.22684705328702,6.22684705328702,6.22684705328702,6.22684705328702,6.22684705328702,6.22684705328702,6.22684705328702,6.22684705328702,6.22684705328702,6.22684705328702,6.258692571104051,6.274054161048093,0.313085174416843,0.4687029208271647,0.5321167018557518,0.5422092134306353,0.5620478802095601,0.5717941602921559,0.5874827070470356,0.6127855471550203,0.66287215622327,0.6963693221625287,0.7135497621778348,0.8070265433364243,0.8377860694068935,0.8377860694068935,0.922785761057235,0.922785761057235,0.97466898116764,1.0281565178759409,1.0574696329477762,1.0863497434375313,1.0863497434375313,1.0863497434375313,1.0863497434375313,1.0863497434375313,1.0863497434375313,1.0863497434375313,1.0863497434375313,1.0863497434375313,1.0863497434375313,1.0863497434375313,1.0863497434375313,1.0863497434375313,1.0863497434375313,1.1049720715479965,1.2036369454438334,1.3446131899951708,1.3446131899951708,1.3446131899951708,1.3446131899951708,1.7477889605854058,1.8174629932264779,1.8174629932264779,1.8515267245132827,1.8627500531125392,1.8849864731377202,1.8959954460575366,1.8959954460575366,1.91051227385028,1.9362305078240296,1.9579429129257693,1.9898427906184466,2.1005973245692027,2.14044862315815,2.149855798309813,2.159153924257379,2.1683433063522255,2.1774243163054425,2.1774243163054425,2.1774243163054425,2.1774243163054425,2.1774243163054425,2.1774243163054425,2.275815952221209,2.3863696705639326,2.3863696705639326,2.624999331917291,2.9026186417814284,3.09018046822565,3.163221033528769,3.1743316874263767,3.1743316874263767,3.1743316874263767,3.1743316874263767,3.1743316874263767,3.1743316874263767,3.1854395988554884,3.207148800605659,3.2175154454370753,3.2175154454370753,3.2175154454370753,3.2175154454370753,3.2175154454370753,3.2175154454370753,3.2175154454370753,3.2175154454370753,3.2175154454370753,3.2175154454370753,3.2175154454370753,3.2175154454370753,3.2175154454370753,3.2175154454370753,3.2175154454370753,3.2175154454370753,3.2175154454370753,3.2175154454370753,3.141592653589793]],"response_history":["3"],"rt":19119,"trial_type":"polygon-arrow-question","trial_index":0,"trial_index_global":2,"time_elapsed":927137,"internal_chunk_id":"0-0.2-0"},{"nsides":6,"feedback":"Correct! 4 <img src=\"./images/hexagon_symbol.png\" style=\"width:14px;height:14px\"> 5 = 3 because 5 steps clockwise on the hexagon from 4 brings us to 3","orientation_history":[0],"rt":1485,"trial_type":"polygon-arrow-feedback","trial_index":0,"trial_index_global":3,"time_elapsed":928625,"internal_chunk_id":"0-0.2-0"},{"nsides":6,"question":"What i s 3 <img  src=\"./images/hexagon_symbol.png\" style=\"width:14px;height:14px\"> 2? <br /><br /> (Remember, to perform <img src=\"./images/hexagon_symbol.png\" style=\"width:14px;height:14px\">, you can use the interactive diagram on the right, or perform the operation in your mind. Point the arrow at the first number on the hexagon, then move the arrow the second number of points clockwise around the hexagon. The number the arrow arrives at is your result.)","response_type":"free","response_choices":[],"correct_response":"5","response":"5","orientation_history":[[0],[0,0.0002260908846842824,-6.253330128926965,-6.209279128589094,-6.165455098886522,-6.109944980183131,-6.073349411920867,-6.03302273558416,-6.006556135592567,-5.980459120524369,-5.980459120524369,-5.743855322521903,-5.6800323477572485,-5.6190393923083155,-5.6190393923083155,-4.651117508495409,-4.389841151387098,-4.259728852392467,-4.259728852392467,-3.9568550768869986,-3.902991134596214,-3.902991134596214,-3.8761413484331477,-3.8676215167168184,-3.8243451203100802,-3.78748546656571,-3.7248611911935603,-3.6440914070917976,-3.6059615897076194,-3.595409005487345,-3.5847423641066785,-3.5847423641066785,-3.5847423641066785,-3.5847423641066785,-3.5847423641066785,-3.5847423641066785,-3.5847423641066785,-3.5630694575285644,-3.4954018439208796,-3.4762978995721214,-3.444077649004554,-3.3938530948988967,-3.3291009668624993,-3.2760020375887264,-3.1835230801212875,-3.1554196915665846,-3.1264422977150232,-3.1119505586495233,-3.068536092466916,-3.068536092466916,-3.068536092466916,-3.068536092466916,-3.068536092466916,-3.068536092466916,-3.068536092466916,-3.068536092466916,-3.068536092466916,-3.068536092466916,-3.068536092466916,-3.068536092466916,-3.068536092466916,-3.068536092466916,-3.0668115845838537,-3.0668115845838537,-3.0668115845838537,-3.0668115845838537,-3.0668115845838537,-3.0668115845838537,-3.096148537796248,-3.1112919418402534,-3.156284182382133,-3.170531355113095,-3.170531355113095,-3.170531355113095,-3.170531355113095,-3.155845585919028,-3.155845585919028,-3.1264422977150232,-3.053044971813412,-2.9612936203003963,-2.804691743318381,-2.6164702380136102,-2.3707383739244845,-2.1299508010948287,-2.1299508010948287,-1.9760513221228688,-1.9760513221228688,-1.9496390061923643,-1.9456940431835763,-1.9456940431835763,-1.9456940431835763,-1.9456940431835763,-1.9456940431835763,-1.9323572998381895,-1.9168497264138082,-1.9168497264138082,-1.9168497264138082,-1.9168497264138082,-1.9168497264138082,-1.9168497264138082,-1.8807635159602771,-1.782444818974012,-1.6867576194026732,-1.588601068534425,-1.500756108325973,-1.4137489163159627,-1.392279822811851,-1.392279822811851,-1.3816007310773877,-1.3816007310773877,-1.3816007310773877,-1.3816007310773877,-1.3816007310773877,-1.3816007310773877,-1.3816007310773877,-1.3816007310773877,-1.3393053095468357,-1.3159028620496702,-1.2846991205817062,-1.274413769001832,-1.274413769001832,-1.274413769001832,-1.2338954165234846,-1.1561304769207528,-1.119018811106585,-1.065099022093218,-1.0465750824977436,-1.0290186994863761,-1.0118135146180043,-0.9949589759373207,-0.9949589759373207,-0.9949589759373207,-0.9949589759373207,-0.9949589759373207,-0.9949589759373207,-0.9949589759373207,-0.9949589759373207,5.235987755982988]],"response_history":["5"],"rt":8934,"trial_type":"polygon-arrow-question","trial_index":0,"trial_index_global":4,"time_elapsed":937561,"internal_chunk_id":"0-0.2-0"},{"nsides":6,"feedback":"Correct! 3 <img src=\"./images/hexagon_symbol.png\" style=\"width:14px;height:14px\"> 2 = 5 because 2 steps clockwise on the hexagon from 3 brings us to 5","orientation_history":[0],"rt":1966,"trial_type":"polygon-arrow-feedback","trial_index":0,"trial_index_global":5,"time_elapsed":939529,"internal_chunk_id":"0-0.2-0"},{"nsides":6,"question":"What is 1 <img src=\"./images/hexagon_symbol.png\" style=\"width:14px;height:14px\"> 5? <br /><br /> (Remember, to perform <img src=\"./images/hexagon_symbol.png\" style=\"width:14px;height:14px\">,  you can use the interactive diagram on the right, or perform the operation in your mind. Point the arrow at the first number on the hexagon, then move the arrow the second number of points clockwise around the hexagon. The number the arrow arrives at is your result.)","response_type":"free","response_choices":[],"correct_response":"0","response":"0","orientation_history":[[0],[0,0,0,0,0,0,0.028249363753647172,0.13620721557967452,0.16407456397163345,0.43824201509129224,0.6158381823747803,0.6158381823747803,0.7044940642422177,0.8222266390463113,0.8222266390463113,0.8433790797624308,0.9392166767274148,1.0061131105084573,1.0061131105084573,1.0194879647030746,1.0607137196383678,1.1583380657637279,1.1778501060771327,1.1778501060771327,1.1778501060771327,1.1778501060771327,1.1778501060771327,1.1778501060771327,1.1778501060771327,1.1778501060771327,1.1778501060771327,1.1778501060771327,1.1778501060771327,1.1778501060771327,1.1778501060771327,1.1583380657637279,1.1437562640703054,1.0584915010741138,1.0584915010741138,0.9827937232473292,0.9241907589834883,0.9091358740719956,0.9091358740719956,0.9162255594715052,0.9162255594715052,0.9162255594715052,0.9162255594715052,0.9162255594715052,0.9162255594715052,0.9162255594715052,0.9162255594715052,0.9162255594715052,0.9162255594715052,0.9162255594715052,0.9162255594715052,0.9162255594715052,0.9162255594715052,0.9299524305252778,0.9365979023173734,0.9365979023173734,0.9365979023173734,0.9365979023173734,0.9365979023173734,0.9365979023173734,0.9365979023173734,0.9365979023173734,0.9365979023173734,0.9365979023173734,0.9365979023173734,0.9365979023173734,0.9365979023173734,0.9365979023173734,0.9365979023173734,0.9365979023173734,0.9365979023173734,0.9431033867504186,0.9431033867504186,0.9875898495417132,1.015195344559491,1.015195344559491,1.015195344559491,1.015195344559491,1.0374173380775993,1.0374173380775993,1.0487127472246853,1.0716678980604368,1.0716678980604368,1.0716678980604368,1.0716678980604368,1.0716678980604368,1.0716678980604368,1.0716678980604368,1.0716678980604368,1.0716678980604368,1.0833254010451245,1.2189453773012455,1.3792350064657704,1.5730334595281072,1.7608390779780865,1.8727909446856095,1.9535398366404721,2.0484915429832284,2.058416775370706,2.068217713920083,2.068217713920083,2.068217713920083,2.068217713920083,2.068217713920083,2.068217713920083,2.068217713920083,2.068217713920083,2.068217713920083,2.068217713920083,2.068217713920083,2.068217713920083,2.068217713920083,2.068217713920083,2.068217713920083,2.068217713920083,2.1101417136224874,2.257748330979712,2.461777292704331,2.6475597221561613,2.7739431503026215,2.803980224001177,2.803980224001177,2.8275087537877464,2.8538146054548195,2.8818954996316415,2.893586754503457,2.893586754503457,2.893586754503457,2.897448271649725,2.897448271649725,2.897448271649725,2.897448271649725,2.897448271649725,2.897448271649725,2.897448271649725,2.897448271649725,2.897448271649725,2.897448271649725,2.897448271649725,2.897448271649725,2.897448271649725,2.897448271649725,2.897448271649725,2.897448271649725,2.897448271649725,2.897448271649725,2.897448271649725,2.9220488173004044,2.9813102398749893,3.180984031362517,3.4194592247051347,3.4554796741343243,3.4643224797478283,3.4643224797478283,3.4643224797478283,3.4643224797478283,3.4643224797478283,3.4643224797478283,3.4643224797478283,3.4643224797478283,3.4643224797478283,3.4643224797478283,3.4643224797478283,3.4643224797478283,3.4643224797478283,3.4643224797478283,3.4643224797478283,3.4643224797478283,3.5030627774113077,3.5415758346298984,3.5810438579345565,3.6598638774208694,3.7385890438063565,3.861010982822096,3.8836630071747344,3.907547673714777,3.9228586091017887,3.9298596615757773,3.9298596615757773,3.9298596615757773,3.9298596615757773,3.9298596615757773,3.9298596615757773,3.9298596615757773,3.9298596615757773,3.9298596615757773,3.9298596615757773,3.9298596615757773,3.9298596615757773,3.9298596615757773,3.9618459355528217,3.987983772436175,4.135062127824577,4.360538030891039,4.6029212233907,4.8693208086869095,5.003883327906214,5.0307056508047125,5.0307056508047125,5.0307056508047125,5.0307056508047125,5.0307056508047125,5.0307056508047125,5.0307056508047125,5.0307056508047125,5.0307056508047125,5.0307056508047125,5.0307056508047125,5.0307056508047125,5.0307056508047125,5.0307056508047125,5.075904091130559,5.075904091130559,5.368377432386524,5.657417292572813,5.939286476343437,6.096791899499266,6.133424718723312,6.133424718723312,6.133424718723312,6.133424718723312,6.133424718723312,6.133424718723312,6.133424718723312,6.133424718723312,6.133424718723312,6.133424718723312,6.133424718723312,6.133424718723312,6.133424718723312,6.133424718723312,6.133424718723312,6.133424718723312,6.133424718723312,6.133424718723312,6.133424718723312,6.133424718723312,6.133424718723312,6.133424718723312,6.133424718723312,6.133424718723312,6.133424718723312,6.133424718723312,6.133424718723312,6.133424718723312,6.133424718723312,6.133424718723312,6.133424718723312,6.133424718723312,6.133424718723312,6.133424718723312,6.133424718723312,6.133424718723312,6.133424718723312,6.133424718723312,6.133424718723312,6.133424718723312,6.133424718723312,6.133424718723312,6.191292639341622,-0.05963071313116952,-0.05963071313116952,-0.05963071313116952,-0.05963071313116952,-0.05963071313116952,-0.05963071313116952,-0.05963071313116952,-0.05963071313116952,-0.05963071313116952,-0.05963071313116952,-0.05963071313116952,-0.05963071313116952,-0.05963071313116952,-0.05963071313116952,-0.05963071313116952,-0.05963071313116952,-0.05963071313116952,0]],"response_history":["0"],"rt":11447,"trial_type":"polygon-arrow-question","trial_index":0,"trial_index_global":6,"time_elapsed":950977,"internal_chunk_id":"0-0.2-0"},{"nsides":6,"feedback":"Correct! 1 <img src=\"./images/hexagon_symbol.png\" style=\"width:14px;height:14px\"> 5 = 0 because 5 steps clockwise on the hexagon from 1 brings us to 0","orientation_history":[0],"rt":1049,"trial_type":"polygon-arrow-feedback","trial_index":0,"trial_index_global":7,"time_elapsed":952027,"internal_chunk_id":"0-0.2-0"},{"nsides":6,"question":"What is 1 <img src=\"./images/hexagon_symbol.png\" style=\"width:14px;height:14px\"> 1? <br /><br /> (Remember, to perform <img src=\"./images/hexagon_symbol.png\" style=\"width:14px;height:14px\">, you can use the interactive diagram on the right, or perform the operation in your mind. Point the arrow at the first number on the hexagon, then move the arrow the second number of points clockwise around the hexagon. The number the arrow arrives at is your result.)","response_type":"free","response_choices":[],"correct_response":"2","response":"2","orientation_history":[[0],[0,0.4314007265655524,0.4314007265655524,0.4698433165867404,0.4698433165867404,0.49947718482355175,0.5840500549608174,0.5840500549608174,0.6112542263580306,0.6244547796841804,0.6624913937614494,0.7304279201205535,0.7419157987042317,0.7758746418038356,0.821227739220194,0.821227739220194,0.821227739220194,0.821227739220194,0.821227739220194,0.821227739220194,0.821227739220194,0.821227739220194,0.821227739220194,0.841807162829632,0.8734467578901486,0.8734467578901486,0.8857028132588686,0.9165174290704704,0.9165174290704704,0.9253420954851335,0.937835661048649,0.967211964526016,0.9878738934473916,1.008333671583013,1.0212620640320216,1.0212620640320216,1.0212620640320216,1.0212620640320216,1.0212620640320216,1.0212620640320216,1.0212620640320216,1.0212620640320216,1.0212620640320216,1.0212620640320216,1.0212620640320216,1.0212620640320216,1.0212620640320216,1.0212620640320216,1.0212620640320216,1.0212620640320216,1.0212620640320216,1.0212620640320216,1.0212620640320216,1.0212620640320216,1.0212620640320216,1.1019222845461014,1.2356645759846714,1.355989591228736,1.6328633956868233,1.7711063861645517,1.7711063861645517,1.9190558214720077,1.971749612791278,2.0317451012623424,2.060383724174053,2.0825921171816875,2.0915808885102836,2.0915808885102836,2.1092627045490024,2.120902390503626,2.120902390503626,2.132092157430985,2.132092157430985,2.132092157430985,2.132092157430985,2.1403252815878107,2.1403252815878107,2.1403252815878107,2.1403252815878107,2.1403252815878107,2.1403252815878107,2.1403252815878107,2.1403252815878107,2.1403252815878107,2.145994042347291,2.0943951023931953]],"response_history":["2"],"rt":5894,"trial_type":"polygon-arrow-question","trial_index":0,"trial_index_global":8,"time_elapsed":957922,"internal_chunk_id":"0-0.2-0"},{"nsides":6,"feedback":"Correct! 1 <img src=\"./images/hexagon_symbol.png\" style=\"width:14px;height:14px\"> 1 = 2 because 1 steps clockwise on the hexagon from 1 brings us to 2","orientation_history":[0],"rt":1024,"trial_type":"polygon-arrow-feedback","trial_index":0,"trial_index_global":9,"time_elapsed":958947,"internal_chunk_id":"0-0.2-0"},{"nsides":6,"question":"What is 3 <img src=\"./images/hexagon_symbol.png\" style=\"width:14px;height:14px\"> 0? <br /><br /> (Remember, to perform <img src=\"./images/hexagon_symbol.png\"  style=\"width:14px;height:14px\">, you can use the interactive diagram on the right, or perform the operation in your mind. Point the arrow at the first number on the hexagon, then move the arrow the second number of points clockwise around the hexagon. The number the arrow arrives at is your result.)","response_type":"free","response_choices":[],"correct_response":"3","response":"3","orientation_history":[[0]],"response_history":["3"],"rt":3622,"trial_type":"polygon-arrow-question","trial_index":0,"trial_index_global":10,"time_elapsed":962570,"internal_chunk_id":"0-0.2-0"},{"nsides":6,"feedback":"Correct! 3 <img src=\"./images/hexagon_symbol.png\" style=\"width:14px;height:14px\"> 0 = 3 because 0 steps clockwise on the hexagon from 3 brings us to 3","orientation_history":[0],"rt":1199,"trial_type":"polygon-arrow-feedback","trial_index":0,"trial_index_global":11,"time_elapsed":963770,"internal_chunk_id":"0-0.2-0"},{"nsides":6,"question":"What is 4 <img src=\"./images/hexagon_symbol.png\" st yle=\"width:14px;height:14px\"> 4? <br /><br /> (Remember, to perform <img src=\"./images/hexagon_symbol.png\" style=\"width:14px;height:14px\">, you can use the interactive diagram on the right, or perform the operation in your mind. Point the arrow at the first number on the hexagon, then move the arrow the second number of points clockwise around the hexagon. The number the arrow arrives at is your result.)","response_type":"free","response_choices":[],"correct_response":"2","response":"2","orientation_history":[[0],[0,0,0,0,0,0,0,-6.233990894937927,-5.983028002320992,-5.787290815743526,-5.236741415959658,-5.013386399061108,-4.58948221074869,-4.409195247611015,-4.275250311664352,-4.196192710089411,-4.083316193963734,-3.9854038217527323,-3.8751386036947824,-3.813164388015518,-3.74585398694249,-3.2744944485691656,-3.2744944485691656,-2.944197093739912,-2.740276803787066,-2.577621703895733,-2.4890962851717173,-2.405163914207828,-2.3239476077570904,-2.236452266954699,-2.0439977852333,-2.0439977852333,-1.9751766041731837,-1.9286863423467882,-1.9206661260382543,-1.9206661260382543,-1.9206661260382543,-1.9206661260382543,-1.9206661260382543,-1.9206661260382543,-1.9206661260382543,-1.9206661260382543,-1.9206661260382543,-1.9206661260382543,-1.9206661260382543,-1.9206661260382543,-1.9206661260382543,-1.9206661260382543,-1.9206661260382543,-1.9108187754786883,-1.891989674711315,-1.7958731593307302,-1.6660590025748805,-1.5231660425790476,-1.3198804984857002,-1.2627435457711194,-1.2453625478017596,-1.2453625478017596,-1.2453625478017596,-1.216798889963,-1.2108109375790868,-1.2108109375790868,-1.2108109375790868,-1.2108109375790868,-1.2108109375790868,-1.1183527307503667,-1.1183527307503667,-0.9451992982029243,-0.7261308317749293,-0.6454614101293732,-0.4555895562243881,-0.3914220394422614,-0.38419173475633706,-0.38419173475633706,-0.38419173475633706,-0.38419173475633706,-0.38419173475633706,-0.3180673298001473,-0.22142721370338858,-6.200980029022389,-5.9648869830270135,-5.882807653419168,-5.851157326501535,-5.84437159814979,-5.84437159814979,-5.84437159814979,-5.84437159814979,-5.84437159814979,-5.84437159814979,-5.84437159814979,-5.84437159814979,-5.84437159814979,-5.832714095165103,-5.832714095165103,-5.821176145647644,-5.792940473147111,-5.775927668479235,-5.680355661748543,-5.638118222579091,-5.381625634407692,-5.161539322006739,-4.9814873216595394,-4.809289388077455,-4.717162213823365,-4.656050374524514,-4.656050374524514,-4.656050374524514,-4.656050374524514,-4.656050374524514,-4.656050374524514,-4.656050374524514,-4.656050374524514,-4.656050374524514,-4.656050374524514,-4.656050374524514,-4.656050374524514,-4.64401324743666,-4.607978468989778,-4.524777844097902,-4.524777844097902,-4.432330581210733,-4.376571358625771,-4.36563779353269,-4.36563779353269,-4.36563779353269,-4.372574989544102,-4.372574989544102,-4.372574989544102,-4.372574989544102,-4.372574989544102,2.0943951023931953]],"response_history":["2"],"rt":7714,"trial_type":"polygon -arrow-question","trial_index":0,"trial_index_global":12,"time_elapsed":971485,"internal_chunk_id":"0-0.2-0"},{"nsides":6,"feedback":"Correct! 4 <img src=\"./images/hexagon_symbol.png\" style=\"width:14px;height:14px\"> 4 = 2 because 4 steps clockwise on the hexagon from 4 brings us to 2","orientation_history":[0],"rt":1180,"trial_type":"polygon-arrow-feedback","trial_index":0,"trial_index_global":13,"time_elapsed":972666,"internal_chunk_id":"0-0.2-0"},{"nsides":6,"question":"What is 1 <img src=\"./images/hexagon_symbol.png\" style=\"width:14px;height:14px\"> 3? <br /><br /> (Remember, to perform <img src=\"./images/hexagon_symbol.png\" style=\"width:14px;height:14px\">, you can use the interactive diagram on the right, or perform the operation in your mind. Point the arrow at the first number on the hexagon, then move the arrow the second number of points clockwise around the hexagon. The number the arrow arrives at is your result.)","response_type":"free","response_choices":[],"correct_response":"4","response":"4","orientation_history":[[0],[0,0.016365590011944597,0.03274876010801453,-6.217652598455561,-6.184086177041624,-6.130962964240866,-6.113935837196653,-6.0573357166935295,-6.019229172361908,-5.923657165631215,-5.883730360528164,-5.829152786478483,-5.724973684341183,-5.690212116461444,-5.525418300635896,-5.464518092357908,-5.355169628207529,-5.337989188192222,-5.311059672895768,-5.311059672895768,-5.311059672895768,-5.311059672895768,-5.311059672895768,-5.311059672895768,-5.311059672895768,-5.311059672895768,-5.311059672895768,-5.311059672895768,-5.311059672895768,-5.311059672895768,-5.311059672895768,-5.311059672895768,-5.311059672895768,-5.311059672895768,-5.311059672895768,-5.311059672895768,-5.079312751692493,-4.831845185578099,-4.704041928836535,-4.352249965363129,-4.248173512273996,-4.199600636967864,-4.1351737975423095,-4.086873025377486,-4.090282103079963,-4.082491892400999,-4.0716485356335586,-4.0716485356335586,-4.0716485356335586,-4.022139477108964,-4.022139477108964,-4.022139477108964,-4.022139477108964,-4.022139477108964,-4.022139477108964,-4.022139477108964,-4.022139477108964,-4.022139477108964,-4.022139477108964,-4.022139477108964,-4.022139477108964,-3.9959421109903155,-3.9106252269752972,-3.853464673398503,-3.853464673398503,-3.585647576076473,-3.5415374507818407,-3.5415374507818407,-3.5415374507818407,-3.536871129074872,-3.5085164248975955,-3.5085164248975955,-3.490466234802625,-3.450017770750204,-3.450017770750204,-3.450017770750204,-3.450017770750204,-3.450017770750204,-3.450017770750204,-3.4205718141890786,-3.4078734441542133,-3.3983307905786253,-3.3887302770596928,-3.3887302770596928,-3.3887302770596928,-3.3693607584915313,-3.3132806889031214,-3.3132806889031214,-3.3132806889031214,-3.3132806889031214,-3.293769027548414,-3.293769027548414,-3.249562184520734,-3.249562184520734,-3.2204609778469697,-3.2204609778469697,-3.2107094283128523,-3.1616481977923554,-3.1419164877753643,-3.092451919173773,-3.092451919173773,-3.0726525266073805,-3.0627576795668636,-3.0627576795668636,-3.0627576795668636,-3.042987350572182,-3.0134090249951804,-2.9937636585253666,-2.9730229931554346,-2.93061448793535,-2.8524857453951267,-2.691827532304451,-2.5105468010338874,-2.352477035197902,-2.2190463822485844,-2.1291001903665245,-2.0603830468869218,-1.989504857326554,-1.9436606222810946,-1.9436606222810946,-1.9436606222810946,-1.9436606222810946,-1.9436606222810946,-1.9436606222810946,-1.9436606222810946,-1.9436606222810946,-1.9436606222810946,-1.9436606222810946,-1.9436606222810946,-1.9436606222810946,-1.9436606222810946,-1.9436606222810946,-1.9436606222810946,4.1887902047863905]],"response_history":["4"],"rt":6543,"trial_type":"polygon-arrow-question","trial_index":0,"trial_index_global":14,"time_elapsed":979210,"internal_chunk_id":"0-0.2-0"},{"nsides":6,"feedback":"Correct! 1 <img src=\"./images/hexagon_symbol.png\" style=\"width:14px;height:14px\"> 3 = 4 because 3 steps clockwise on the hexagon from 1 br ings us  to 4","orientation_history":[0],"rt":1184,"trial_type":"polygon-arrow-feedback","trial_index":0,"trial_index_global":15,"time_elapsed":980395,"internal_chunk_id":"0-0.2-0"},{"nsides":6,"question":"What is 4 <img src=\"./images/hexagon_symbol.png\" style=\"width:14px;height:14px\"> 3? <br /><br /> (Remember, to perform <img src=\"./images/hexagon_symbol.png\" style=\"width:14px;height:14px\">, you can use the interactive diagram on the right, or perform the operation in your mind. Point the arrow at the first number on the hexagon, then move the arrow the second number of points clockwise around the hexagon. The number the arrow arrives at is your result.)","response_type":"free","response_choices":[],"correct_response":"1","response":"1","orientation_history":[[0],[0,0,0,0,0,0,-6.14432501277429,-5.9056834004325545,-5.538530134704996,-5.233945558282227,-5.112773098659234,-5.094784805246882,-5.048181479497453,-4.979949372237128,-4.90978454023457,-4.808643517423351,-4.747224667621974,-4.602247075512159,-4.52886869627096,-4.430391770461764,-4.370606311630599,-4.285166408628898,-4.201782487751167,-3.980386275911756,-3.721126671173332,-3.4466780842724942,-3.2067119104938477,-3.2067119104938477,-3.0572345071818834,-3.006835501456758,-2.747678470233493,-2.6078955773843107,-2.494893620329937,-2.410836831263694,-2.387112469755387,-2.387112469755387,-2.3627809892888667,-2.3627809892888667,-2.327765203328645,-2.315724340293334,-2.280773543762681,-2.280773543762681,-2.280773543762681,-2.280773543762681,-2.280773543762681,-2.280773543762681,-2.280773543762681,-2.280773543762681,-2.2364477579557036,-2.2008896293442453,-2.2008896293442453,-2.174380689063777,-2.174380689063777,-2.174380689063777,-2.174380689063777,-2.174380689063777,-2.174380689063777,-2.174380689063777,-2.174380689063777,-2.174380689063777,-2.174380689063777,-2.174380689063777,-2.174380689063777,-2.174380689063777,-2.174380689063777,-2.174380689063777,-2.174380689063777,-2.174380689063777,-2.174380689063777,-2.174380689063777,-2.174380689063777,-2.174380689063777,-2.1607363116754827,-2.118214924130613,-1.8815314148811817,-1.3698067941812573,-1.3698067941812573,-1.1512196122274405,-1.1034698770003226,-1.034985088834433,-1.023101098236773,-0.9884297344247779,-0.9771982580634946,-0.9771982580634946,-0.9771982580634946,-0.9771982580634946,-0.9771982580634946,-0.9771982580634946,-0.9771982580634946,-0.9771982580634946,-0.9771982580634946,-0.9771982580634946,-0.9771982580634946,-0.9771982580634946,-0.9771982580634946,-0.9771982580634946,-0.9213823680787732,-0.5584071660184495,-0.09061373193446176,-6.059023957030442,-5.937194016417807,-5.925903943047333,-5.925903943047333,-5.925903943047333,-5.925903943047333,-5.925903943047333,-5.925903943047333,-5.925903943047333,-5.925903943047333,-5.925903943047333,-5.925903943047333,-5.925903943047333,-5.925903943047333,-5.925903943047333,-5.925903943047333,-5.925903943047333,-5.925903943047333,-5.925903943047333,-5.855455636075781,-5.652964037953729,-5.464994386224561,-5.39472347070975,-5.370464798894301,-5.361693094049858,-5.234231313382322,-5.234231313382322,1.0471975511965976]],"response_history":["1"],"rt":7607,"trial_type":"polygon-arrow-question","trial_index":0,"trial_index_global":16,"time_elapsed":988003,"internal_chunk_id":"0-0.2-0"},{"nsides":6,"feedback":"Correct! 4 <img src=\"./images/hexagon_symbol.png\" style=\"width:14px;height:14px\"> 3 = 1 because 3 steps clockwise on the hexagon from 4 brings us to 1","orientation_history":[0],"rt":1253,"trial_type":"polygon-arrow-feedback","trial_index":0,"trial_index_global":17,"time_elapsed":989258,"internal_chunk_id":"0-0.2-0"},{"nsides":6,"question":"What is 0 <img src=\"./images/hexagon_symbol.png\" style=\"width:14px;height:14px\"> 5? <br /><br /> (Remember, to perform <img src=\"./images/hexagon_symbol.png\" style=\"width:14px;height:14px\">, you can use the interactive diagram on the right, or perform the operation in your mind. Point the arrow at the first numbe r on the  hexagon, then move the arrow the second number of points clockwise around the hexagon. The number the arrow arrives at is your result.)","response_type":"free","response_choices":[],"correct_response":"5","response":"5","orientation_history":[[0],[0,0,-6.2528845954300465,-6.2075029315227095,-6.2075029315227095,-6.073554835089711,-5.870955506079834,-5.797851487658079,-5.630073952035306,-5.550493610763672,-5.418504672905937,-5.366050782446052,-5.350664965690681,-5.343196730816031,-5.275140561472165,-5.210296533918958,-5.144313165398108,-5.144313165398108,-5.144313165398108,-5.144313165398108,-5.144313165398108,-5.144313165398108,-5.144313165398108,-5.144313165398108,-5.144313165398108,-5.144313165398108,-5.144313165398108,-5.144313165398108,-5.144313165398108,-5.144313165398108,-5.144313165398108,-5.133115596917305,-5.026863031930663,-4.975538283515031,-4.72223341812884,-4.611033050834141,-4.335797733616367,-4.223882582675005,-4.18600791223213,-4.167649025727844,-4.167649025727844,-4.167649025727844,-4.167649025727844,-4.167649025727844,-4.167649025727844,-4.167649025727844,-4.167649025727844,-4.167649025727844,-4.167649025727844,-4.167649025727844,-4.167649025727844,-4.167649025727844,-4.1408346953209705,-4.097188411108166,-3.868389565720941,-3.1680848768136114,-2.9718417522838223,-2.7363942254515736,-2.72155051142994,-2.7241211998545825,-2.7241211998545825,-2.7241211998545825,-2.7241211998545825,-2.7241211998545825,-2.7241211998545825,-2.7241211998545825,-2.7241211998545825,-2.715148550237492,-2.667199946561028,-2.667199946561028,-2.6447786201601615,-2.6447786201601615,-2.332914232137631,-2.18778393244912,-2.088489858539516,-2.0532610925993557,-2.019293579920933,-1.9770651778079307,-1.9228198047383458,-1.8932682083085588,-1.822788491785822,-1.7327191256990018,-1.4850563811012538,-1.4165500294380555,-1.3295775829262428,-1.320100990199263,-1.320100990199263,-1.320100990199263,-1.320100990199263,-1.320100990199263,-1.320100990199263,-1.320100990199263,-1.320100990199263,-1.320100990199263,-1.320100990199263,-1.320100990199263,-1.320100990199263,-1.320100990199263,5.235987755982988]],"response_history":["5"],"rt":6207,"trial_type":"polygon-arrow-question","trial_index":0,"trial_index_global":18,"time_elapsed":995466,"internal_chunk_id":"0-0.2-0"},{"nsides":6,"feedback":"Correct! 0 <img src=\"./images/hexagon_symbol.png\" style=\"width:14px;height:14px\"> 5 = 5 because 5 steps clockwise on the hexagon from 0 brings us to 5","orientation_history":[0],"rt":911,"trial_type":"polygon-arrow-feedback","trial_index":0,"trial_index_global":19,"time_elapsed":996378,"internal_chunk_id":"0-0.2-0"},{"nsides":6,"question":"What is 2 <img src=\"./images/hexagon_symbol.png\" style=\"width:14px;height:14px\"> 5? <br /><br /> (Remember, to perform <img src=\"./images/hexagon_symbol.png\" style=\"width:14px;height:14px\">, you can use the interactive diagram on the right, or perform the operation in your mind. Point the arrow at the first number on th e hexago n, then move the arrow the second number of points clockwise around the hexagon. The number the arrow arrives at is your result.)","response_type":"free","response_choices":[],"correct_response":"1","response":"1","orientation_history":[[0],[0,0,0,0,0,0,0.06892418035895242,0.06892418035895242,0.7291933555561475,1.146739522092663,1.146739522092663,1.534136354963019,1.534136354963019,1.7252953176897796,1.9187449087484052,1.956928587927014,2.0077577743450665,2.0931032927751483,2.1370632235006712,2.162267968827613,2.1763688122288665,2.1763688122288665,2.1763688122288665,2.190533333962336,2.20475624619464,2.219032122983627,2.219032122983627,2.217350038783688,2.2303588452409526,2.2204514909572097,2.2119977259332106,2.2119977259332106,2.2119977259332106,2.2034308659236586,2.185953895406275,2.185953895406275,2.185953895406275,2.185953895406275,2.185953895406275,2.185953895406275,2.185953895406275,2.185953895406275,2.185953895406275,2.185953895406275,2.185953895406275,2.190304396237398,2.2766719525796146,2.520945685017769,2.8360628375396724,3.0201882942568385,3.178612769463723,3.2428288163122976,3.300656520051972,3.3673108523444784,3.4103676677143744,3.4565317661347277,3.4622535346788608,3.4622535346788608,3.4622535346788608,3.4622535346788608,3.4622535346788608,3.4622535346788608,3.4622535346788608,3.4622535346788608,3.4622535346788608,3.4622535346788608,3.4622535346788608,3.4622535346788608,3.4654125273297125,3.4596778231708667,3.4686279503319075,3.4686279503319075,3.509404668808033,3.63108765902579,3.808781334962862,3.9782956754485683,4.010555239709497,4.0585153120139035,4.093096820557732,4.108999791029306,4.115228623007613,4.115228623007613,4.115228623007613,4.115228623007613,4.115228623007613,4.115228623007613,4.115228623007613,4.115228623007613,4.115228623007613,4.115228623007613,4.115228623007613,4.115228623007613,4.115228623007613,4.115228623007613,4.140487493189717,4.247728086434575,4.430838903697059,4.714744996967818,4.9908244443730085,5.197751777935234,5.278655877090464,5.303860622417406,5.303860622417406,5.303860622417406,5.303860622417406,5.303860622417406,5.303860622417406,5.303860622417406,5.303860622417406,5.303860622417406,5.303860622417406,5.303860622417406,5.303860622417406,5.303860622417406,5.303860622417406,5.31796146581866,5.673446996790227,6.032650754950568,0.5063387415845668,0.5730235506415601,0.5817867148282015,0.5817867148282015,0.5817867148282015,0.5817867148282015,0.5817867148282015,0.5817867148282015,0.5817867148282015,0.5817867148282015,0.5817867148282015,0.5817867148282015,0.5817867148282015,0.5817867148282015,0.5817867148282015,0.5817867148282015,0.5817867148282015,0.5948305545445348,0.6058937189597016,0.6814949341939556,0.7155069434957401,0.7270934006421141,0.7270934006421141,0.77600750839988,0.7886572501745757,0.8787972597463161,0.964061010381534,1.0854130109522977,1.1176598933875517,1.0471975511965976]],"response_history":["1"],"rt":6670,"trial_type":"polygon-arrow-question","trial_index":0,"trial_index_global":20,"time_elapsed":1003049,"internal_chunk_id":"0-0.2-0"},{"nsides":6,"feedback":"Correct! 2 <img src=\"./images/hexagon_symbol.png\" style=\"width:14px;height:14px\"> 5 = 1 because 5 steps clockwise on the hexagon from 2 brings us to 1","orientation_history":[0],"rt":919,"trial_type":"polygon-arrow-feedback","trial_index":0,"trial_index_global":21,"time_elapsed":1003969,"internal_chunk_id":"0-0.2-0"},{"nsides":6,"instructions":"Now we're going to discuss a couple special properties of this new operation, <img src=\"./images/hexagon_symbol.png\" style=\"width:14px;height:14px\"> that we've learned. First, notice that the number 0 behaves in a special way under <img src=\"./images/hexagon_symbol.png\" style=\"width:14px;height:14px\">. Whenever we combine 0 with anything else, we get that same thing back. We'll say that 0 is the <i>identity</i> under <img src=\"./images/hexagon_symbol.png\" style=\"width:14px;height:14px\">, because when you combine it with something it gives  you that  identical thing back.","orientation_history":[0],"rt":72908,"trial_type":"polygon-arrow-instructions","trial_index":0,"trial_index_global":22,"time_elapsed":1076883,"internal_chunk_id":"0-0"},{"nsides":6,"instructions":"Now that we know 0 is the identity under <img src=\"./images/hexagon_symbol.png\" style=\"width:14px;height:14px\">, we're going to make a new definition. We'll say that the <i>inverse</i> of a number is the thing that you combine with it to produce the identity under our operation. For example, 5 <img src=\"./images/hexagon_symbol.png\" style=\"width:14px;height:14px\"> 1 = 0, so we say 1 is the inverse of 5 under <img src=\"./images/hexagon_symbol.png\" style=\"width:14px;height:14px\">, (remember 0 is the identity under <img src=\"./images/hexagon_symbol.png\" style=\"width:14px;height:14px\">). Similarly, 3 is its own inverse under <img src=\"./images/hexagon_symbol.png\" style=\"width:14px;height:14px\">, because 3 <img src=\"./images/hexagon_symbol.png\" style =\"width:14px;height:14px\"> 3 = 0.","orientation_history":[0],"rt":113771,"trial_type":"polygon-arrow-instructions","trial_index":0,"trial_index_global":23,"time_elapsed":1190657,"internal_chunk_id":"0-0"},{"nsides":6,"question":"Now you try! What is the inverse of 4 under <img src=\"./images/hexagon_symbol.png\" style=\"width:14px;height:14px\">? <br /><br /> (Remember, the inverse of an element is the thing which you combine with it to produce the identity.)","response_type":"free","response_choices":[],"correct_response":"2","response":"2","orientation_history":[[0]],"response_history":["2"],"rt":36190,"trial_type":"polygon-arrow-question","trial_index":0,"trial_index_global":24,"time_elapsed":1226849,"internal_chunk_id":"0-0.6-0"},{"nsides":6,"feedback":"Correct! The inverse of 4 under <img src=\"./images/hexagon_symbol.png\" style=\"width:14px;height:14px\"> is 2 because 2 steps clockwise on the hexagon from 4 brings us to 0, and 0 is the identity under <img src=\"./images/hexagon_symbol.png\" style=\"width:14px;height:14px\">.","orientation_history":[0],"rt":1566,"trial_type":"polygon-arrow-feedback","trial_index":0,"trial_index_global":25,"time_elapsed":1228417,"internal_chunk_id":"0-0.6-0"},{"nsides":6,"question":"What is the inverse of 1 under <img src=\"./images/hexagon_symbol.png\" style=\"width:14px;height:14px\">? <br /><br /> (Remember, the inverse of an element is the thing which you combine with it to produce the identity.)","response_type":"free","response_choices":[],"correct_response":"5","response":"5","orientation_history":[[0]],"response_history":["5"],"rt":5760,"trial_type":"polygon-arrow-question","trial_index":0,"trial_index_global":26,"time_elapsed":1234178,"internal_chunk_id":"0-0.6-0"},{"nsides":6,"feedback":"Correct! The inverse of 1 under <img src=\"./images/hexagon_symbol.png\" style=\"width:14px;height:14px\"> is 5 because 5 steps clockwise on the hexagon from 1 brings us to 0, and 0 is the identity under <img src=\"./images/hexagon_symbol.png\" style=\"width:14px;height:14px\">.","orientation_history":[0],"rt":959,"trial_type":"polygon-arrow-feedback","trial_index":0,"trial_index_global":27,"time_elapsed":1235138,"internal_chunk_id":"0-0.6-0"},{"nsides":6,"question":"What is the inverse of 3 under <img src=\"./images/hexagon_symbol.png\" style=\"width:14px;height:14px\">? <br /><br /> (Remember, the inverse of an element is the thing which you combine with it to produce the identity.)","response_type":"free","response_choices":[],"correct_response":"3","response":"3","orientation_history":[[0]],"response_history":["3"],"rt":2767,"trial_type":"polygon-arrow-question","trial_index":0,"trial_index_global":28,"time_elapsed":1237905,"internal_chunk_id":"0-0.6-0"},{"nsides":6,"feedback":"Correct! The inverse of 3 under <img src=\"./images/hexagon_symbol.png\" style=\"width:14px;height:14px\"> is 3 because 3 steps clockwise on the hexagon from 3 brings us to 0, and 0 is the identity under <img src=\"./images/hexagon_symbol.png\" style=\"width:14px;height:14px\">.","orientation_history":[0],"rt":679,"trial_type":"polygon-arrow-feedback","trial_index":0,"trial_index_global":29,"time_elapsed":1238585,"internal_chunk_id":"0-0.6-0"},{"nsides":6,"question":"What is the inverse of 2 under <img src=\"./images/hexagon_symbol.png\" style=\"width:14px;height:14px\">? <br /><br /> (Remember, the inverse of an element is the thing which you combine with it to produce the identity.)","response_type":"free","response_choices":[],"correct_response":"4","response":"4","orientation_history":[[0]],"response_history":["4"],"rt":4863,"trial_type":"polygon-arrow-question","trial_index":0,"trial_index_global":30,"time_elapsed":1243449,"internal_chunk_id":"0-0.6-0"},{"nsides":6,"feedback":"Correct! The inverse of 2 under <img src=\"./images/hexagon_symbol.png\" style=\"width:14px;height:14px\"> is 4 because 4 steps clockwise on the hexagon from 2 brings us to 0, and 0 is the identity under <img src=\"./images/hexagon_symbol.png\" style=\"width:14px;height:14px\">.","orientation_history":[0],"rt":983,"trial_type":"polygon-arrow-feedback","trial_index":0,"trial_index_global":31,"time_elapsed":1244433,"internal_chunk_id":"0-0.6-0"},{"nsides":6,"question":"What is the inverse of 0 under <img src=\"./images/hexagon_symbol.png\" style=\"width:14px;height:14px\">? <br /><br /> (Remember, the inverse of an element is the thing which you combine with it to produce the identity.)","response_type":"free","response_choices":[],"correct_response":"0","response":"0","orientation_history":[[0]],"response_history":["0"],"rt":21304,"trial_type":"polygon-arrow-question","trial_index":0,"trial_index_global":32,"time_elapsed":1265738,"internal_chunk_id":"0-0.6-0"},{"nsides":6,"feedback":"Correct! The inverse of 0 under <img src=\"./images/hexagon_symbol.png\" style=\"width:14px;height:14px\"> is 0 because 0 steps clockwise on the hexagon from 0 brings us to 0, and 0 is the identity under <img src=\"./images/hexagon_symbol.png\" style=\"width:14px;height:14px\">.","orientation_history":[0],"rt":1423,"trial_type":"polygon-arrow-feedback","trial_index":0,"trial_index_global":33,"time_elapsed":1267162,"internal_chunk_id":"0-0.6-0"},{"nsides":6,"question":"Let's review: under <img src=\"./images/hexagon_symbol.png\" style=\"width:14px;height:14px\">, the inverse of 0 is 0, the inverse of 1 is 5 and the inverse of 5 is 1, the inverse of 2 is 4 and the inverse of 4 is 2, and finally the inverse of 3 is 3. Try playing with some of these pairs on the hexagon. Do you see a spatial relationship between an element and its inverse under <img src=\"./images/hexagon_symbol.png\" style=\"width:14px;height:14px\">?","response_type":"free","response_choices":[],"correct_response":"","response":"the arrow is pointing in the opposite direction","orientation_history":[[0],[0,0,0,0,0,0,0,0,0,0,0,0,0,0,0,0,5.932533472568896,5.758389535529479,5.612873678869512,5.461633774751757,5.412833954947766,5.390160849781834,5.3685625228748375,5.31366711156854,5.291597282806231,5.255839407828866,5.208365207894784,5.157032133329792,5.157032133329792,5.132638041792692,5.132638041792692,5.132638041792692,5.132638041792692,5.132638041792692,5.132638041792692,5.132638041792692,5.132638041792692,5.132638041792692,5.132638041792692,5.132638041792692,5.132638041792692,5.132638041792692,5.132638041792692,5.132638041792692,5.132638041792692,5.132638041792692,5.132638041792692,5.132638041792692,5.132638041792692,5.132638041792692,5.132638041792692,5.132638041792692,5.132638041792692,5.132638041792692,5.132638041792692,5.132638041792692,5.132638041792692,5.132638041792692,5.132638041792692,5.132638041792692,5.132638041792692,5.132638041792692,5.132638041792692,5.132638041792692,5.132638041792692,5.132638041792692,5.120668709179856,5.120668709179856,5.120668709179856,5.120668709179856,5.120668709179856,5.120668709179856,5.120668709179856,5.120668709179856,5.120668709179856,5.120668709179856,5.120668709179856,5.120668709179856,5.120668709179856,5.120668709179856,5.120668709179856,5.120668709179856,5.120668709179856,5.235987755982988],[5.235987755982988,5.235987755982988,5.235987755982988,5.235987755982988],[5.348230767137467,5.833221604318947,6.105646414574654,0.39678371756016584,0.4766498519882043,0.5799156112669102,0.5799156112669102,0.5898971309446582,0.5898971309446582,0.5898971309446582,0.5898971309446582,0.5898971309446582,0.6094328336164859,0.6189894497114353,0.6376868031094285,0.6647146273086776,0.6973582735106534,0.7301070336186682,0.7712873179639732,0.7973027119848952,0.843538393908673,0.9190769691588805,0.9190769691588805,0.9474532716147706,0.958230503155961,0.9827442686451111,0.9827442686451111,0.9827442686451111,0.9827442686451111,0.9827442686451111,0.9827442686451111,0.9827442686451111,0.9827442686451111,0.9827442686451111,0.9827442686451111,0.9957511493118871,1.0020481018680552,1.0020481018680552,1.0020481018680552,1.0020481018680552,1.0020481018680552,1.0020481018680552,1.0020481018680552,1.0020481018680552,1.0020481018680552,1.0020481018680552,1.0020481018680552,1.0020481018680552,1.0020481018680552,1.0020481018680552,1.0020481018680552,1.0020481018680552,0.9364872958453893,0.64429228981942,0.64429228981942,0.0997405816633834,5.753122553422551,5.520538158950622,5.288829366719307,5.288829366719307,5.165701091753482,5.0232051152804225,5.0232051152804225,5.0020429954653665,4.978292849504152,4.968036207913344,4.968036207913344,4.968036207913344,4.957715340480294,4.888504706661422,4.836730107698752,4.78022549756305,4.673489824913915,4.6484950312949955,4.58282993771317,4.568612886183681,4.555617721716699,4.542662428839858,4.460551475334518,4.418865158719374,4.418865158719374,4.382033030436048,4.368978941711802,4.356031089659284,4.356031089659284,4.3341972104598705,4.3341972104598705,4.3295207051905535,4.3295207051905535,4.3295207051905535,4.324718821330008,4.2876071555158415,4.2297071521642735,4.209842215913109,4.209842215913109,4.1835324986601865,4.1562024445862935,4.110173563421947,4.081303145364273,4.072776041602921,4.072776041602921,4.072776041602921,4.072776041602921,4.072776041602921,4.072776041602921,4.072776041602921,4.072776041602921,4.072776041602921,4.072776041602921,4.072776041602921,4.072776041602921,4.072776041602921,4.072776041602921,4.382033030436048,4.382033030436048,4.39225762299562,4.40952610128821,4.4594291413500935,4.606921661138092,5.078381611198998,5.458887988311363,5.600785042915527,0.42474845353003143,1.4181051641804139,1.4469953778743998,1.4630406820230772,1.4630406820230772,1.466417146400657,1.4674703318985682,1.46849021935729,1.470436215441356,1.48780811392605,1.488446275932591,1.4919184842008317,1.5318971713241218,1.568917287198052,1.568917287198052,1.718586502138371,1.7641861602951436,1.771863345102768,1.7918373115126498,1.8116013237877528,1.869519408712554,1.9560915792278886,1.9780027202675257,1.995544780324928,2.004202572654675,2.004202572654675,2.004202572654675,2.026508332507909,2.026508332507909,2.026508332507909,2.026508332507909,2.026508332507909,2.026508332507909,2.026508332507909,2.026508332507909,2.036063132803275,2.040968059746505,2.040968059746505,2.040968059746505,2.0347403822519827,2.006015601829625,1.9487952417340155,1.9124035484364867,1.9266882910238834,3.1026934981190184,4.345160418064257,4.1887902047863905]],"response_history":["yes","the arrow is pointing in the opposite direction"],"rt":57220,"trial_type":"polygon-arrow-question","trial_index":0,"trial_index_global":34,"time_elapsed":1324385,"internal_chunk_id":"0-0"},{"instructions":"It is also possible to successively apply <img src=\"./images/hexagon_symbol.png\" style=\"width:14px;height:14px\">, and the operation can simply be performed starting with the left-most pair. For example, 2 <img src=\"./images/hexagon_symbol.png\" style=\"width:14px;height:14px\"> 3 <img src=\"./images/hexagon_symbol.png\" style=\"width:14px;height:14px\"> 4 = 5 <img src=\"./images/hexagon_symbol.png\" style=\"width:14px;height:14px\"> 4 = 3.","rt":32448,"trial_type":"instructions","trial_index":0,"trial_index_global":35,"time_elapsed":1356834,"internal_chunk_id":"0-0"},{"nsides":6,"instructions":"We have one last definition to learn today. Let's start with an example. Under our operation <img src=\"./images/hexagon_symbol.png\" style=\"width:14px;height:14px\"> we can make every other number using just 1: 2 = 1 <img src=\"./images/hexagon_symbol.png\" style=\"width:14px;height:14px\"> 1, 3 = 1 <img src=\"./images/hexagon_symbol.png\" style=\"width:14px;height:14px\"> 1 <img src=\"./images/hexagon_symbol.png\" style=\"width:14px;height:14px\"> 1, 4 = 1 <img src=\"./images/hexagon_symbol.png\" style=\"width:14px;height:14px\"> 1 <img src=\"./images/hexagon_symbol.png\" style=\"width:14px;height:14px\"> 1 <img src=\"./images/hexagon_symbol.png\" style=\"width:14px;height:14px\"> 1, 5 = 1 <img src=\"./images/hexagon_symbol.png\" style=\"width:14px;height:14px\"> 1 <img src=\"./images/hexagon_symbol.png\" style= \"width:14px;height:14px\"> 1 <img src=\"./images/hexagon_symbol.png\" style=\"width:14px;height:14px\"> 1 <img src=\"./images/hexagon_symbol.png\" style=\"width:14px;height:14px\"> 1, and 0 = 1 <img src=\"./images/hexagon_symbol.png\" style=\"width:14px;height:14px\"> 1 <img src=\"./images/hexagon_symbol.png\" style=\"width:14px;height:14px\"> 1 <img src=\"./images/hexagon_symbol.png\" style=\"width:14px;height:14px\"> 1 <img src=\"./images/hexagon_symbol.png\" style=\"width:14px;height:14px\"> 1 <img src=\"./images/hexagon_symbol.png\" style=\"width:14px;height:14px\"> 1. Because 1 can make every other element under <img src=\"./images/hexagon_symbol.png\" style=\"width:14px;height:14px\">, we say that 1 is a <i>generator</i> under <img src=\"./images/hexagon_symbol.png\" style=\"width:14px;height:14px\">. <br /><br /> However, 2 is not a generator under <img src=\"./images/hexagon_symbol.png\" style=\"width:14px;height:14px\">, because 4 = 2 <img src=\"./images/hexagon_symbol.png\" style=\"width:14px;height:14px\"> 2, and 0 = 2 <img src=\"./images/hexagon_symbol.png\" style=\"width:14px;height:14px\"> 2 <img src=\"./images/hexagon_symbol.png\" style=\"width:14px;height:14px\"> 2, but there is no way to make 1, 3, or 5 using just 2.","orientation_history":[0],"rt":91238,"trial_type":"polygon-arrow-instructions","trial_index":0,"trial_index_global":36,"time_elapsed":1448074,"internal_chunk_id":"0-0"},{"nsides":6,"question":"Now you try! Is 3 a generator under <img src=\"./images/hexagon_symbol.png\" style=\"width:14px;height:14px\">? <br /><br /> (Remember, a generator is an element which can make every other element.)","response_type":"multi","response_choices":["Yes","No"],"correct_response":"No","response":"No","orientation_history":[[0]],"response_history":["No"],"rt":76934,"trial_type":"polygon-arrow-question","trial_index":0,"trial_index_global":37,"time_elapsed":1525010,"internal_chunk_id":"0-0.10-0"},{"nsides":6,"feedback":"Correct! 3 is not a  generat or under <img src=\"./images/hexagon_symbol.png\" style=\"width:14px;height:14px\">, because 3 = 3, 0 = 3 <img src=\"./images/hexagon_symbol.png\" style=\"width:14px;height:14px\"> 3, but there is no way to make 1, 2, 4, or 5 using just 3.","orientation_history":[0],"rt":2114,"trial_type":"polygon-arrow-feedback","trial_index":0,"trial_index_global":38,"time_elapsed":1527130,"internal_chunk_id":"0-0.10-0"},{"nsides":6,"question":"Is 5 a generator under <img src=\"./images/hexagon_symbol.png\" style=\"width:14px;height:14px\">? <br /><br /> (Remember, a generator is an element which can make every other element.)","response_type":"multi","response_choices":["Yes","No"],"correct_response":"Yes","response":"Yes","orientation_history":[[0]],"response_history":["Yes"],"rt":13606,"trial_type":"polygon-arrow-question","trial_index":0,"trial_index_global":39,"time_elapsed":1540738,"internal_chunk_id":"0-0.10-0"},{"nsides":6,"feedback":"Correct! 5 is a generator under <img src=\"./images/hexagon_symbol.png\" style=\"width:14px;height:14px\">, because 5 = 5, 4 = 5 <img src=\"./images/hexagon_symbol.png\" style=\"width:14px;height:14px\"> 5, 3 = 5 <img src=\"./images/hexagon_symbol.png\" style=\"width:14px;height:14px\"> 5 <img src=\"./images/hexagon_symbol.png\" style=\"width:14px;height:14px\"> 5, 2 = 5 <img src=\"./images/hexagon_symbol.png\" style=\"width:14px;height:14px\"> 5 <img src=\"./images/hexagon_symbol.png\" style=\"width:14px;height:14px\"> 5 <img src=\"./images/hexagon_symbol.png\" style=\"width:14px;height:14px\"> 5, 1 = 5 <img src=\"./images/hexagon_symbol.png\" style=\"width:14px;height:14px\"> 5 <img src=\"./images/hexagon_symbol.png\" style=\"width:14px;height:14px\"> 5 <img src=\"./images/hexagon_symbol.png\" style=\"width:14px;height:14px\"> 5 <img src=\"./images/hexagon_symbol.png\" style=\"width:14px;height:14px\"> 5, and 0 = 5 <img src=\"./images/hexagon_symbol.png\" style=\"width:14px;height:14px\"> 5 <img src=\"./images/hexagon_symbol.png\" sty le=\"width:14px;height:14px\"> 5 <img src=\"./images/hexagon_symbol.png\" style=\"width:14px;height:14px\"> 5 <img src=\"./images/hexagon_symbol.png\" style=\"width:14px;height:14px\"> 5 <img src=\"./images/hexagon_symbol.png\" style=\"width:14px;height:14px\"> 5, so you can make all of the numbers under <img src=\"./images/hexagon_symbol.png\" style=\"width:14px;height:14px\"> using 5","orientation_history":[0],"rt":1335,"trial_type":"polygon-arrow-feedback","trial_index":0,"trial_index_global":40,"time_elapsed":1542074,"internal_chunk_id":"0-0.10-0"},{"nsides":6,"question":"Is 4 a generator under <img src=\"./images/hexagon_symbol.png\" style=\"width:14px;height:14px\">? <br /><br /> (Remember, a generator is an element which can make every other element.)","response_type":"multi","response_choices":["Yes","No"],"correct_response":"No","response":"No","orientation_history":[[0]],"response_history":["No"],"rt":22391,"trial_type":"polygon-arrow-question","trial_index":0,"trial_index_global":41,"time_elapsed":1564466,"internal_chunk_id":"0-0.10-0"},{"nsides":6,"feedback":"Correct! 4 is not a generator under <img src=\"./images/hexagon_symbol.png\" style=\"width:14px;height:14px\">, because 4 = 4, 2 = 4 <img src=\"./images/hexagon_symbol.png\" style=\"width:14px;height:14px\"> 4, and 0 = 4 <img src=\"./images/hexagon_symbol.png\" style=\"width:14px;height:14px\"> 4 <img src=\"./images/hexagon_symbol.png\" style=\"width:14px;height:14px\"> 4, but there is no way to make 1, 3, or 5 using just 4.","orientation_history":[0],"rt":783,"trial_type":"polygon-arrow-feedback","trial_index":0,"trial_index_global":42,"time_elapsed":1565250,"internal_chunk_id":"0-0.10-0"},{"nsides":6,"question":"Is 0 a generator under <img src=\"./images/hexagon_symbol.png\" style=\"width:14px;height:14px\">? <br /><br /> (Remember, a generator is an element which can make every other element.)","response_type":"multi","response_choices":["Yes","No"],"correct_response":"No","response":"No","orientation_history":[[0]],"response_history":["No"],"rt":20934,"trial_type":"polygon-arrow-question","trial_index":0,"trial_index_global":43,"time_elapsed":1586186,"internal_chunk_id":"0-0.10-0"},{"nsides":6,"feedback":"Correct! 0 is not a generator under <img src=\"./images/hexagon_symbol.png\" style=\"width:14px;height:14px\">, because 0 = 0, but there is no way to make 1, 2, 3, 4, or 5 using just 0.","orientation_history":[0],"rt":990,"trial_type":"polygon-arrow-feedback","trial_index":0,"trial_index_global":44,"time_elapsed":1587178,"internal_chunk_id":"0-0.10-0"},{"nsides":6,"question":"Let's review: under <img src=\"./images/hexagon_symbol.png\" style=\"width:14px;height:14px\">, 1 and 5 are generators. However, 0, 2, 3 and 4 are not generators. Try playing with these non-generators on the hexagon and seeing which elements each of them does generate (i.e. which elements you can get by combining each non-generator with itself repeatedly). Do you see spatial relationshi ps among  particular subsets of the elements that are not generators under <img src=\"./images/hexagon_symbol.png\" style=\"width:14px;height:14px\">?","response_type":"free","response_choices":[],"correct_response":"","response":"evens will only make evens","orientation_history":[[0],[0,0.29829699297826173,0.6309949636640161,0.7160116622207643,0.7473213378076449,0.78725689731635,0.78725689731635,0.8279650278370816,0.8279650278370816,0.8279650278370816,0.8279650278370816,0.8279650278370816,0.8279650278370816,0.8279650278370816,0.8279650278370816,0.8279650278370816,0.8279650278370816,1.0471975511965976],[1.0471975511965976,1.0471975511965976,1.0471975511965976,1.0471975511965976,1.0471975511965976,1.0471975511965976,1.0471975511965976,1.0471975511965976,1.0471975511965976,1.0471975511965976,1.0471975511965976,1.0471975511965976,1.0471975511965976,1.0471975511965976,1.0471975511965976,1.0471975511965976,1.0471975511965976,1.0471975511965976,1.0471975511965976,1.0471975511965976,1.0471975511965976,1.0471975511965976,1.0471975511965976,1.0471975511965976,1.0471975511965976,1.0471975511965976,1.0471975511965976,1.0471975511965976,1.0471975511965976],[1.0471975511965976,1.0471975511965976,1.0471975511965976,1.1998831285496894,1.1998831285496894,1.3405645630263072,1.4743317154505273,1.5601736527786978,1.6290914084556576,1.6804949324959277,1.6975220595401403,1.6975220595401403,1.6975220595401403,1.6975220595401403,1.6975220595401403,1.6975220595401403,1.6975220595401403,1.6975220595401403,1.6975220595401403,1.6975220595401403,1.7648424364169013,1.9579197010855924,2.0077399370957867,2.079017378162348,2.150379466861934,2.150379466861934,2.150379466861934,2.150379466861934,2.150379466861934,2.150379466861934,2.150379466861934,2.150379466861934,2.150379466861934,2.150379466861934,2.150379466861934,2.150379466861934,2.150379466861934,2.150379466861934,2.150379466861934,2.150379466861934,2.150379466861934,2.150379466861934,2.150379466861934,2.150379466861934,2.150379466861934,2.150379466861934,2.150379466861934,2.150379466861934,2.150379466861934,2.150379466861934,2.150379466861934,2.150379466861934,2.150379466861934,2.0943951023931953],[2.0943951023931953,2.0943951023931953,2.0943951023931953,2.0943951023931953,2.0943951023931953,2.0943951023931953,2.0943951023931953,2.2045222044794492,2.3648976484554,2.4608617633012604,2.652216272658566,2.733356415713579,2.7485396306557965,2.8114215490687213,2.83157188259698,2.83157188259698,2.83157188259698,2.83157188259698,2.83157188259698,2.83157188259698,2.83157188259698,2.83157188259698,2.83157188259698,2.8513094490678927,2.8895382129051397,2.9261044489941863,2.992235944287387,3.1239634594112653,3.2338463206625025,3.377184642584826,3.3892508886416968,3.413158043479335,3.413158043479335,3.413158043479335,3.413158043479335,3.413158043479335,3.475501390320321,3.475501390320321,3.6018958109994683,3.695543737116168,3.784206308304773,3.8187694266658765,3.8628518095213216,3.9488511107230524,4.041738393815205,4.041738393815205,4.124299242715997,4.1467597264510125,4.152878298673105,4.152878298673105,4.152878298673105,4.152878298673105,4.152878298673105,4.152878298673105,4.152878298673105,4.152878298673105,4.152878298673105,4.152878298673105,4.152878298673105,4.152878298673105,4.152878298673105,4.152878298673105,4.152878298673105,4.152878298673105,4.152878298673105,4.152878298673105,4.152878298673105,4.152878298673105,4.152878298673105,4.152878298673105,4.152878298673105,4.152878298673105,4.152878298673105,4.152878298673105,4.152878298673105,4.152878298673105,4.152878298673105,4.152878298673105,4.152878298673105,4.152878298673105,4.152878298673105,4.152878298673105,4.152878298673105,4.152878298673105,4.152878298673105,4.152878298673105,4.152878298673105,4.152878298673105,4.152878298673105,4.152878298673105,4.152878298673105,4.152878298673105,4.152878298673105,4.152878298673105,4.152878298673105,4.152878298673105,4.152878298673105,4.152878298673105,4.152878298673105,4.152878298673105,4.152878298673105,4.152878298673105,4.152878298673105,4.152878298673105,4.152878298673105,4.152878298673105,4.152878298673105,4.152878298673105,4.188463695301899,4.250605206031825,4.437444937033483,4.533650308250136,4.648144320515571,4.684952805368638,4.7210921386477445,4.73313625221848,4.769212779948568,4.79318276932473,4.817056253493605,4.817056253493605,4.852627922440027,4.864408782645092,4.876146328724664,4.887837583596481,4.922604962274047,4.971164370059031,4.971164370059031,4.971164370059031,4.971164370059031,4.971164370059031,4.971164370059031,4.971164370059031,4.971164370059031,5.0119293971685295,5.189450345376603,5.395666100123345,5.440922423731692,5.5034514574814235,5.5394573079655345,5.547962960650322,5.547962960650322,5.626414514407694,5.67818722293013,5.67818722293013,5.67818722293013,5.67818722293013,5.67818722293013,5.67818722293013,5.67818722293013,5.67818722293013,5.67818722293013,5.67818722293013,5.67818722293013,5.67818722293013,5.67818722293013,5.67818722293013,5.851062828142439,6.041231533080254,0.2303987292777705,0.3184061028055112,0.32871501595175445,0.32871501595175445,0.32871501595175445,0.32871501595175445,0.32871501595175445,0.32871501595175445,0.32871501595175445,0.32871501595175445,0.32871501595175445,0.32871501595175445,0.32871501595175445,0.32871501595175445,0.32871501595175445,0.32871501595175445,0.32871501595175445,0.32871501595175445,0.32871501595175445,0.32871501595175445,0.32871501595175445,0.32871501595175445,0.32871501595175445,0.32871501595175445,0.32871501595175445,0.30802585280677075,0.1224249691693966,0.1224249691693966,0.1224249691693966,0.1224249691693966,0.1224249691693966,0.08941186859701267,6.241884410400141,6.176316181077911,6.134212475017632,6.134212475017632,6.058191292609777,6.0246584649676365,6.00351358061339,6.00351358061339,6.00351358061339,6.00351358061339,6.00351358061339,6.00351358061339,6.00351358061339,6.00351358061339,6.00351358061339,6.031353434931052,6.031353434931052,6.150138318432543,6.236389960196925,0.15958200725924176,0.15958200725924176,0.19931421755634515,0.19931421755634515,0.25128021460341055,0.30187868220279035,0.3865734123397211,0.4548087072064586,0.48732360659693996,0.49791981328045143,0.5187471622371564,0.5651800961399089,0.5942120013940336,0.742703955417712,0.8132935452365856,0.8600203456378596,1.0550624148930279,1.1287990598218798,1.39477038358576,1.5341308793255184,1.556463306521032,1.589426359500428,1.6004069728180637,1.6004069728180637,1.6004069728180637,1.6004069728180637,1.6004069728180637,1.6004069728180637,1.6004069728180637,1.6004069728180637,1.6004069728180637,1.6004069728180637,1.6004069728180637,1.6004069728180637,1.6004069728180637,1.6004069728180637,1.6004069728180637,1.8230968004817012,1.8230968004817012,1.892686736057549,1.9823576328946402,2.106076045266816,2.1468587019253826,2.16973922133873,2.16973922133873,2.16973922133873,2.16973922133873,2.16973922133873,2.16973922133873,2.16973922133873,2.16973922133873,2.16973922133873,2.16973922133873,2.16973922133873,2.16973922133873,2.16973922133873,2.16973922133873,2.16973922133873,2.16973922133873,2.16973922133873,2.16973922133873,2.16973922133873,2.16973922133873,2.1901226639608327,2.416256990568046,2.605925690765816,2.8666486102385864,2.899016602035002,2.9158009365727207,2.9158009365727207,2.9158009365727207,2.9158009365727207,2.9158009365727207,2.9158009365727207,2.927154868775916,2.9847044194591064,3.17232591358567,3.17232591358567,3.3545888633719527,3.423711062265407,3.46325607386531,3.520627236098015,3.529948141436086,3.57547024573965,3.657394316245185,3.748974166387871,3.8102113735888943,3.8487865176853435,3.8866262495221804,3.8926004431520873,3.9361457144154723,3.9486411590150308,3.988490392949317,4.002430326385254,4.016710094120528,4.02397946961673,4.02397946961673,4.02397946961673,4.02397946961673,4.02397946961673,4.02397946961673,4.02397946961673,4.02397946961673,4.02397946961673,4.02397946961673,4.02397946961673,4.02397946961673,4.02397946961673,4.02397946961673,4.038781168586771,4.06165238905363,4.069457294340225,4.085342812566667,4.093424639364449,4.118232943869943,4.143895088786799,4.143895088786799,4.143895088786799,4.143895088786799,4.143895088786799,4.143895088786799,4.143895088786799,4.143895088786799,4.143895088786799,4.143895088786799,4.143895088786799,4.143895088786799,4.143895088786799,4.143895088786799,4.143895088786799,4.143895088786799,4.143895088786799,4.143895088786799,4.143895088786799,4.143895088786799,4.143895088786799,4.143895088786799,4.143895088786799,4.161482292853561,4.188586079342409,4.326437314435759,4.379994833953219,4.68465911962084,4.88997098954768,4.971164370059031,5.01609026081235,5.027132095909966,5.027132095909966,5.027132095909966,5.027132095909966,5.027132095909966,5.027132095909966,5.027132095909966,5.048974898263179,5.059772477041762,5.081112287651679,5.091651743151359,5.091651743151359,5.091651743151359,5.091651743151359,5.091651743151359,5.091651743151359,5.091651743151359,5.091651743151359,5.091651743151359,5.183162959299061,5.466412652231161,6.005265574148829,0.0554113711245916,0.13703053417320232,0.1355405639290821,0.1355405639290821,0.1355405639290821,0.1355405639290821,0.1355405639290821,0.1355405639290821,0.1355405639290821,0.1355405639290821,0.1355405639290821,0.1355405639290821,0.1355405639290821,0.1355405639290821,0.1355405639290821,0.1355405639290821,0.1355405639290821,0.16703065907148495,0.16703065907148495,0.16703065907148495,0.21071623197269052,0.2704975846360118,0.35287520380501913,0.6468830131573083,0.7743019290941104,0.8506482152605919,0.8861536499159166,0.9239507664104812,0.953292447911755,0.9619072115987956,0.9794492716561981,1.0065510679513938,1.0065510679513938,1.0157968926752188,1.0157968926752188,1.0157968926752188,1.0157968926752188,1.0157968926752188,1.0346079875843768,1.04417355307179,1.04417355307179,1.04417355307179,1.04417355307179,1.04417355307179,1.04417355307179,1.083502487343741,1.2346316622770164,1.3397625554351098,1.6647050734553315,1.9413937951875115,2.1213062676755636,2.215263302130864,2.2405426539086384,2.255415187308958,2.285283871164715,2.2932193254700444,2.2932193254700444,2.2932193254700444,2.2932193254700444,2.2932193254700444,2.2932193254700444,2.2932193254700444,2.2932193254700444,2.2932193254700444,2.2932193254700444,2.2932193254700444,2.2932193254700444,2.2932193254700444,2.2932193254700444,2.2932193254700444,2.2932193254700444,2.2932193254700444,2.2772368953643842,2.260803189737807,2.2265419215379736,2.199589836732759,2.1715302641997236,2.161926880278629,2.161926880278629,2.161926880278629,2.161926880278629,2.161926880278629,2.161926880278629,2.161926880278629,2.161926880278629,2.161926880278629,2.161926880278629,2.161926880278629,2.161926880278629,2.161926880278629,2.161926880278629,2.161926880278629,2.161926880278629,2.161926880278629,2.161926880278629,2.161926880278629,2.161926880278629,2.161926880278629,2.161926880278629,2.161926880278629,2.161926880278629,2.161926880278629,2.161926880278629,2.161926880278629,2.161926880278629,2.161926880278629,2.182114827125931,2.7434570822989004,2.7434570822989004,3.433185260847469,3.471068414925411,3.5474940971976956,3.583118675407036,3.583118675407036,3.583118675407036,3.661186965569834,3.6523117678882895,3.6433467090576594,3.6433467090576594,3.6433467090576594,3.6433467090576594,3.6433467090576594,3.6433467090576594,3.6433467090576594,3.6342918803648403,3.6342918803648403,3.3469299643336887,3.2715984561702145,3.2121872396566022,3.1875908342516324,3.1629345440542616,3.088905569745692,2.979111476199969,2.979111476199969,2.943227934593741,2.9078457659398005,2.896176507427543,2.896176507427543,2.896176507427543,2.896176507427543,2.896176507427543,2.896176507427543,2.896176507427543,2.896176507427543,2.896176507427543,2.896176507427543,2.899016602035002,2.899016602035002,2.899016602035002,2.899016602035002,2.899016602035002,2.899016602035002,2.899016602035002,2.899016602035002,2.899016602035002,2.899016602035002,2.924687768518174,2.924687768518174,3.090092688938747,3.090092688938747,3.1623399254235833,3.1743770525114376,3.198416453153672,3.2343369175160293,3.261083440876557,3.2732249518525856,3.285326557387065,3.3213590192611466,3.3213590192611466,3.3213590192611466,3.3213590192611466,3.3213590192611466,3.3213590192611466,3.3213590192611466,3.3213590192611466,3.3213590192611466,3.3213590192611466,3.3213590192611466,3.3213590192611466,3.3213590192611466,3.3742718806245593,3.4309612772226594,3.5237420689279917,3.70156446349063,3.70156446349063,3.70156446349063,3.8820037862975223,3.8820037862975223,3.8820037862975223,3.8820037862975223,3.8820037862975223,3.8820037862975223,3.8820037862975223,3.8820037862975223,3.8820037862975223,3.9032410347095725,3.9032410347095725,3.9032410347095725,3.994235955214984,3.994235955214984,3.994235955214984,3.994235955214984,3.994235955214984,3.994235955214984,3.994235955214984,4.014306252596856,4.085483796634533,4.251975772245769,4.364042351586454,4.364042351586454,4.664298297338943,4.867134499915244,4.944056744514215,4.983619810233185,5.02232070978723,5.072437662288789,5.072437662288789,5.108825627036355,5.120715872225453,5.120715872225453,5.120715872225453,5.120715872225453,5.120715872225453,5.120715872225453,5.120715872225453,5.120715872225453,5.120715872225453,5.120715872225453,5.120715872225453,5.120715872225453,5.120715872225453,5.184055285058656,5.396715784832288,6.0210699636247575,6.0210699636247575,6.130281115714752,6.254529806445607,6.267341506569093,6.267341506569093,6.267341506569093,6.267341506569093,6.267341506569093,6.267341506569093,6.267341506569093,6.267341506569093,6.267341506569093,6.267341506569093,6.267341506569093,6.267341506569093,6.267341506569093,-0.003344451591130948,0.009000600253093571,0.009000600253093571,0.009000600253093571,0.009000600253093571,0.009000600253093571,0.009000600253093571,0.009000600253093571,0.009000600253093571,0.009000600253093571,0.009000600253093571,0.009000600253093571,0.009000600253093571,0.009000600253093571,0.009000600253093571,0.009000600253093571,0.009000600253093571,0.009000600253093571,0.009000600253093571,0.009000600253093571,0.009000600253093571,0.009000600253093571,0.009000600253093571,0.009000600253093571,0.009000600253093571,0.009000600253093571,0.009000600253093571,0.009000600253093571,0.009000600253093571,0.009000600253093571,0.009000600253093571,0.009000600253093571,0.009000600253093571,0.009000600253093571,0.009000600253093571,0.009000600253093571,0.009000600253093571,0.009000600253093571,0.009000600253093571,0.009000600253093571,0.009000600253093571,0.009000600253093571,0.009000600253093571,0.009000600253093571,0.009000600253093571,0.009000600253093571,0.021341890464468438,0.13500651858599433,0.346511150265967,0.5238014919952785,0.6654677063450017,0.7820537118063173,0.832857415864539,0.84080953452204,0.8712473243980504,0.939470584532908,0.9549143185934622,0.9915332755854126,1.0065510679513938,1.0065510679513938,1.0065510679513938,1.0065510679513938,1.0065510679513938,1.0065510679513938,1.0065510679513938,1.0065510679513938,1.0065510679513938,1.0065510679513938,1.0065510679513938,1.0157968926752188,1.0251491379881608,1.04417355307179,1.2384021803634262,1.4288121380696075,1.5904363326452178,1.7045180495139531,1.7934110928924063,1.8578538177522068,1.8683721095641908,1.8683721095641908,1.8683721095641908,1.8683721095641908,1.8683721095641908,1.8683721095641908,1.8683721095641908,1.8683721095641908,1.8683721095641908,1.8683721095641908,1.8683721095641908,1.8683721095641908,1.8683721095641908,1.8683721095641908,1.8892024296004077,1.9199094980304698,1.9199094980304698,1.9199094980304698,1.9888710820915698,2.0543511070150346,2.0543511070150346,2.178177839592974,2.28628187482539,2.3453313832889098,2.45028488989347,2.5204924764324295,2.5532485924270922,2.568207738298952,2.592262896492924,2.6204663433859756,2.6397887915319833,2.6397887915319833,2.714380591468883,2.7348291686988504,2.782028546602512,2.782028546602512,2.782028546602512,2.792280929385866,2.792280929385866,2.792280929385866,2.792280929385866,2.8130133411448788,2.861450043366672,2.861450043366672,3.3884487497763027,3.5471560309495875,3.694847520008885,3.7637332422378913,3.7637332422378913,3.8648905426803877,3.8648905426803877,3.9512636512776527,4.0036888909563695,4.061072510893053,4.061072510893053,4.081886689846989,4.092243305005541,4.092243305005541,4.092243305005541,4.092243305005541,4.092243305005541,4.092243305005541,4.09831856440435,4.09831856440435,4.104445938700081,4.104445938700081,4.125288184225839,4.125288184225839,4.123201749101398,4.078466771578624,3.407415694784363,3.407415694784363,2.9408526421487817,2.8673013516602417,2.7966327113508553,2.7770444465049806,2.7770444465049806,2.7770444465049806,2.7770444465049806,2.7770444465049806,2.7770444465049806,2.7770444465049806,2.7770444465049806,2.7770444465049806,2.7770444465049806,2.7770444465049806,2.7770444465049806,2.7966327113508553,2.806531200195813,2.81649764760202,2.833445177408425,2.854022686432283,2.9279223283336044,3.0374672029139944,3.138248201998662,3.1719433093446785,3.1719433093446785,3.1719433093446785,3.1719433093446785,3.1719433093446785,3.1719433093446785,3.1719433093446785,3.1719433093446785,3.1719433093446785,3.1719433093446785,3.1719433093446785,3.1719433093446785,3.1719433093446785,3.1719433093446785,3.1719433093446785,3.1719433093446785,3.1719433093446785,3.1719433093446785,3.1719433093446785,3.1719433093446785,3.1719433093446785,3.194368984699839,3.280145256602826,3.4367471335848414,3.619135482193998,3.7262508055462296,3.7262508055462296,3.83765207420187,3.932193165828722,3.932193165828722,3.9488511107230524,3.96563847261748,4.006787597284552,4.006787597284552,4.054049673285244,4.070130543789672,4.070130543789672,4.088795042810737,4.09831856440435,4.130719042513142,4.156625604473213,4.197305686478201,4.2507444624019035,4.2507444624019035,4.454919779237924,4.554443983362358,4.696058245873386,4.812569203304102,4.913921245830667,4.98734418779867,4.9993094287226025,4.9993094287226025,4.9993094287226025,4.9993094287226025,4.9993094287226025,4.9993094287226025,4.9993094287226025,4.9993094287226025,4.9993094287226025,4.9993094287226025,5.011189752332996,5.011189752332996,5.011189752332996,5.038668936214301,5.144128479955604,5.273613922461658,5.704768565856065,0.05830571904812798,0.1268669913732654,0.19621093211415608,0.19405110825874972,0.19405110825874972,0.19405110825874972,0.19405110825874972,0.19405110825874972,0.19405110825874972,0.19405110825874972,0.19405110825874972,0.19405110825874972,0.19405110825874972,0.19405110825874972,0.19405110825874972,0.19405110825874972,0.19405110825874972,0.19405110825874972,0.19405110825874972,0.19405110825874972,0.19405110825874972,0.19405110825874972,0.19405110825874972,0.19405110825874972,0.19405110825874972,0.16362571743379783,0.10092716033652427,0.06796301319415932,0.06796301319415932,0.06796301319415932,0.06796301319415932,0.0688191773685265,0.034611993597183366,0.034611993597183366,0.034611993597183366,0.034611993597183366,0.034611993597183366,0.04789271581228771,0.04789271581228771,0.04789271581228771,0.04789271581228771,0.04789271581228771,0.04789271581228771,0.04789271581228771,0.04789271581228771,0.04789271581228771,0.04789271581228771,0.04789271581228771,0.04789271581228771,0.04789271581228771,0.04789271581228771,0.04789271581228771,0.04789271581228771,0.11452765160608536,0.3266026405554239,0.5679930282424958,0.7252044644734795,0.8132935452365856,0.8658266555500839,0.9155827608981887,0.9737022084929945,1.03054113246372,1.0769049263768562,1.0769049263768562,1.0994183294141673,1.1255399730447522,1.1511825773468238,1.172660755504004,1.1851693010250162,1.1851693010250162,1.1851693010250162,1.1851693010250162,1.1851693010250162,1.1851693010250162,1.1851693010250162,1.1851693010250162,1.1851693010250162,1.1851693010250162,1.1905426048789445,1.217844751413364,1.2581230421290786,1.4056144439653426,1.5063037125544645,1.5063037125544645,1.7491007052037775,1.8830675372425318,1.9894569051059832,2.006311174167272,2.006311174167272,2.0146400653697922,2.0146400653697922,2.0146400653697922,2.0146400653697922,2.0146400653697922,2.0229029464546593,2.0229029464546593,2.0229029464546593,2.0229029464546593,2.0229029464546593,2.0229029464546593,2.0229029464546593,2.0229029464546593,2.0229029464546593,2.0310994842045718,2.1078713754743497,2.378054783928156,2.71051328961242,2.71051328961242,3.285326557387065,3.285326557387065,3.4180653105219054,3.4255296553957963,3.4255296553957963,3.4255296553957963,3.4255296553957963,3.4255296553957963,3.4255296553957963,3.4255296553957963,3.4255296553957963,3.4255296553957963,3.4255296553957963,3.4255296553957963,3.4255296553957963,3.4255296553957963,3.4255296553957963,3.4255296553957963,3.4255296553957963,3.4255296553957963,3.404500251149588,3.404500251149588,3.3938931272765975,3.3617248031392952,3.3617248031392952,3.3400105463189496,3.3400105463189496,3.329079304719924,3.329079304719924,3.329079304719924,3.329079304719924,3.329079304719924,3.307080104009783,3.296016939594616,3.296016939594616,3.296016939594616,3.296016939594616,3.273775915984163,3.262603196545424,3.240166569479536,3.2289080891994075,3.1950053598207555,3.1609715628403032,3.138248201998662,3.138248201998662,3.115524841157021,3.115524841157021,3.115524841157021,3.115524841157021,3.115524841157021,3.115524841157021,3.138248201998662,3.149611349262953,3.149611349262953,3.149611349262953,3.149611349262953,3.149611349262953,3.149611349262953,3.17232591358567,3.183671481420239,3.183671481420239,3.2063246602566617,3.2176265165582354,3.2176265165582354,3.26401762275919,3.28827515878277,3.3451221509784053,3.60784812165406,3.784367105859264,3.8961303761106563,3.9866260278290553,4.155750203471266,4.1791954593374925,4.218376470605488,4.245396919792753,4.2507444624019035,4.282417035666683,4.282417035666683,4.282417035666683,4.282417035666683,4.282417035666683,4.282417035666683,4.282417035666683,4.282417035666683,4.282417035666683,4.304152742508475,4.304152742508475,4.418779628864515,4.418779628864515,4.50416781175645,4.631279589190827,4.901092546034288,4.901092546034288,5.324914480733085,5.33509105128709,5.33509105128709,5.33509105128709,5.33509105128709,5.33509105128709,5.33509105128709,5.33509105128709,5.33509105128709,5.33509105128709,5.33509105128709,5.33509105128709,5.33509105128709,5.33509105128709,5.33509105128709,5.399080645288597,5.399080645288597,5.838661375173475,6.187084535400311,6.199554040305439,6.199554040305439,6.199554040305439,6.199554040305439,6.199554040305439,6.199554040305439,6.199554040305439,6.199554040305439,6.199554040305439,6.234927260118666,6.257622290261736,6.268730201690848,0.0077662023064764,0.018874113735588116,0.018874113735588116,0.018874113735588116,0.018874113735588116,0.018874113735588116,0.018874113735588116,0.018874113735588116,0.018874113735588116,0.018874113735588116,0.018874113735588116,0.018874113735588116,0.018874113735588116,0.018874113735588116,0.018874113735588116,0.018874113735588116,0.018874113735588116,0.018874113735588116,0.018874113735588116,0.018874113735588116,0.018874113735588116,0.018874113735588116,0.018874113735588116,0.018874113735588116,0.018874113735588116,0.018874113735588116,0.018874113735588116,0.018874113735588116,0.018874113735588116,0.018874113735588116,0.018874113735588116,0.018874113735588116,0.018874113735588116,0.018874113735588116,0.018874113735588116,0.018874113735588116,0.018874113735588116,0.018874113735588116,0.018874113735588116,0.018874113735588116,0.018874113735588116,0.018874113735588116,0.018874113735588116,0.018874113735588116,0]],"response_history":["evens will only make evens, ","evens will only make evens,","evens will only make evens"],"rt":62159,"trial_type":"polygon-arrow-question","trial_index":0,"trial_index_global":45,"time_elapsed":1649338,"internal_chunk_id":"0-0"},{"nsides":9,"instructions":"Now we are going to ask you some questions about a new operation, <img src=\"./images/nonagon_symbol.png\" style=\"width:14px;height:14px\">, on the numbers 0, 1, 2, 3, 4, 5, 6, 7, 8.  It work s exactly like <img src=\"./images/hexagon_symbol.png\" style=\"width:14px;height:14px\">, except now you use the nonagon shown at the right. <br /><br />We'll give you one practice question with feedback to make sure you understand the new operation. After that, try to complete the remaining questions as accurately as possible.","orientation_history":[0],"rt":11230,"trial_type":"polygon-arrow-instructions","trial_index":0,"trial_index_global":46,"time_elapsed":1660570,"internal_chunk_id":"0-0"},{"nsides":9,"question":"Practice: What is 5 <img src=\"./images/nonagon_symbol.png\" style=\"width:14px;height:14px\"> 5?","response_type":"free","response_choices":[],"correct_response":"1","response":"1","orientation_history":[[0],[0,0,0,0,0,0,-0.08406536839760381,-0.2038332391549682,-0.2708254911157155,-0.5199341361480254,-0.6295025722429015,-0.7721200878175107,-0.8996882094715275,-1.0562236545131638,-1.161838652364997,-1.2118317077292389,-1.2118317077292389,-1.508377516798939,-1.508377516798939,-1.727046462672881,-1.727046462672881,-1.888883893911304,-2.1106648629339038,-2.1106648629339038,-2.3107232100027923,-2.3107232100027923,-2.5387543433232516,-2.7424990242071083,-2.857524280615158,-2.857524280615158,-2.857524280615158,-2.917798733173144,-2.9466223112971615,-2.9466223112971615,-2.9466223112971615,-2.9466223112971615,-2.9466223112971615,-2.9466223112971615,-2.9466223112971615,-2.9466223112971615,-2.935721580290177,-2.903234218141308,-2.8924845127795864,-2.8924845127795864,-2.8235289183159002,-2.760836245228732,-2.6926675384799155,-2.668616395551985,-2.668616395551985,-2.668616395551985,-2.668616395551985,-2.668616395551985,-2.668616395551985,-2.664268085902961,-2.675754810294024,-2.675754810294024,-2.675754810294024,-2.675754810294024,-2.675754810294024,-2.6965666292360355,-2.6965666292360355,-2.717732952700283,-2.728445895345632,-2.728445895345632,-2.7646695391770906,-2.7756031042701714,-2.7756031042701714,-2.7756031042701714,-2.7756031042701714,-2.7756031042701714,-2.7790026727637236,-2.782329170217433,-2.7855848561850856,-2.774965349254596,-2.774965349254596,-2.774965349254596,-2.774965349254596,-2.774965349254596,-2.774965349254596,-2.774965349254596,-2.774965349254596,-2.774965349254596,-2.774965349254596,-2.774965349254596,-2.774965349254596,-2.774965349254596,-2.774965349254596,-2.774965349254596,-2.774965349254596,-2.774965349254596,-2.774965349254596,-2.774965349254596,-2.774965349254596,-2.774965349254596,-2.774965349254596,-2.774965349254596,-2.774965349254596,-2.7539389827400518,-2.7332065709810394,-2.7007464655651585,-2.6258351477392727,-2.600063549533444,-2.600063549533444,-2.600063549533444,-2.600063549533444,-2.584448161109587,-2.5788934153689835,-2.5306244411433076,-2.474394290780655,-2.4234782173522995,-2.3626321694974317,-2.258702349663162,-2.1715805095050325,-2.1271922835366244,-2.1031367742822917,-2.1031367742822917,-2.076043941170818,-2.065673051916445,-2.065673051916445,-2.065673051916445,-2.065673051916445,-2.065673051916445,-2.065673051916445,-2.065673051916445,-2.065673051916445,-2.065673051916445,-2.065673051916445,-2.065673051916445,-2.065673051916445,-2.0445235388111733,-2.0401015840577443,-2.0401015840577443,-2.0401015840577443,-2.0401015840577443,-2.0401015840577443,-2.0401015840577443,-2.0401015840577443,-2.0401015840577443,-2.0401015840577443,-2.0401015840577443,-2.022828829857967,-2.011776901195593,-1.8626369394776052,-1.690545827271702,-1.5211973272718389,-1.418873698447329,-1.3156767581365534,-1.3156767581365534,-1.2806881970302832,-1.2806881970302832,-1.2806881970302832,-1.2806881970302832,-1.2806881970302832,-1.2806881970302832,-1.2806881970302832,-1.2806881970302832,-1.2806881970302832,-1.2806881970302832,-1.2806881970302832,-1.2806881970302832,-0.7589350737220908,-0.7589350737220908,-0.7589350737220908,-0.7589350737220908,-0.7589350737220908,-0.7589350737220908,-0.7589350737220908,-0.7589350737220908,-0.7589350737220908,-0.7589350737220908,-0.7589350737220908,-0.7589350737220908,-0.7589350737220908,-0.7589350737220908,-0.7589350737220908,-0.7589350737220908,-0.7589350737220908,-0.7589350737220908,-0.7589350737220908,-0.7589350737220908,-6.104411331976754,-6.104411331976754,-6.104411331976754,-6.036223699993014,-5.994954815640273,-5.982157174675428,-5.969438713022789,-5.956802773557924,-5.944252550566155,-5.944252550566155,-5.936972387975301,-5.933190666403181,-5.933190666403181,-5.933190666403181,-5.933190666403181,-5.933190666403181,-5.933190666403181,-5.936972387975301,-5.936972387975301,-5.936972387975301,-5.936972387975301,-5.936972387975301,-5.936972387975301,-5.936972387975301,-5.9242206881139285,-5.911567584856554,-5.886568452918126,-5.849875208370967,-5.803868426773735,-5.774660948240225,-5.7162060584073835,-5.669111514655082,-5.658029274422546,-5.640010143615958,-5.629166786848518,-5.629166786848518,-5.629166786848518,-5.629166786848518,-5.629166786848518,-5.629166786848518,-5.629166786848518,0.6981317007977318]],"response_history":["1"],"rt":11760,"trial_type":"polygon-arrow-question","trial_index":0,"trial_index_global":47,"time_elapsed":1672331,"internal_chunk_id":"0-0.13-0"},{"nsides":9,"feedback":"Correct! 5 <img src=\"./images/nonagon_symbol.png\" style=\"width:14px;height:14px\"> 5 = 1 because 5 steps clockwise on the nonagon from 5 brings us to 1","orientation_history":[0],"rt":1168,"trial_type":"polygon-arrow-feedback","trial_index":0,"trial_index_global":48,"time_elapsed":1673500,"internal_chunk_id":"0-0.13-0"},{"nsides":9,"question":"What is 3 <img src=\"./images/nonagon_symbol.png\" style=\"width:14px;height:14px\"> 3?","response_type":"free","response_choices":[],"correct_response":"6","response":"6","orientation_history":[[0],[0,0,0,0,0.0005945302509975381,0.23263939563057967,0.5609544071558408,0.7197087822811119,0.8397580983763338,0.8397580983763338,0.9167784677128082,0.9262193711869974,0.9443902590435713,0.9952494816449293,1.070723132171158,1.139849794376292,1.1526199979836431,1.2365825174666656,1.305361376331089,1.4645348039952695,1.569232198769087,1.63062068825827,1.6611276526368945,1.6763098544058332,1.6763098544058332,1.6763098544058332,1.775930698893972,1.775930698893972,1.775930698893972,1.7875919778573932,1.7875919778573932,1.8174126805715296,1.8321484559936032,1.8612462701113133,1.8612462701113133,1.8898164029146227,1.9452539251137022,1.9587405832735751,1.9587405832735751,1.9587405832735751,1.9587405832735751,1.9587405832735751,1.9587405832735751,1.9587405832735751,1.9587405832735751,1.9587405832735751,1.9587405832735751,1.9587405832735751,1.9587405832735751,1.9587405832735751,1.985249523554044,2.0238254354054996,2.0238254354054996,2.0609473013808284,2.084878901832674,2.11534246025559,2.126814939877198,2.126814939877198,2.126814939877198,2.126814939877198,2.126814939877198,2.126814939877198,2.126814939877198,2.126814939877198,2.126814939877198,2.126814939877198,2.126814939877198,2.126814939877198,2.126814939877198,2.126814939877198,2.126814939877198,2.126814939877198,2.126814939877198,2.126814939877198,2.126814939877198,2.126814939877198,2.126814939877198,2.108156293190043,2.108156293190043,2.108156293190043,2.108156293190043,2.108156293190043,2.108156293190043,2.108156293190043,2.108156293190043,2.108156293190043,2.108156293190043,2.108156293190043,2.108156293190043,2.108156293190043,2.119550265644669,2.1492586724672247,2.2469176256543406,2.393738416626671,2.554062360787599,2.6822709008066434,2.7525773649252674,2.767195456707422,2.767195456707422,2.767195456707422,2.767195456707422,2.767195456707422,2.767195456707422,2.767195456707422,2.767195456707422,2.767195456707422,2.767195456707422,2.767195456707422,2.767195456707422,2.767195456707422,2.767195456707422,2.767195456707422,2.767195456707422,2.767195456707422,2.767195456707422,2.767195456707422,2.844828015260145,3.0609018112507016,3.230022562972331,3.230022562972331,3.3344734355430434,3.34331406965733,3.34331406965733,3.34331406965733,3.34331406965733,3.3608903845018254,3.3608903845018254,3.3608903845018254,3.3696237869102523,3.3696237869102523,3.3696237869102523,3.3696237869102523,3.3696237869102523,3.3696237869102523,3.386975624409554,3.3955919741218086,3.412700570834014,3.421190932853089,3.4323121023571703,3.452045335583615,3.5504956162896297,3.5670193467601337,3.6279195550381216,3.673670263590985,3.7211461063032143,3.764031029469561,3.7784551457229156,3.7784551457229156,3.786586764988896,3.802545613155182,3.802545613155182,3.802545613155182,3.802545613155182,3.802545613155182,3.802545613155182,3.802545613155182,3.8310711794394443,3.845385340756856,3.852962504774572,3.881065893329275,3.881065893329275,3.881065893329275,3.881065893329275,3.881065893329275,3.881065893329275,3.968799109896559,3.968799109896559,3.9756424590118753,3.982380617719432,3.982380617719432,4.004650522300566,4.081282023286274,4.095845163609267,4.174983001127135,4.174983001127135,4.174983001127135,4.174983001127135,4.174983001127135,4.174983001127135,4.174983001127135,4.174983001127135,4.174983001127135,4.174983001127135,4.174983001127135,4.174983001127135,4.1887902047863905]],"response_history":["6"],"rt":7052,"trial_type":"polygon-arrow-question","trial_index":0,"trial_index_global":49,"time_elapsed":1680554,"internal_chunk_id":"0-0.13-0"},{"nsides":9,"question":"What is 7 <img src=\"./images/nonagon_symbol.png\" style=\"width:14px;height:14px\"> 4?","response_type":"free","response_choices":[],"correct_response":"2","response":"2","orientation_history":[[0],[0,0,-0.018503713805920974,6.153835856574057,6.04521092761756,5.305014047156916,5.305014047156916,5.298277918691004,5.2851748659580275,5.278802341949022,5.278802341949022,5.278802341949022,5.278802341949022,5.278802341949022,5.278802341949022,5.278802341949022,5.278802341949022,5.278802341949022,5.278802341949022,5.278802341949022,5.278802341949022,5.269582568311193,5.260246478230793,5.221728888959738,5.20176122873718,5.1709205379965875,5.149768747302667,5.139016473511566,5.1060613758972675,5.067316389979273,5.032677547518859,4.997119418907402,4.9359712562581,4.9359712562581,4.9359712562581,4.9359712562581,4.9359712562581,4.9359712562581,4.9359712562581,4.9359712562581,4.9359712562581,4.94837756759747,5.0443284107166155,5.1171620300282035,5.1171620300282035,5.219920572666797,5.297028786793848,5.304165150926193,5.32370085359802,5.593318560204882,5.593318560204882,5.593318560204882,5.593318560204882,5.593318560204882,5.593318560204882,5.593318560204882,5.593318560204882,5.593318560204882,5.593318560204882,5.593318560204882,5.593318560204882,5.593318560204882,5.593318560204882,5.593318560204882,5.593318560204882,5.593318560204882,5.593318560204882,5.593318560204882,5.593318560204882,5.593318560204882,5.593318560204882,5.658162587758089,5.658162587758089,5.967865532300545,0.34348626123843484,0.34348626123843484,0.44480730819985426,0.4623266058061999,0.4623266058061999,0.4623266058061999,0.4623266058061999,0.4623266058061999,0.4623266058061999,0.4731887983943468,0.4731887983943468,0.4731887983943468,0.4758301738972739,0.4758301738972739,0.3738310754278553,0.23988872344382828,0.15826128222096925,0.09850759811157062,0.05467604038593299,-0.03702011587393006,6.211696090306148,6.200220535497537,6.188757076668856,6.188757076668856,6.188757076668856,6.188757076668856,6.188757076668856,6.188757076668856,6.188757076668856,6.188757076668856,6.188757076668856,-0.03702011587393006,-0.014551987288104584,0.028105047460455834,0.028105047460455834,0.04971822280205496,0.1315768237354995,0.17833758382380793,0.17833758382380793,0.18825666334012525,0.20795854725293395,0.21773818656196475,0.23714733524572873,0.24677399333439776,0.25634689595577953,0.2753263270425683,0.33988915445089085,0.4431549137295967,0.5437362376937402,0.5581593979410588,0.5861792140601358,0.6115145074557445,0.6115145074557445,0.6534263411807618,0.6833809743639153,0.7064864024275893,0.7483780475235182,0.7544385793818286,0.7544385793818286,0.7544385793818286,0.7544385793818286,0.7544385793818286,0.7544385793818286,0.7544385793818286,0.7544385793818286,0.7544385793818286,0.7544385793818286,0.7544385793818286,0.7605725649717701,0.8165950144218744,0.8742906732093164,0.9432419672123902,1.0570289146003833,1.0923471672468794,1.1475988170987708,1.1570648820029032,1.1570648820029032,1.1570648820029032,1.1570648820029032,1.1570648820029032,1.1570648820029032,1.1570648820029032,1.1570648820029032,1.1570648820029032,1.1570648820029032,1.1570648820029032,1.1570648820029032,1.1570648820029032,1.1738276848935605,1.1738276848935605,1.1738276848935605,1.186714607381476,1.2442725389595783,1.2738360707324385,1.324136365046754,1.3343356641467317,1.3343356641467317,1.3343356641467317,1.3343356641467317,1.3343356641467317,1.3343356641467317,1.3343356641467317,1.3343356641467317,1.3343356641467317,1.3343356641467317,1.3343356641467317,1.3445771888209983,1.3962634015954636]],"response_history":["2"],"rt":6806,"trial_type":"polygon-arrow-question","trial_index":0,"trial_index_global":50,"time_elapsed":1687362,"internal_chunk_id":"0 -0.13-0"},{"nsides":9,"question":"What is 1 <img src=\"./images/nonagon_symbol.png\" style=\"width:14px;height:14px\"> 8?","response_type":"free","response_choices":[],"correct_response":"0","response":"0","orientation_history":[[0],[0,0,0,0,0,0,0,0,0,0.014610047626129052,0.04544301866615341,0.07476269483021958,0.2195150716239116,0.2195150716239116,0.32368211932337054,0.32368211932337054,0.37682827035910327,0.4039480564720601,0.45139844574849564,0.5146052776459559,0.523263069975703,0.5486346893875607,0.6037302466353806,0.6571109749016828,0.6685499421043057,0.6685499421043057,0.6685499421043057,0.6685499421043057,0.6685499421043057,0.6685499421043057,0.6685499421043057,0.6685499421043057,0.6685499421043057,0.6685499421043057,0.6685499421043057,0.6685499421043057,0.6685499421043057,0.6685499421043057,0.6685499421043057,0.6685499421043057,0.6685499421043057,0.6685499421043057,0.6685499421043057,0.6685499421043057,0.6685499421043057,0.6685499421043057,0.6685499421043057,0.6685499421043057,0.6685499421043057,0.6685499421043057,0.6685499421043057,0.6685499421043057,0.6685499421043057,0.6685499421043057,0.6685499421043057,0.6685499421043057,0.6685499421043057,0.6685499421043057,0.6685499421043057,0.6685499421043057,0.6685499421043057,0.6685499421043057,0.6685499421043057,0.6685499421043057,0.6685499421043057,0.6685499421043057,0.6685499421043057,0.6685499421043057,0.6685499421043057,0.6685499421043057,0.6902651306540439,0.7545283721156208,0.7757441500285237,0.7757441500285237,0.8179851954854365,0.8389736271099155,0.8389736271099155,0.9011998595958048,0.91352860523117,0.9544478604616919,1.059889228775832,1.1893462198695086,1.2210717259182198,1.2210717259182198,1.2349396010670086,1.2489115802358821,1.277150277502596,1.334671626252904,1.334671626252904,1.3932990627836856,1.42506167035469,1.4394927956451777,1.4394927956451777,1.4394927956451777,1.4394927956451777,1.4394927956451777,1.4394927956451777,1.4394927956451777,1.4394927956451777,1.4394927956451777,1.4394927956451777,1.4394927956451777,1.4394927956451777,1.4394927956451777,1.4394927956451777,1.4394927956451777,1.4394927956451777,1.525962658732045,1.651106529951764,1.651106529951764,1.8663585470991413,1.961046609894091,2.0221947725433926,2.0319933243342803,2.0319933243342803,2.0319933243