[{"nsides":6,"instructions":"Let's define a new operation <img src=\"./images/hexagon_symbol.png\" style=\"width:14px;height:14px\">. This operation will give us a way of combining two of the numbers 0, 1, 2, 3, 4, 5 to get another one of them back. Consider the hexagon at the right, where I've labeled each point with one of the numbers. To perform <img src=\"./images/hexagon_symbol.png\" style=\"width:14px;height:14px\">, you can use the interactive diagram on the right, or perform the operation in your mind. or perform the operation in your mind. Point the arrow at the first number on the hexagon, then move the arrow the second number of points clockwise around the hexagon. The number the arrow arrives at is your result. (The operation is called <img src=\"./images/hexagon_symbol.png\" style=\"width:14px;height:14px\"> because it uses the hexagon, which has 6 sides.) <br /><br />For example, 3 <img src=\"./images/hexagon_symbol.png\" style=\"width:14px;height:14px\"> 5 = 2,  because  5 steps clockwise from 3 on the hexagon brings us to 2. So 3 <img src=\"./images/hexagon_symbol.png\" style=\"width:14px;height:14px\"> 5 = 2.<br /><br />Similarly, 1 <img src=\"./images/hexagon_symbol.png\" style=\"width:14px;height:14px\"> 4 = 5, because 4 steps clockwise from 1 brings us to 5. <br /><br />Click \"Continue\" when you are ready to move on.","orientation_history":[0],"rt":232094,"trial_type":"polygon-arrow-instructions","trial_index":0,"trial_index_global":1,"time_elapsed":275424,"internal_chunk_id":"0-0"},{"nsides":6,"question":"Now try one on your own! What is 4 <img src=\"./images/hexagon_symbol.png\" style=\"width:14px;height:14px\"> 5? <br /><br /> (Remember, to perform <img src=\"./images/hexagon_symbol.png\" style=\"width:14px;height:14px\">, you can use the interactive diagram on the right, or perform the operation in your mind. Point the arrow at the first number on the hexagon, then move the arrow the second number of points clockwise around the h exagon.  The number the arrow arrives at is your result.)","response_type":"free","response_choices":[],"correct_response":"3","response":"3","orientation_history":[[0]],"response_history":["3"],"rt":9634,"trial_type":"polygon-arrow-question","trial_index":0,"trial_index_global":2,"time_elapsed":285061,"internal_chunk_id":"0-0.2-0"},{"nsides":6,"feedback":"Correct! 4 <img src=\"./images/hexagon_symbol.png\" style=\"width:14px;height:14px\"> 5 = 3 because 5 steps clockwise on the hexagon from 4 brings us to 3","orientation_history":[0],"rt":1635,"trial_type":"polygon-arrow-feedback","trial_index":0,"trial_index_global":3,"time_elapsed":286698,"internal_chunk_id":"0-0.2-0"},{"nsides":6,"question":"What is 3 <img src=\"./images/hexagon_symbol.png\" style=\"width:14px;height:14px\"> 2? <br /><br /> (Remember, to perform <img src=\"./images/hexagon_symbol.png\" style=\"width:14px;height:14px\">, you can use the interactive diagram on the right, or perform the operation in your mind. Point  the arr ow at the first number on the hexagon, then move the arrow the second number of points clockwise around the hexagon. The number the arrow arrives at is your result.)","response_type":"free","response_choices":[],"correct_response":"5","response":"5","orientation_history":[[0]],"response_history":["5"],"rt":5926,"trial_type":"polygon-arrow-question","trial_index":0,"trial_index_global":4,"time_elapsed":292625,"internal_chunk_id":"0-0.2-0"},{"nsides":6,"feedback":"Correct! 3 <img src=\"./images/hexagon_symbol.png\" style=\"width:14px;height:14px\"> 2 = 5 because 2 steps clockwise on the hexagon from 3 brings us to 5","orientation_history":[0],"rt":2345,"trial_type":"polygon-arrow-feedback","trial_index":0,"trial_index_global":5,"time_elapsed":294971,"internal_chunk_id":"0-0.2-0"},{"nsides":6,"question":"What is 1 <img src=\"./images/hexagon_symbol.png\" style=\"width:14px;height:14px\"> 5? <br /><br /> (Remember, to perform <img src=\"./images/hexagon_symbol.png\" style=\"width:14px;height:14px\">, you can use the interactive diagram on the right, or perform the operation in your mind. Point the arrow at the first number on the hexagon, then move the arrow the second number of points clockwise around the hexagon. The number the arrow arrives at is your result.)","response_type":"free","response_choices":[],"correct_response":"0","response":"0","orientation_history":[[0]],"response_history":["0"],"rt":6020,"trial_type":"polygon-arrow-question","trial_index":0,"trial_index_global":6,"time_elapsed":300993,"internal_chunk_id":"0-0.2-0"},{"nsides":6,"feedback":"Correct! 1 <img src=\"./images/hexagon_symbol.png\" style=\"width:14px;height:14px\"> 5 = 0 because 5 steps clockwise on the hexagon from 1 brings us to 0","orientation_history":[0],"rt":1375,"trial_type":"polygon-arrow-feedback","trial_index":0,"trial_index_global":7,"time_elapsed":302368,"internal_chunk_id":"0-0.2-0"},{"nsides":6,"question":"What is 1 <img src=\"./images/hexagon_symbol.png\" style=\"width:14px;height:14px\"> 1? <br /><br /> (Remember, to perform <img src=\"./images/hexagon_symbol.png\" style=\"width:14px;height:14px\">, you can use the interactive diagram on the right, or perform the operation in your mind. Point the arrow at the first number on the hexagon, then move the arrow the second number of points clockwise around the hexagon. The number the arrow arrives at is your result.)","response_type":"free","response_choices":[],"correct_response":"2","response":"2","orientation_history":[[0]],"response_history":["2"],"rt":3523,"trial_type":"polygon-arrow-question","trial_index":0,"trial_index_global":8,"time_elapsed":305892,"internal_chunk_id":"0-0.2-0"},{"nsides":6,"feedback":"Correct! 1 <img src=\"./images/hexagon_symbol.png\" style=\"width:14px;height:14px\"> 1 = 2 because 1 steps clockwise on the hexagon from 1 brings us to 2","orientation_history":[0],"rt":1263,"trial_type":"polygon-arrow-feedback","trial_index":0,"trial_index_global":9,"time_elapsed":307156,"internal_chunk_id":"0-0.2-0"},{"nsides":6,"question":"What is 3 <img src=\"./images/hexagon_symbol.png\" style=\"width:14px;height:14px\"> 0? <br /><br /> (Remember, to perform <img src=\"./images/hexagon_symbol.png\" style=\"width:14px;height:14px\">, you can use the interactive diagram on the right, or perform the operation in your mind. Point the arrow at the first number on the hexagon, then move the arrow the second number of points clockwise around the hexagon. The number the arrow arrives at is your result.)","response_type":"free","response_choices":[],"correct_response":"3","response":"3","orientation_history":[[0]],"response_history":["3"],"rt":4842,"trial_type":"polygon-arrow-question","trial_index":0,"trial_index_global":10,"time_elapsed":312000,"internal_chunk_id":"0-0.2-0"},{"nsides":6,"feedback":"Correct! 3 <img src=\"./images/hexagon_symbol.png\" style=\"width:14px;height:14px\"> 0 = 3 because 0 steps clockwise on the hexagon from 3 brings us to 3","orientation_history":[0],"rt":6782,"trial_type":"polygon-arrow-feedback","trial_index":0,"trial_index_global":11,"time_elapsed":318783,"internal_chunk_id":"0-0.2-0"},{"nsides":6,"question":"What is 4 <img src=\"./images/hexagon_symbol.png\" style=\"width:14px;height:14px\"> 4? <br /><br /> (Remember, to perform <img src=\"./images/hexagon_symbol.png\" style=\"width:14px;height:14px\">, you can use the interactive diagram on the right, or perform the operation in your mind. Point the arrow at the first number on the hexagon, then move the arrow the second number of points clockwise around the hexagon. The number the arrow arrives at is your result.)","response_type":"free","response_choices":[],"correct_response":"2","response":"2","orientation_history":[[0]],"response_history":["2"],"rt":4348,"trial_type":"polygon-arrow-question","trial_index":0,"trial_index_global":12,"time_elapsed":323132,"internal_chunk_id":"0-0.2-0"},{"nsides":6,"feedback":"Correct! 4 <img src=\"./images/hexagon_symbol.png\"  style=\"width:14px;height:14px\"> 4 = 2 because 4 steps clockwise on the hexagon from 4 brings us to 2","orientation_history":[0],"rt":1034,"trial_type":"polygon-arrow-feedback","trial_index":0,"trial_index_global":13,"time_elapsed":324167,"internal_chunk_id":"0-0.2-0"},{"nsides":6,"question":"What is 1 <img src=\"./images/hexagon_symbol.png\" style=\"width:14px;height:14px\"> 3? <br /><br /> (Remember, to perform <img src=\"./images/hexagon_symbol.png\" style=\"width:14px;height:14px\">, you can use the interactive diagram on the right, or perform the operation in your mind. Point the arrow at the first number on the hexagon, then move the arrow the second number of points clockwise around the hexagon. The number the arrow arrives at is your result.)","response_type":"free","response_choices":[],"correct_response":"4","response":"4","orientation_history":[[0]],"response_history":["4"],"rt":4293,"trial_type":"polygon-arrow-question","trial_index":0,"trial_index_global":14,"time_elapsed":328460,"internal_chunk_id":"0-0.2-0"},{"nsides":6,"feedback":"Correct! 1 <img src=\"./images/hexagon_symbol.png\" style=\"width:14px;height:14px\"> 3 = 4 because 3 steps clockwise on the hexagon from 1 brings us to 4","orientation_history":[0],"rt":1129,"trial_type":"polygon-arrow-feedback","trial_index":0,"trial_index_global":15,"time_elapsed":329590,"internal_chunk_id":"0-0.2-0"},{"nsides":6,"question":"What is 4 <img src=\"./images/hexagon_symbol.png\" style=\"width:14px;height:14px\"> 3? <br /><br /> (Remember, to perform <img src=\"./images/hexagon_symbol.png\" style=\"width:14px;height:14px\">, you can use the interactive diagram on the right, or perform the operation in your mind. Point the arrow at the first number on the hexagon, then move the arrow the second number of points clockwise around the hexagon. The number the arrow arrives at is your result.)","response_type":"free","response_choices":[],"correct_response":"1","response":"1","orientation_history":[[0]],"response_history":["1"],"rt":4807,"trial_type":"polygon-arrow-question","trial_index":0,"trial_index_global":16,"time_elapsed":334397,"internal_chunk_id":"0-0.2-0"},{"nsides":6,"feedback":"Correct! 4 <img src=\"./images/hexagon_symbol.png\" style=\"width:14px;height:14px\"> 3 = 1 because 3 steps clockwise on the hexagon from 4 brings us to 1","orientation_history":[0],"rt":1420,"trial_type":"polygon-arrow-feedback","trial_index":0,"trial_index_global":17,"time_elapsed":335818,"internal_chunk_id":"0-0.2-0"},{"nsides":6,"question":"What is 0 <img src=\"./images/hexagon_symbol.png\" style=\"width:14px;height:14px\"> 5? <br /><br /> (Remember, to perform <img src=\"./images/hexagon_symbol.png\" style=\"width:14px;height:14px\">, you can use the interactive diagram on the right, or perform the operation in your mind. Point the arrow at the first number on the hexagon, then move the arrow the second number of points clockwise around the hexagon. The number the arrow arrives at is your resul t.)","response_type":"free","response_choices":[],"correct_response":"5","response":"5","orientation_history":[[0]],"response_history":["5"],"rt":5158,"trial_type":"polygon-arrow-question","trial_index":0,"trial_index_global":18,"time_elapsed":340977,"internal_chunk_id":"0-0.2-0"},{"nsides":6,"feedback":"Correct! 0 <img src=\"./images/hexagon_symbol.png\" style=\"width:14px;height:14px\"> 5 = 5 because 5 steps clockwise on the hexagon from 0 brings us to 5","orientation_history":[0],"rt":1232,"trial_type":"polygon-arrow-feedback","trial_index":0,"trial_index_global":19,"time_elapsed":342211,"internal_chunk_id":"0-0.2-0"},{"nsides":6,"question":"What is 2 <img src=\"./images/hexagon_symbol.png\" style=\"width:14px;height:14px\"> 5? <br /><br /> (Remember, to perform <img src=\"./images/hexagon_symbol.png\" style=\"width:14px;height:14px\">, you can use the interactive diagram on the right, or perform the operation in your mind. Point the arrow at the first number on the hexagon, then  move th e arrow the second number of points clockwise around the hexagon. The number the arrow arrives at is your result.)","response_type":"free","response_choices":[],"correct_response":"1","response":"1","orientation_history":[[0]],"response_history":["1"],"rt":6053,"trial_type":"polygon-arrow-question","trial_index":0,"trial_index_global":20,"time_elapsed":348264,"internal_chunk_id":"0-0.2-0"},{"nsides":6,"feedback":"Correct! 2 <img src=\"./images/hexagon_symbol.png\" style=\"width:14px;height:14px\"> 5 = 1 because 5 steps clockwise on the hexagon from 2 brings us to 1","orientation_history":[0],"rt":1190,"trial_type":"polygon-arrow-feedback","trial_index":0,"trial_index_global":21,"time_elapsed":349455,"internal_chunk_id":"0-0.2-0"},{"nsides":6,"instructions":"Now we're going to discuss a couple special properties of this new operation, <img src=\"./images/hexagon_symbol.png\" style=\"width:14px;height:14px\"> that we've learned. First, notice that the number 0 behaves in a spe cial way  under <img src=\"./images/hexagon_symbol.png\" style=\"width:14px;height:14px\">. Whenever we combine 0 with anything else, we get that same thing back. We'll say that 0 is the <i>identity</i> under <img src=\"./images/hexagon_symbol.png\" style=\"width:14px;height:14px\">, because when you combine it with something it gives you that identical thing back.","orientation_history":[0],"rt":21372,"trial_type":"polygon-arrow-instructions","trial_index":0,"trial_index_global":22,"time_elapsed":370830,"internal_chunk_id":"0-0"},{"nsides":6,"instructions":"Now that we know 0 is the identity under <img src=\"./images/hexagon_symbol.png\" style=\"width:14px;height:14px\">, we're going to make a new definition. We'll say that the <i>inverse</i> of a number is the thing that you combine with it to produce the identity under our operation. For example, 5 <img src=\"./images/hexagon_symbol.png\" style=\"width:14px;height:14px\"> 1 = 0, so we say 1 is the inverse of 5 under <img src=\"./images/hexagon_symbol.png\" style=\"width:14px;height:14px\">, (remember 0 is the identity under <img src=\"./images/hexagon_symbol.png\" style=\"width:14px;height:14px\">). Similarly, 3 is its own inverse under <img src=\"./images/hexagon_symbol.png\" style=\"width:14px;height:14px\">, because 3 <img src=\"./images/hexagon_symbol.png\" style=\"width:14px;height:14px\"> 3 = 0.","orientation_history":[0],"rt":63058,"trial_type":"polygon-arrow-instructions","trial_index":0,"trial_index_global":23,"time_elapsed":433888,"internal_chunk_id":"0-0"},{"nsides":6,"question":"Now you try! What is the inverse of 4 under <img src=\"./images/hexagon_symbol.png\" style=\"width:14px;height:14px\">? <br /><br /> (Remember, the inverse of an element is the thing which you combine with it to produce the identity.)","response_type":"free","response_choices":[],"correct_response":"2","response":"2","orientation_history":[[0]],"response_history":["2"],"rt":11102,"trial_type":"polygon-arrow-question","trial_index":0,"trial_index_global":24,"time_elapsed":444991,"internal_chunk_id":"0-0.6-0"},{"nsides":6,"feedback":"Correct! The inverse of 4 under <img src=\"./images/hexagon_symbol.png\" style=\"width:14px;height:14px\"> is 2 because 2 steps clockwise on the hexagon from 4 brings us to 0, and 0 is the identity under <img src=\"./images/hexagon_symbol.png\" style=\"width:14px;height:14px\">.","orientation_history":[0],"rt":1395,"trial_type":"polygon-arrow-feedback","trial_index":0,"trial_index_global":25,"time_elapsed":446387,"internal_chunk_id":"0-0.6-0"},{"nsides":6,"question":"What is the inverse of 1 under <img src=\"./images/hexagon_symbol.png\" style=\"width:14px;height:14px\">? <br /><br /> (Remember, the inverse of an element is the thing which you combine with it to produce the identity.)","response_type":"free","response_choices":[],"correct_response":"5","response":"5","orientation_history":[[0]],"response_history":["5"],"rt":8352,"trial_type":"polygon-arrow-question","trial_index":0,"trial_index_global":26,"time_elapsed":454740,"internal_chunk_id":"0-0.6-0"},{"nsides":6,"feedback":"Correct! The inverse of 1 under <img src=\"./images/hexagon_symbol.png\" style=\"width:14px;height:14px\"> is 5 because 5 steps clockwise on the hexagon from 1 brings us to 0, and 0 is the identity under <img src=\"./images/hexagon_symbol.png\" style=\"width:14px;height:14px\">.","orientation_history":[0],"rt":993,"trial_type":"polygon-arrow-feedback","trial_index":0,"trial_index_global":27,"time_elapsed":455735,"internal_chunk_id":"0-0.6-0"},{"nsides":6,"question":"What is the inverse of 3 under <img src=\"./images/hexagon_symbol.png\" style=\"width:14px;height:14px\">? <br /><br /> (Remember, the inverse of an element is the thing which you combine with it to produce the identity.)","response_type":"free","response_choices":[],"correct_response":"3","response":"3","orientation_history":[[0]],"response_history":["3"],"rt":5331,"trial_type":"polygon-arrow-question","trial_index":0,"trial_index_global":28,"time_elapsed":461066,"internal_chunk_id":"0-0.6-0"},{"nsides":6,"feedback":"Correct! The inverse of 3 under <img src=\"./images/hexagon_symbol.png\" style=\"width:14px;height:14px\"> is 3 because 3 steps clockwise on the hexagon from 3 brings us to 0, and 0 is the identity under <img src=\"./images/hexagon_symbol.png\" style=\"width:14px;height:14px\">.","orientation_history":[0],"rt":1192,"trial_type":"polygon-arrow-feedback","trial_index":0,"trial_index_global":29,"time_elapsed":462259,"internal_chunk_id":"0-0.6-0"},{"nsides":6,"question":"What is the inverse of 2 under <img src=\"./images/hexagon_symbol.png\" style=\"width:14px;height:14px\">? <br /><br /> (Remember, the inverse of an element is the thing which you combine with it to produce the identity.)","response_type":"free","response_choices":[],"correct_response":"4","response":"4","orientation_history":[[0]],"response_history":["4"],"rt":7956,"trial_type":"polygon-arrow-question","trial_index":0,"trial_index_global":30,"time_elapsed":470216,"internal_chunk_id":"0-0.6-0"},{"nsides":6,"feedback":"Correct! The inverse of 2 under <img src=\"./images/hexagon_symbol.png\" style=\"width:14px;height:14px\"> is 4 because 4 steps clockwise on the hexagon from 2 brings us to 0, and 0 is the identity under <img src=\"./images/hexagon_symbol.png\" style=\"width:14px;height:14px\">.","orientation_history":[0],"rt":1293,"trial_type":"polygon-arrow-feedback","trial_index":0,"trial_index_global":31,"time_elapsed":471510,"internal_chunk_id":"0-0.6-0"},{"nsides":6,"question":"What is the inverse of 0 under <img src=\"./images/hexagon_symbol.png\" style=\"width:14px;height:14px\">? <br /><br /> (Remember, the inverse of an element is the thing which you combine with it to produce the identity.)","response_type":"free","response_choices":[],"correct_response":"0","response":"6","orientation_history":[[0]],"response_history":["6"],"rt":8505,"trial_type":"polygon-arrow-question","trial_index":0,"trial_index_global":32,"time_elapsed":480016,"internal_chunk_id":"0-0.6-0"},{"nsides":6,"feedback":"Sorry, that was incorrect. The inverse of 0 under <img src=\"./images/hexagon_symbol.png\" style=\"width:14px;height:14px\"> is 0 because 0 steps clockwise on the hexagon from 0 brings us to 0, and 0 is the identity under <img src=\"./images/hexagon_symbol.png\" style=\"width:14px;height:14px\">.","orientation_history":[0],"rt":11232,"trial_type":"polygon-arrow-feedback","trial_index":0,"trial_index_global":33,"time_elapsed":491249,"internal_chunk_id":"0-0.6-0"},{"nsides":6,"question":"Let's review: under <img src=\"./images/hexagon_symbol.png\" style=\"width:14px;height:14px\">, the inverse of 0 is 0, the inverse of 1 is 5 and the inverse of 5 is 1, the inverse of 2 is 4 and the inverse of 4 is 2, and finally the inverse of 3 is 3. Try playing with some of these pairs on the hexagon. Do you see a spatial relationship between an element and its inverse under <img src=\"./images/hexagon_symbol.png\" style=\"width:14px;height:14px\">?","response_type":"free","response_choices":[],"correct_response":"","response":"Each inverse set is across from one another (or the same point if it's 0 or 3)","orientation_history":[[0]],"response_history":["Each inverse set is across from one another (or the same point if it's 0 or 3)"],"rt":40892,"trial_type":"polygon-arrow-question","trial_index":0,"trial_index_global":34,"time_elapsed":532142,"internal_chunk_id":"0-0"},{"instructions":"It is also possible to successively apply <img src=\"./images/hexagon_symbol.png\" style=\"width:14px;height:14px\">, and the operation can simply be performed starting with the left-most pair. For example, 2 <img src=\"./images/hexagon_symbol.png\" style=\"width:14px;height:14px\"> 3 <img src=\"./images/hexagon_symbol.png\" style=\"width:14px;height:14px\"> 4 = 5 <img src=\"./images/hexagon_symbol.png\" style=\"width:14px;height:14px\"> 4 = 3.","rt":13575,"trial_type":"instructions","trial_index":0,"trial_index_global":35,"time_elapsed":545719,"internal_chunk_id":"0-0"},{"nsides":6,"instructions":"We have one last definition to learn today. Let's start with an example. Under our operation <img src=\"./images/hexagon_symbol.png\" style=\"width:14px;height:14px\"> we can make every other number using just 1: 2 = 1 <img src=\"./images/hexagon_symbol.png\" style=\"width:14px;height:14px\"> 1, 3 = 1 <img src=\"./images/hexagon_symbol.png\" style=\"width:14px;height:14px\"> 1 <img src=\"./images/hexagon_symbol.png\" style=\"width:14px;height:14px\"> 1, 4 = 1 <img src=\"./images/hexagon_symbol.png\" style=\"width:14px;height:14px\"> 1 <img src=\"./images/hexagon_symbol.png\" style=\"width:14px;height:14px\"> 1 <img src=\"./images/hexagon_symbol.png\" style=\"width:14px;height:14px\"> 1, 5 = 1 <img src=\"./images/hexagon_symbol.png\" style=\"width:14px;height:14px\"> 1 <img src=\"./images/hexagon_symbol.png\" style=\"width:14px;height:14px\"> 1 <img src=\"./images/hexagon_symbol.png\" style=\"width:14px;height:14px\"> 1 <img src=\"./images/hexagon_symbol.png\" style=\"width:14px;height:14px\"> 1, and 0 = 1 <img src=\"./images/hexagon_symbol.png\" style=\"width:14px;height:14px\"> 1 <img src=\"./images/hexagon_symbol.png\" style=\"width:14px;height:14px\"> 1 <img src=\"./images/hexagon_symbol.png\" style=\"width:14px;height:14px\"> 1 <img src=\"./images/hexagon_symbol.png\" style=\"width:14px;height:14px\"> 1 <img src=\"./images/hexagon_symbol.png\" style=\"width:14px;height:14px\"> 1. Because 1 can make every other element under <img src=\"./images/hexagon_symbol.png\" style=\"width:14px;height:14px\">, we say that 1 is a <i>generator</i> under <img src=\"./images/hexagon_symbol.png\" style=\"width:14px;height:14px\">. <br /><br /> However, 2 is not a generator under <img src=\"./images/hexagon_symbol.png\" style=\"width:14px;height:14px\">, because 4 = 2 <img src=\"./images/hexagon_symbol.png\" style=\"width:14px;height:14px\"> 2, and 0 = 2 <img src= \"./images/hexagon_symbol.png\" style=\"width:14px;height:14px\"> 2 <img src=\"./images/hexagon_symbol.png\" style=\"width:14px;height:14px\"> 2, but there is no way to make 1, 3, or 5 using just 2.","orientation_history":[0],"rt":43396,"trial_type":"polygon-arrow-instructions","trial_index":0,"trial_index_global":36,"time_elapsed":589115,"internal_chunk_id":"0-0"},{"nsides":6,"question":"Now you try! Is 3 a generator under <img src=\"./images/hexagon_symbol.png\" style=\"width:14px;height:14px\">? <br /><br /> (Remember, a generator is an element which can make every other element.)","response_type":"multi","response_choices":["Yes","No"],"correct_response":"No","response":"No","orientation_history":[[0]],"response_history":["No"],"rt":13314,"trial_type":"polygon-arrow-question","trial_index":0,"trial_index_global":37,"time_elapsed":602430,"internal_chunk_id":"0-0.10-0"},{"nsides":6,"feedback":"Correct! 3 is not a generator under <img src=\"./images/hexagon_symbol.png\" style=\"width:14px;height:14px\">, because 3 = 3, 0 = 3 <img src=\"./images/hexagon_symbol.png\" style=\"width:14px;height:14px\"> 3, but there is no way to make 1, 2, 4, or 5 using just 3.","orientation_history":[0],"rt":4309,"trial_type":"polygon-arrow-feedback","trial_index":0,"trial_index_global":38,"time_elapsed":606740,"internal_chunk_id":"0-0.10-0"},{"nsides":6,"question":"Is 5 a generator under <img src=\"./images/hexagon_symbol.png\" style=\"width:14px;height:14px\">? <br /><br /> (Remember, a generator is an element which can make every other element.)","response_type":"multi","response_choices":["Yes","No"],"correct_response":"Yes","response":"No","orientation_history":[[0]],"response_history":["No"],"rt":6696,"trial_type":"polygon-arrow-question","trial_index":0,"trial_index_global":39,"time_elapsed":613436,"internal_chunk_id":"0-0.10-0"},{"nsides":6,"feedback":"Sorry, that's incorrect. 5 is a generator under <img src=\"./images/hexagon_symbol.png\" style=\"width:14px;height:14px\" >, becau se 5 = 5, 4 = 5 <img src=\"./images/hexagon_symbol.png\" style=\"width:14px;height:14px\"> 5, 3 = 5 <img src=\"./images/hexagon_symbol.png\" style=\"width:14px;height:14px\"> 5 <img src=\"./images/hexagon_symbol.png\" style=\"width:14px;height:14px\"> 5, 2 = 5 <img src=\"./images/hexagon_symbol.png\" style=\"width:14px;height:14px\"> 5 <img src=\"./images/hexagon_symbol.png\" style=\"width:14px;height:14px\"> 5 <img src=\"./images/hexagon_symbol.png\" style=\"width:14px;height:14px\"> 5, 1 = 5 <img src=\"./images/hexagon_symbol.png\" style=\"width:14px;height:14px\"> 5 <img src=\"./images/hexagon_symbol.png\" style=\"width:14px;height:14px\"> 5 <img src=\"./images/hexagon_symbol.png\" style=\"width:14px;height:14px\"> 5 <img src=\"./images/hexagon_symbol.png\" style=\"width:14px;height:14px\"> 5, and 0 = 5 <img src=\"./images/hexagon_symbol.png\" style=\"width:14px;height:14px\"> 5 <img src=\"./images/hexagon_symbol.png\" style=\"width:14px;height:14px\"> 5 <img src=\"./images/hexagon_symbol.png\" style=\"width:14px;height:14px\"> 5 <img src=\"./images/hexagon_symbol.png\" style=\"width:14px;height:14px\"> 5 <img src=\"./images/hexagon_symbol.png\" style=\"width:14px;height:14px\"> 5, so you can make all of the numbers under <img src=\"./images/hexagon_symbol.png\" style=\"width:14px;height:14px\"> using 5","orientation_history":[0],"rt":19815,"trial_type":"polygon-arrow-feedback","trial_index":0,"trial_index_global":40,"time_elapsed":633252,"internal_chunk_id":"0-0.10-0"},{"nsides":6,"question":"Is 4 a generator under <img src=\"./images/hexagon_symbol.png\" style=\"width:14px;height:14px\">? <br /><br /> (Remember, a generator is an element which can make every other element.)","response_type":"multi","response_choices":["Yes","No"],"correct_response":"No","response":"No","orientation_history":[[0]],"response_history":["No"],"rt":26977,"trial_type":"polygon-arrow-question","trial_index":0,"trial_index_global":41,"time_elapsed":660231,"internal_chunk_id":"0-0 .10-0"},{"nsides":6,"feedback":"Correct! 4 is not a generator under <img src=\"./images/hexagon_symbol.png\" style=\"width:14px;height:14px\">, because 4 = 4, 2 = 4 <img src=\"./images/hexagon_symbol.png\" style=\"width:14px;height:14px\"> 4, and 0 = 4 <img src=\"./images/hexagon_symbol.png\" style=\"width:14px;height:14px\"> 4 <img src=\"./images/hexagon_symbol.png\" style=\"width:14px;height:14px\"> 4, but there is no way to make 1, 3, or 5 using just 4.","orientation_history":[0],"rt":2536,"trial_type":"polygon-arrow-feedback","trial_index":0,"trial_index_global":42,"time_elapsed":662768,"internal_chunk_id":"0-0.10-0"},{"nsides":6,"question":"Is 0 a generator under <img src=\"./images/hexagon_symbol.png\" style=\"width:14px;height:14px\">? <br /><br /> (Remember, a generator is an element which can make every other element.)","response_type":"multi","response_choices":["Yes","No"],"correct_response":"No","response":"Yes","orientation_history":[[0]],"response_history":["Ye s"],"rt":6079,"trial_type":"polygon-arrow-question","trial_index":0,"trial_index_global":43,"time_elapsed":668847,"internal_chunk_id":"0-0.10-0"},{"nsides":6,"feedback":"Sorry, that's incorrect. 0 is not a generator under <img src=\"./images/hexagon_symbol.png\" style=\"width:14px;height:14px\">, because 0 = 0, but there is no way to make 1, 2, 3, 4, or 5 using just 0.","orientation_history":[0],"rt":3204,"trial_type":"polygon-arrow-feedback","trial_index":0,"trial_index_global":44,"time_elapsed":672052,"internal_chunk_id":"0-0.10-0"},{"nsides":6,"question":"Let's review: under <img src=\"./images/hexagon_symbol.png\" style=\"width:14px;height:14px\">, 1 and 5 are generators. However, 0, 2, 3 and 4 are not generators. Try playing with these non-generators on the hexagon and seeing which elements each of them does generate (i.e. which elements you can get by combining each non-generator with itself repeatedly). Do you see spatial relationships among particular subsets of the elements  that ar e not generators under <img src=\"./images/hexagon_symbol.png\" style=\"width:14px;height:14px\">?","response_type":"free","response_choices":[],"correct_response":"","response":"The numbers that are not generators make triangles.","orientation_history":[[0]],"response_history":["The numbers that are not generators make triangles."],"rt":91567,"trial_type":"polygon-arrow-question","trial_index":0,"trial_index_global":45,"time_elapsed":763619,"internal_chunk_id":"0-0"},{"nsides":9,"instructions":"Now we are going to ask you some questions about a new operation, <img src=\"./images/nonagon_symbol.png\" style=\"width:14px;height:14px\">, on the numbers 0, 1, 2, 3, 4, 5, 6, 7, 8. It works exactly like <img src=\"./images/hexagon_symbol.png\" style=\"width:14px;height:14px\">, except now you use the nonagon shown at the right. <br /><br />We'll give you one practice question with feedback to make sure you understand the new operation. After that, try to complete the remaining que stions a s accurately as possible.","orientation_history":[0],"rt":10270,"trial_type":"polygon-arrow-instructions","trial_index":0,"trial_index_global":46,"time_elapsed":773890,"internal_chunk_id":"0-0"},{"nsides":9,"question":"Practice: What is 5 <img src=\"./images/nonagon_symbol.png\" style=\"width:14px;height:14px\"> 5?","response_type":"free","response_choices":[],"correct_response":"1","response":"1","orientation_history":[[0]],"response_history":["1"],"rt":5202,"trial_type":"polygon-arrow-question","trial_index":0,"trial_index_global":47,"time_elapsed":779093,"internal_chunk_id":"0-0.13-0"},{"nsides":9,"feedback":"Correct! 5 <img src=\"./images/nonagon_symbol.png\" style=\"width:14px;height:14px\"> 5 = 1 because 5 steps clockwise on the nonagon from 5 brings us to 1","orientation_history":[0],"rt":967,"trial_type":"polygon-arrow-feedback","trial_index":0,"trial_index_global":48,"time_elapsed":780061,"internal_chunk_id":"0-0.13-0"},{"nsides":9,"question":"What is 3 <img src=\"./images/nonagon_symbol.png\" style=\"width:14px;height:14px\"> 3?","response_type":"free","response_choices":[],"correct_response":"6","response":"6","orientation_history":[[0]],"response_history":["6"],"rt":4754,"trial_type":"polygon-arrow-question","trial_index":0,"trial_index_global":49,"time_elapsed":784816,"internal_chunk_id":"0-0.13-0"},{"nsides":9,"question":"What is 7 <img src=\"./images/nonagon_symbol.png\" style=\"width:14px;height:14px\"> 4?","response_type":"free","response_choices":[],"correct_response":"2","response":"2","orientation_history":[[0]],"response_history":["2"],"rt":5426,"trial_type":"polygon-arrow-question","trial_index":0,"trial_index_global":50,"time_elapsed":790243,"internal_chunk_id":"0-0.13-0"},{"nsides":9,"question":"What is 1 <img src=\"./images/nonagon_symbol.png\" style=\"width:14px;height:14px\"> 8?","response_type":"free","response_choices":[],"correct_response":"0","response":"0","orientation_history":[[0]],"response_history":["0"],"rt":6310,"trial_type":"polygon-arrow-question","trial_index":0,"trial_index_global":51,"time_elapsed":796554,"internal_chunk_id":"0-0.13-0"},{"nsides":9,"question":"What is 5 <img src=\"./images/nonagon_symbol.png\" style=\"width:14px;height:14px\"> 4?","response_type":"free","response_choices":[],"correct_response":"0","response":"0","orientation_history":[[0]],"response_history":["0"],"rt":4395,"trial_type":"polygon-arrow-question","trial_index":0,"trial_index_global":52,"time_elapsed":800949,"internal_chunk_id":"0-0.13-0"},{"nsides":9,"question":"What is 6 <img src=\"./images/nonagon_symbol.png\" style=\"width:14px;height:14px\"> 6?","response_type":"free","response_choices":[],"correct_response":"3","response":"3","orientation_history":[[0]],"response_history":["3"],"rt":6268,"trial_type":"polygon-arrow-question","trial_index":0,"trial_index_global":53,"time_elapsed":807218,"internal_chunk_id":"0-0.13-0"},{"nsides":9,"question":"What is 4 <img src=\"./images/nonagon_symbol.png\" style=\"width:14px;height:14px\"> 1? Please explain in words how you got your answer.","response_type":"free","response_choices":[],"correct_response":"","response":"5. I went over 1 clockwise from 4 to reach 5.","orientation_history":[[0]],"response_history":["5. I went clock","5. I went cloc","5. I went clo","5. I went cl","5. I went c","5. I went over 1 clockwise from 4 to reach 5."],"rt":22560,"trial_type":"polygon-arrow-question","trial_index":0,"trial_index_global":54,"time_elapsed":829779,"internal_chunk_id":"0-0.13-0"},{"nsides":9,"question":"What is 8 <img src=\"./images/nonagon_symbol.png\" style=\"width:14px;height:14px\"> 4? Please explain in words how you got your answer.","response_type":"free","response_choices":[],"correct_response":"","response":"3. I went 4 points around the nonagon clockwise.","orientation_history":[[0]],"response_history":["4","3. I went around the nonagon ","3. I went  around the nonagon ","3. I went 4 around the nonagon ","3. I went 4  around the nonagon  ","3. I  went 4 po around the nonagon ","3. I went 4 poin around the nonagon ","3. I went 4 point around the nonagon ","3. I went 4 points around the nonagon clockwise."],"rt":25427,"trial_type":"polygon-arrow-question","trial_index":0,"trial_index_global":55,"time_elapsed":855207,"internal_chunk_id":"0-0.13-0"},{"nsides":9,"question":"What is the identity under <img src=\"./images/nonagon_symbol.png\" style=\"width:14px;height:14px\">? Please explain in words how you got your answer.","response_type":"free","response_choices":[],"correct_response":"0","response":"0 is still the identity, because added to anything else, you get the same number back.","orientation_history":[[0]],"response_history":["0 is still the identiy, be","0 is still the identiy, b","0 is still the identiy, ","0 is still the identiy,","0 is still the identiy","0 is still the identi","0 is still the ident","0 is still the identity, because added to anything ele","0 is still the identity, because added to anything  else, y ou get the same number back."],"rt":42428,"trial_type":"polygon-arrow-question","trial_index":0,"trial_index_global":56,"time_elapsed":897636,"internal_chunk_id":"0-0.13-0"},{"nsides":9,"question":"What is the inverse of 5 under <img src=\"./images/nonagon_symbol.png\" style=\"width:14px;height:14px\">?","response_type":"free","response_choices":[],"correct_response":"4","response":"4","orientation_history":[[0]],"response_history":["4"],"rt":13581,"trial_type":"polygon-arrow-question","trial_index":0,"trial_index_global":57,"time_elapsed":911218,"internal_chunk_id":"0-0.13-0"},{"nsides":9,"question":"What is the inverse of 2 under <img src=\"./images/nonagon_symbol.png\" style=\"width:14px;height:14px\">?","response_type":"free","response_choices":[],"correct_response":"7","response":"7","orientation_history":[[0]],"response_history":["7"],"rt":9611,"trial_type":"polygon-arrow-question","trial_index":0,"trial_index_global":58,"time_elapsed":920829,"internal_chunk_id":"0-0.1 3-0"},{"nsides":9,"question":"What is the inverse of 3 under <img src=\"./images/nonagon_symbol.png\" style=\"width:14px;height:14px\">? Please explain in words how you got your answer.","response_type":"free","response_choices":[],"correct_response":"","response":"6. The inverse of 3 is the number that gets it to 0, which I needed to move 6 spaces clockwise to reach 0.","orientation_history":[[0]],"response_history":["6. The inverse of 3 is the number that gets it to 0, which I needed to move 6 spaces clockwise to reach 0."],"rt":26716,"trial_type":"polygon-arrow-question","trial_index":0,"trial_index_global":59,"time_elapsed":947546,"internal_chunk_id":"0-0.13-0"},{"nsides":9,"question":"Is 2 a generator under <img src=\"./images/nonagon_symbol.png\" style=\"width:14px;height:14px\">? Please explain in words how you got your answer.","response_type":"free","response_choices":[],"correct_response":"","response":"Yes. If 2 is added to each numbered point starting at 0, all the other  numbers  can be generated. ","orientation_history":[[0]],"response_history":["Yes. If 2 is added to eh","Yes. If 2 is added to e","Yes. If 2 is added to each number sta","Yes. If 2 is added to each numbered point a","Yes. If 2 is added to each numbered point starting at 0, all the other numbers can be generated. "],"rt":34194,"trial_type":"polygon-arrow-question","trial_index":0,"trial_index_global":60,"time_elapsed":981742,"internal_chunk_id":"0-0.13-0"},{"nsides":9,"question":"Is 3 a generator under <img src=\"./images/nonagon_symbol.png\" style=\"width:14px;height:14px\">? Please explain in words how you got your answer.","response_type":"free","response_choices":[],"correct_response":"","response":"No. Adding 3 to each numbered point starting at 0 does not generate all the other numbers.","orientation_history":[[0]],"response_history":["No. Adding 3 to ea","No. Adding 3 to e","No. Adding 3 to each numbered point a","No. Adding 3 to each numbered point starting at 0 does not gene rate all  the other numbers."],"rt":26473,"trial_type":"polygon-arrow-question","trial_index":0,"trial_index_global":61,"time_elapsed":1008216,"internal_chunk_id":"0-0.13-0"},{"nsides":9,"question":"Is 5 a generator under <img src=\"./images/nonagon_symbol.png\" style=\"width:14px;height:14px\">? Please explain in words how you got your answer.","response_type":"free","response_choices":[],"correct_response":"","response":"Yes, starting at point 0, moving 5 points clockwise will generate all the other numbers.","orientation_history":[[0]],"response_history":["Yes, starting at the point 0, adding 5","Yes, starting at the point 0, ","Yes, starting at the point 0, moving 5 points clockwise will generate all the other numbers.","Yes, starting at point 0, moving 5 points clockwise will generate all the other numbers."],"rt":32030,"trial_type":"polygon-arrow-question","trial_index":0,"trial_index_global":62,"time_elapsed":1040248,"internal_chunk_id":"0-0.13-0"},{"nsides":9,"question":"Is 6  a gener ator under <img src=\"./images/nonagon_symbol.png\" style=\"width:14px;height:14px\">? Please explain in words how you got your answer.","response_type":"free","response_choices":[],"correct_response":"","response":"No, adding 6 to the points starting at 0 will repeat the same numbers instead of generating all of them.","orientation_history":[[0]],"response_history":["No, adding 6 to the points starting at 0 will repeat the same numbers and not generate all of them.","No, adding 6 to the points starting at 0 will repeat the same numbers instead of generating all of them."],"rt":32871,"trial_type":"polygon-arrow-question","trial_index":0,"trial_index_global":63,"time_elapsed":1073119,"internal_chunk_id":"0-0.13-0"},{"nsides":"n","instructions":"Now we'd like to ask you some questions about <img src=\"./images/ngon_symbol.png\" style=\"width:14px;height:14px\">, where n could be any positive counting number. For example, n could be 3, and the polygon a triangle, or n could be  any othe r counting number you can think of. If you need to write the operation, you can use \"(n)\", and your answers can include n to stand in for the arbitrary value if necessary. (You can use the polygon at the right to think, but it doesn't necessarily correspond to the real polygon, which is why we've left most of it dashed.)","orientation_history":[0],"rt":17543,"trial_type":"polygon-arrow-instructions","trial_index":0,"trial_index_global":64,"time_elapsed":1090663,"internal_chunk_id":"0-0"},{"nsides":"n","question":"What is the formula for the inverse of 1 under <img src=\"./images/ngon_symbol.png\" style=\"width:14px;height:14px\">?","response_type":"free","response_choices":[],"correct_response":"n-1","response":"1 + (n - 1) = 0","orientation_history":[[0]],"response_history":["1 + (n - 1) = 9","1 + (n - 1) = 0"],"rt":36975,"trial_type":"polygon-arrow-question","trial_index":0,"trial_index_global":65,"time_elapsed":1127639,"internal_chunk_id":"0-0.15-0"},{"nsides":"n","question":"W hat is the formula for the inverse of an element x under <img src=\"./images/ngon_symbol.png\" style=\"width:14px;height:14px\">? Please explain in words why your answer is correct.","response_type":"free","response_choices":[],"correct_response":"n-x","response":"x + (n - x) = 0; you need to move n-x number of spaces in order to reach 0 and thus find the inverse.","orientation_history":[[0]],"response_history":["x + (n - x) = 0; you need to move n-x number of spaces in order to reach 0 and thus find the inverse."],"rt":67832,"trial_type":"polygon-arrow-question","trial_index":0,"trial_index_global":66,"time_elapsed":1195472,"internal_chunk_id":"0-0.15-0"},{"nsides":"n","question":"Is there a pattern to which elements are generators? How can you know if an element x is a generator under <img src=\"./images/ngon_symbol.png\" style=\"width:14px;height:14px\"> without seeing whether it can make all the elements?.","response_type":"free","response_choices":[],"correct_response":"","response":"I'm not sure. Perhaps if n is evenly divisible by x, it is not a generator, and if it's not, it is a generator.","orientation_history":[[0]],"response_history":["I'm not sure. Perhaps if f","I'm not sure. Perhaps if the num","I'm not sure. Perhaps if the nu","I'm not sure. Perhaps if the n","I'm not sure. Perhaps if the ","I'm not sure. Perhaps if the","I'm not sure. Perhaps if th","I'm not sure. Perhaps if t","I'm not sure. Perhaps if n is de","I'm not sure. Perhaps if n is d","I'm not sure. Perhaps if n is evenly divid","I'm not sure. Perhaps if n is evenly divisable ","I'm not sure. Perhaps if n is evenly divisable","I'm not sure. Perhaps if n is evenly divisabl","I'm not sure. Perhaps if n is evenly divisab","I'm not sure. Perhaps if n is evenly divisa","I'm not sure. Perhaps if n is evenly divis","I'm not sure. Perhaps if n is evenly divisable by x, it is not a generator.","I'm not sure. Perhaps if n is evenly d by x, it is not a generator.","I'm not sure. Perhap s if n i s evenly di by x, it is not a generator.","I'm not sure. Perhaps if n is evenly div by x, it is not a generator.","I'm not sure. Perhaps if n is evenly divi by x, it is not a generator.","I'm not sure. Perhaps if n is evenly divis by x, it is not a generator.","I'm not sure. Perhaps if n is evenly divisi by x, it is not a generator.","I'm not sure. Perhaps if n is evenly divisib by x, it is not a generator.","I'm not sure. Perhaps if n is evenly divisible by x, it is not a generator.","I'm not sure. Perhaps if n is evenly divisible  by x, it is not a generator.","I'm not sure. Perhaps if n is evenly divisible by x, it is not a generator.","I'm not sure. Perhaps if n is evenly divisible by x, it is not a generator, and if it's not, it is a generator."],"rt":64351,"trial_type":"polygon-arrow-question","trial_index":0,"trial_index_global":67,"time_elapsed":1259824,"internal_chunk_id":"0-0.15-0"},{"nsides":"n","question":"True or false: If x is an odd number, it must be a genera tor unde r <img src=\"./images/ngon_symbol.png\" style=\"width:14px;height:14px\">.","response_type":"multi","response_choices":["True","False"],"correct_response":"False","response":"False","orientation_history":[[0]],"response_history":["False"],"rt":6576,"trial_type":"polygon-arrow-question","trial_index":0,"trial_index_global":68,"time_elapsed":1266400,"internal_chunk_id":"0-0.15-0"},{"nsides":"n","question":"True or false: If x is an even number, it must not be a generator under <img src=\"./images/ngon_symbol.png\" style=\"width:14px;height:14px\">.","response_type":"multi","response_choices":["True","False"],"correct_response":"False","response":"False","orientation_history":[[0]],"response_history":["False"],"rt":3221,"trial_type":"polygon-arrow-question","trial_index":0,"trial_index_global":69,"time_elapsed":1269623,"internal_chunk_id":"0-0.15-0"},{"nsides":"n","question":"True or false: If x is not a generator under <img src=\"./images/ngon_symbol.png\" style=\"width:14px;height:14px\">, x must divide n.","response_type":"multi","response_choices":["True","False"],"correct_response":"False","response":"True","orientation_history":[[0]],"response_history":["True"],"rt":7492,"trial_type":"polygon-arrow-question","trial_index":0,"trial_index_global":70,"time_elapsed":1277116,"internal_chunk_id":"0-0.15-0"},{"nsides":"n","question":"True or false: If x is not a generator under <img src=\"./images/ngon_symbol.png\" style=\"width:14px;height:14px\">, x must be a multiple of a divisor of n. Please explain in words why your answer is correct.","response_type":"free","response_choices":[],"correct_response":"True","response":"A generator needs to generate every other number, but that's not possible if n is evenly divisible by x.","orientation_history":[[0]],"response_history":["A generator needs to generate every other number, but that's not possible for ","A generator needs to generate every other number, but that's not possible for","A generator needs to gen erate ev ery other number, but that's not possible fo","A generator needs to generate every other number, but that's not possible f","A generator needs to generate every other number, but that's not possible if n is even","A generator needs to generate every other number, but that's not possible if n is evenly divisible by x."],"rt":29902,"trial_type":"polygon-arrow-question","trial_index":0,"trial_index_global":71,"time_elapsed":1307021,"internal_chunk_id":"0-0.15-0"},{"nsides":"n","question":"If an element x is a generator under <img src=\"./images/ngon_symbol.png\" style=\"width:14px;height:14px\">, is its inverse a generator under <img src=\"./images/ngon_symbol.png\" style=\"width:14px;height:14px\"> always, sometimes, or never?","response_type":"multi","response_choices":["Always","Sometimes","Never"],"correct_response":"Always","response":"Sometimes","orientation_history":[[0]],"response_history":["Sometimes"],"rt":14804,"trial_type":"polygon-arrow-question","trial_index":0,"trial_index_global":72,"time_elapsed":1321826,"internal_chunk_id":"0-0.15-0"},{"nsides":"n","question":"If an element x is not a generator under <img src=\"./images/ngon_symbol.png\" style=\"width:14px;height:14px\">, is x <img src=\"./images/ngon_symbol.png\" style=\"width:14px;height:14px\"> x a generator under <img src=\"./images/ngon_symbol.png\" style=\"width:14px;height:14px\"> always, sometimes, or never?","response_type":"multi","response_choices":["Always","Sometimes","Never"],"correct_response":"Never","response":"Sometimes","orientation_history":[[0]],"response_history":["Sometimes"],"rt":25350,"trial_type":"polygon-arrow-question","trial_index":0,"trial_index_global":73,"time_elapsed":1347177,"internal_chunk_id":"0-0.15-0"},{"nsides":"n","question":"If an element x is a generator under <img src=\"./images/ngon_symbol.png\" style=\"width:14px;height:14px\">, is x <img src=\"./images/ngon_symbol.png\" style=\"width:14px;height:14px\"> x a generator under <img src=\"./images/ngon_symbol.png\" style=\"width:14px;height:14px\"> always, sometimes, or never? Please explain in words why your answer is correct.","response_type":"free","response_choices":[],"correct_response":"Sometimes","response":"I have no idea if my answer is correct. I'm having difficulty following this statement and understanding whether x(n)x is an expression.","orientation_history":[[0]],"response_history":["I have no idea if my answer is correct. I'm having difif","I have no idea if my answer is correct. I'm having difi","I have no idea if my answer is correct. I'm having difficulty following this statement and understanding whether x(n)x is a ","I have no idea if my answer is correct. I'm having difficulty following this statement and understanding whether x(n)x is an expression.a","I have no idea if my answer is correct. I'm having difficulty following this statement and understanding whether x(n)x is an expression."],"rt":26155,"trial_type":"polygon-arrow-question","trial_index":0,"trial_index_global":74,"time_elapsed":1373333,"internal_chunk_id":"0-0.15-0"},{"instructions":"We would like to ask you some questions about your background. Please press \"Continue\" to continue.","rt":1572,"trial_type":"instructions","trial_index":0,"trial_index_global":75,"time_elapsed":1374907,"internal_chunk_id":"0-0.16-0"},{"question":"What is your age?","response_type":"free","response_choices":[],"correct_response":"","response":"29","response_history":["29"],"rt":2206,"trial_type":"question","trial_index":0,"trial_index_global":76,"time_elapsed":1377115,"internal_chunk_id":"0-0.16-0"},{"question":"What is your level of education?","response_type":"multi","response_choices":["Did not graduate high school","High school diploma","Some college, no degree","Associates Degree","Bachelors Degree","Some graduate school, no degree","Masters Degree","Doctorate, M.D., etc."],"correct_response":"","response":"Some college, no degree","response_history":["Some college, no degree"],"rt":2681,"trial_type":"question","trial_index":0,"trial_index_global":77,"time_elapsed":1379797,"internal_chunk_id":"0-0.16-0"},{"question":"What is the most advanced math class you've completed? If you have multiple classes and you're not sure which one is most advanced, please list them.","response_type":"free","response_choices":[],"correct_response":"","response":"Precalculus","response_history":["Precalculus ","Precalculus"],"rt":5665,"trial_type":"question","trial_index":0,"trial_index_global":78,"time_elapsed":1385463,"internal_chunk_id":"0-0.16-0"},{"question":"How familiar are you with the concept of modular arithmetic?","response_type":"multi","response_choices":["1 - never heard of it","2 - heard of it but didn't know what it was","3 - seen it used or explained","4 - used it but not often or recently","5 - used it, remember and understand it"],"correct_response":"1","response":"1 - never heard of it","response_history":["1 - never heard of it"],"rt":4748,"trial_type":"quest ion","trial_index":0,"trial_index_global":79,"time_elapsed":1390212,"internal_chunk_id":"0-0.16-0"},{"question":"How familiar are you with the concept of a mathematical group?","response_type":"multi","response_choices":["1 - never heard of it","2 - heard of it but didn't know what it was","3 - seen it used or explained","4 - used it but not often or recently","5 - used it, remember and understand it"],"correct_response":"1","response":"2 - heard of it but didn't know what it was","response_history":["2 - heard of it but didn't know what it was"],"rt":4024,"trial_type":"question","trial_index":0,"trial_index_global":80,"time_elapsed":1394237,"internal_chunk_id":"0-0.16-0"},{"question":"Do you feel you learned something from this HIT?","response_type":"multi","response_choices":["1 - not at all","2 - somewhat","3 - definitely"],"correct_response":"1","response":"2 - somewhat","response_history":["2 - somewhat"],"rt":2639,"trial_type":"question","trial_index":0,"trial_index_global":81,"time_elapsed":1396877,"internal_chunk_id":"0-0.16-0"},{"question":"Do you feel you understood the concepts in this HIT?","response_type":"multi","response_choices":["1 - not at all","2 - somewhat","3 - definitely"],"correct_response":"1","response":"2 - somewhat","response_history":["2 - somewhat"],"rt":3076,"trial_type":"question","trial_index":0,"trial_index_global":82,"time_elapsed":1399954,"internal_chunk_id":"0-0.16-0"},{"question":"Did you enjoy this HIT?","response_type":"multi","response_choices":["1 - not at all","2 - somewhat","3 - definitely"],"correct_response":"1","response":"2 - somewhat","response_history":["2 - somewhat"],"rt":2392,"trial_type":"question","trial_index":0,"trial_index_global":83,"time_elapsed":1402348,"internal_chunk_id":"0-0.16-0"},{"question":"What is your gender?","response_type":"multi","response_choices":["Female","Male","Other"],"correct_response":"","response":"Female","response_history":["Female"],"rt":2147,"trial_type":"question","trial_index":0,"trial_index_global":84,"time_elapsed":1404495,"internal_chunk_id":"0-0.16-0"},{"question":"What is/are your native language(s)? (The languages spoken in your household when you were a child.)","response_type":"free","response_choices":[],"correct_response":"","response":"English","response_history":["English"],"rt":3324,"trial_type":"question","trial_index":0,"trial_index_global":85,"time_elapsed":1407820,"internal_chunk_id":"0-0.16-0"},{"question":"Did you use pen and paper at any point on this HIT?","response_type":"free","response_choices":[],"correct_response":"","response":"No","response_history":["No"],"rt":3064,"trial_type":"question","trial_index":0,"trial_index_global":86,"time_elapsed":1410885,"internal_chunk_id":"0-0.16-0"},{"question":"Do you have any comments on this HIT?","response_type":"free","response_choices":[],"correct_response":"","response":"","response_history":[],"rt":2250,"trial_type":"question","trial_index":0,"trial_index_global":87,"time_elapsed":1413136,"internal_chunk_id":"0-0.16-0"}]