[{"nsides":6,"instructions":"Let's define a new operation <img src=\"./images/hexagon_symbol.png\" style=\"width:14px;height:14px\">. This operation will give us a way of combining two of the numbers 0, 1, 2, 3, 4, 5 to get another one of them back. Consider the hexagon at the right, where I've labeled each point with one of the numbers. To perform <img src=\"./images/hexagon_symbol.png\" style=\"width:14px;height:14px\">, you can use the interactive diagram on the right, or perform the operation in your mind. or perform the operation in your mind. Point the arrow at the first number on the hexagon, then move the arrow the second number of points clockwise around the hexagon. The number the arrow arrives at is your result. (The operation is called <img src=\"./images/hexagon_symbol.png\" style=\"width:14px;height:14px\"> because it uses the hexagon, which has 6 sides.) <br /><br />For example, 3 <img src=\"./images/hexagon_symbol.png\" style=\"width:14px;height:14px\"> 5 = 2,  because  5 steps clockwise from 3 on the hexagon brings us to 2. So 3 <img src=\"./images/hexagon_symbol.png\" style=\"width:14px;height:14px\"> 5 = 2.<br /><br />Similarly, 1 <img src=\"./images/hexagon_symbol.png\" style=\"width:14px;height:14px\"> 4 = 5, because 4 steps clockwise from 1 brings us to 5. <br /><br />Click \"Continue\" when you are ready to move on.","orientation_history":[0],"rt":66798,"trial_type":"polygon-arrow-instructions","trial_index":0,"trial_index_global":1,"time_elapsed":683922,"internal_chunk_id":"0-0"},{"nsides":6,"question":"Now try one on your own! What is 4 <img src=\"./images/hexagon_symbol.png\" style=\"width:14px;height:14px\"> 5? <br /><br /> (Remember, to perform <img src=\"./images/hexagon_symbol.png\" style=\"width:14px;height:14px\">, you can use the interactive diagram on the right, or perform the operation in your mind. Point the arrow at the first number on the hexagon, then move the arrow the second number of points clockwise around the he xagon. T he number the arrow arrives at is your result.)","response_type":"free","response_choices":[],"correct_response":"3","response":"3","orientation_history":[[0]],"response_history":["3"],"rt":19187,"trial_type":"polygon-arrow-question","trial_index":0,"trial_index_global":2,"time_elapsed":703113,"internal_chunk_id":"0-0.2-0"},{"nsides":6,"feedback":"Correct! 4 <img src=\"./images/hexagon_symbol.png\" style=\"width:14px;height:14px\"> 5 = 3 because 5 steps clockwise on the hexagon from 4 brings us to 3","orientation_history":[0],"rt":2636,"trial_type":"polygon-arrow-feedback","trial_index":0,"trial_index_global":3,"time_elapsed":705752,"internal_chunk_id":"0-0.2-0"},{"nsides":6,"question":"What is 3 <img src=\"./images/hexagon_symbol.png\" style=\"width:14px;height:14px\"> 2? <br /><br /> (Remember, to perform <img src=\"./images/hexagon_symbol.png\" style=\"width:14px;height:14px\">, you can use the interactive diagram on the right, or perform the operation in your mind. Point  the arr ow at the first number on the hexagon, then move the arrow the second number of points clockwise around the hexagon. The number the arrow arrives at is your result.)","response_type":"free","response_choices":[],"correct_response":"5","response":"5","orientation_history":[[0]],"response_history":["5"],"rt":5863,"trial_type":"polygon-arrow-question","trial_index":0,"trial_index_global":4,"time_elapsed":711616,"internal_chunk_id":"0-0.2-0"},{"nsides":6,"feedback":"Correct! 3 <img src=\"./images/hexagon_symbol.png\" style=\"width:14px;height:14px\"> 2 = 5 because 2 steps clockwise on the hexagon from 3 brings us to 5","orientation_history":[0],"rt":1719,"trial_type":"polygon-arrow-feedback","trial_index":0,"trial_index_global":5,"time_elapsed":713336,"internal_chunk_id":"0-0.2-0"},{"nsides":6,"question":"What is 1 <img src=\"./images/hexagon_symbol.png\" style=\"width:14px;height:14px\"> 5? <br /><br /> (Remember, to perform <img src=\"./images/hexagon_symbol.png\" style=\"width:14px;height:14px\">, you can use the interactive diagram on the right, or perform the operation in your mind. Point the arrow at the first number on the hexagon, then move the arrow the second number of points clockwise around the hexagon. The number the arrow arrives at is your result.)","response_type":"free","response_choices":[],"correct_response":"0","response":"0","orientation_history":[[0]],"response_history":["0"],"rt":6032,"trial_type":"polygon-arrow-question","trial_index":0,"trial_index_global":6,"time_elapsed":719368,"internal_chunk_id":"0-0.2-0"},{"nsides":6,"feedback":"Correct! 1 <img src=\"./images/hexagon_symbol.png\" style=\"width:14px;height:14px\"> 5 = 0 because 5 steps clockwise on the hexagon from 1 brings us to 0","orientation_history":[0],"rt":1135,"trial_type":"polygon-arrow-feedback","trial_index":0,"trial_index_global":7,"time_elapsed":720505,"internal_chunk_id":"0-0.2-0"},{"nsides":6,"question":"What is 1 <img src=\"./images/hexagon_symbol.png\" style=\"width:14px;height:14px\"> 1? <br /><br /> (Remember, to perform <img src=\"./images/hexagon_symbol.png\" style=\"width:14px;height:14px\">, you can use the interactive diagram on the right, or perform the operation in your mind. Point the arrow at the first number on the hexagon, then move the arrow the second number of points clockwise around the hexagon. The number the arrow arrives at is your result.)","response_type":"free","response_choices":[],"correct_response":"2","response":"2","orientation_history":[[0]],"response_history":["2"],"rt":3951,"trial_type":"polygon-arrow-question","trial_index":0,"trial_index_global":8,"time_elapsed":724456,"internal_chunk_id":"0-0.2-0"},{"nsides":6,"feedback":"Correct! 1 <img src=\"./images/hexagon_symbol.png\" style=\"width:14px;height:14px\"> 1 = 2 because 1 steps clockwise on the hexagon from 1 brings us to 2","orientation_history":[0],"rt":975,"trial_type":"polygon-arrow-feedback","trial_index":0,"trial_index_global":9,"time_elapsed":725432,"internal_chunk_id":"0-0.2-0"},{"nsides":6,"question":"What is 3 <img src=\"./images/hexagon_symbol.png\" style=\"width:14px;height:14px\"> 0? <br /><br /> (Remember, to perform <img src=\"./images/hexagon_symbol.png\" style=\"width:14px;height:14px\">, you can use the interactive diagram on the right, or perform the operation in your mind. Point the arrow at the first number on the hexagon, then move the arrow the second number of points clockwise around the hexagon. The number the arrow arrives at is your result.)","response_type":"free","response_choices":[],"correct_response":"3","response":"3","orientation_history":[[0]],"response_history":["3"],"rt":4623,"trial_type":"polygon-arrow-question","trial_index":0,"trial_index_global":10,"time_elapsed":730056,"internal_chunk_id":"0-0.2-0"},{"nsides":6,"feedback":"Correct! 3 <img src=\"./images/hexagon_symbol.png\" style=\"width:14px;height:14px\"> 0 = 3 because 0 steps clockwise on the hexagon from 3 brings us to 3","orientation_history":[0],"rt":1088,"trial_type":"polygon-arrow-feedback","trial_index":0,"trial_index_global":11,"time_elapsed":731144,"internal_chunk_id":"0-0.2-0"},{"nsides":6,"question":"What is 4 <img src=\"./images/hexagon_symbol.png\" style=\"width:14px;height:14px\"> 4? <br /><br /> (Remember, to perform <img src=\"./images/hexagon_symbol.png\" style=\"width:14px;height:14px\">, you can use the interactive diagram on the right, or perform the operation in your mind. Point the arrow at the first number on the hexagon, then move the arrow the second number of points clockwise around the hexagon. The number the arrow arrives at is your result.)","response_type":"free","response_choices":[],"correct_response":"2","response":"2","orientation_history":[[0]],"response_history":["2"],"rt":4976,"trial_type":"polygon-arrow-question","trial_index":0,"trial_index_global":12,"time_elapsed":736121,"internal_chunk_id":"0-0.2-0"},{"nsides":6,"feedback":"Correct! 4 <img src=\"./images/hexagon_symbol.png\"  style=\"width:14px;height:14px\"> 4 = 2 because 4 steps clockwise on the hexagon from 4 brings us to 2","orientation_history":[0],"rt":983,"trial_type":"polygon-arrow-feedback","trial_index":0,"trial_index_global":13,"time_elapsed":737105,"internal_chunk_id":"0-0.2-0"},{"nsides":6,"question":"What is 1 <img src=\"./images/hexagon_symbol.png\" style=\"width:14px;height:14px\"> 3? <br /><br /> (Remember, to perform <img src=\"./images/hexagon_symbol.png\" style=\"width:14px;height:14px\">, you can use the interactive diagram on the right, or perform the operation in your mind. Point the arrow at the first number on the hexagon, then move the arrow the second number of points clockwise around the hexagon. The number the arrow arrives at is your result.)","response_type":"free","response_choices":[],"correct_response":"4","response":"4","orientation_history":[[0]],"response_history":["4"],"rt":5864,"trial_type":"polygon-arrow-question","trial_index":0,"trial_index_global":14,"time_elapsed":742969,"internal_chunk_id":"0-0.2-0"},{"nsides":6,"feedback":"Correct! 1 <img src=\"./images/hexagon_symbol.png\" style=\"width:14px;height:14px\"> 3 = 4 because 3 steps clockwise on the hexagon from 1 brings us to 4","orientation_history":[0],"rt":792,"trial_type":"polygon-arrow-feedback","trial_index":0,"trial_index_global":15,"time_elapsed":743761,"internal_chunk_id":"0-0.2-0"},{"nsides":6,"question":"What is 4 <img src=\"./images/hexagon_symbol.png\" style=\"width:14px;height:14px\"> 3? <br /><br /> (Remember, to perform <img src=\"./images/hexagon_symbol.png\" style=\"width:14px;height:14px\">, you can use the interactive diagram on the right, or perform the operation in your mind. Point the arrow at the first number on the hexagon, then move the arrow the second number of points clockwise around the hexagon. The number the arrow arrives at is your result.)","response_type":"free","response_choices":[],"correct_response":"1","response":"1","orientation_history":[[0]],"response_history":["1"],"rt":4648,"trial_type":"polygon-arrow-question","trial_index":0,"trial_index_global":16,"time_elapsed":748409,"internal_chunk_id":"0-0.2-0"},{"nsides":6,"feedback":"Correct! 4 <img src=\"./images/hexagon_symbol.png\" style=\"width:14px;height:14px\"> 3 = 1 because 3 steps clockwise on the hexagon from 4 brings us to 1","orientation_history":[0],"rt":1303,"trial_type":"polygon-arrow-feedback","trial_index":0,"trial_index_global":17,"time_elapsed":749712,"internal_chunk_id":"0-0.2-0"},{"nsides":6,"question":"What is 0 <img src=\"./images/hexagon_symbol.png\" style=\"width:14px;height:14px\"> 5? <br /><br /> (Remember, to perform <img src=\"./images/hexagon_symbol.png\" style=\"width:14px;height:14px\">, you can use the interactive diagram on the right, or perform the operation in your mind. Point the arrow at the first number on the hexagon, then move the arrow the second number of points clockwise around the hexagon. The number the arrow arrives at is your result.) ","response_type":"free","response_choices":[],"correct_response":"5","response":"5","orientation_history":[[0]],"response_history":["5"],"rt":6368,"trial_type":"polygon-arrow-question","trial_index":0,"trial_index_global":18,"time_elapsed":756081,"internal_chunk_id":"0-0.2-0"},{"nsides":6,"feedback":"Correct! 0 <img src=\"./images/hexagon_symbol.png\" style=\"width:14px;height:14px\"> 5 = 5 because 5 steps clockwise on the hexagon from 0 brings us to 5","orientation_history":[0],"rt":879,"trial_type":"polygon-arrow-feedback","trial_index":0,"trial_index_global":19,"time_elapsed":756961,"internal_chunk_id":"0-0.2-0"},{"nsides":6,"question":"What is 2 <img src=\"./images/hexagon_symbol.png\" style=\"width:14px;height:14px\"> 5? <br /><br /> (Remember, to perform <img src=\"./images/hexagon_symbol.png\" style=\"width:14px;height:14px\">, you can use the interactive diagram on the right, or perform the operation in your mind. Point the arrow at the first number on the hexagon, then mov e the ar row the second number of points clockwise around the hexagon. The number the arrow arrives at is your result.)","response_type":"free","response_choices":[],"correct_response":"1","response":"1","orientation_history":[[0]],"response_history":["1"],"rt":6158,"trial_type":"polygon-arrow-question","trial_index":0,"trial_index_global":20,"time_elapsed":763120,"internal_chunk_id":"0-0.2-0"},{"nsides":6,"feedback":"Correct! 2 <img src=\"./images/hexagon_symbol.png\" style=\"width:14px;height:14px\"> 5 = 1 because 5 steps clockwise on the hexagon from 2 brings us to 1","orientation_history":[0],"rt":863,"trial_type":"polygon-arrow-feedback","trial_index":0,"trial_index_global":21,"time_elapsed":763984,"internal_chunk_id":"0-0.2-0"},{"nsides":6,"instructions":"Now we're going to discuss a couple special properties of this new operation, <img src=\"./images/hexagon_symbol.png\" style=\"width:14px;height:14px\"> that we've learned. First, notice that the number 0 behaves in a special  way unde r <img src=\"./images/hexagon_symbol.png\" style=\"width:14px;height:14px\">. Whenever we combine 0 with anything else, we get that same thing back. We'll say that 0 is the <i>identity</i> under <img src=\"./images/hexagon_symbol.png\" style=\"width:14px;height:14px\">, because when you combine it with something it gives you that identical thing back.","orientation_history":[0],"rt":13336,"trial_type":"polygon-arrow-instructions","trial_index":0,"trial_index_global":22,"time_elapsed":777321,"internal_chunk_id":"0-0"},{"nsides":6,"instructions":"Now that we know 0 is the identity under <img src=\"./images/hexagon_symbol.png\" style=\"width:14px;height:14px\">, we're going to make a new definition. We'll say that the <i>inverse</i> of a number is the thing that you combine with it to produce the identity under our operation. For example, 5 <img src=\"./images/hexagon_symbol.png\" style=\"width:14px;height:14px\"> 1 = 0, so we say 1 is the inverse of 5 under <img src=\"./images/hexagon_symbol.png\" style=\"width:14px;height:14px\">, (remember 0 is the identity under <img src=\"./images/hexagon_symbol.png\" style=\"width:14px;height:14px\">). Similarly, 3 is its own inverse under <img src=\"./images/hexagon_symbol.png\" style=\"width:14px;height:14px\">, because 3 <img src=\"./images/hexagon_symbol.png\" style=\"width:14px;height:14px\"> 3 = 0.","orientation_history":[0],"rt":21081,"trial_type":"polygon-arrow-instructions","trial_index":0,"trial_index_global":23,"time_elapsed":798402,"internal_chunk_id":"0-0"},{"nsides":6,"question":"Now you try! What is the inverse of 4 under <img src=\"./images/hexagon_symbol.png\" style=\"width:14px;height:14px\">? <br /><br /> (Remember, the inverse of an element is the thing which you combine with it to produce the identity.)","response_type":"free","response_choices":[],"correct_response":"2","response":"2","orientation_history":[[0]],"response_history":["2"],"rt":6631,"trial_type":"polygon-arrow-question","trial_index":0,"trial_index_global":24,"time_elapsed":805033,"internal_chunk_id":"0-0.6-0"},{"nsides":6,"feedback":"Correct! The inverse of 4 under <img src=\"./images/hexagon_symbol.png\" style=\"width:14px;height:14px\"> is 2 because 2 steps clockwise on the hexagon from 4 brings us to 0, and 0 is the identity under <img src=\"./images/hexagon_symbol.png\" style=\"width:14px;height:14px\">.","orientation_history":[0],"rt":1680,"trial_type":"polygon-arrow-feedback","trial_index":0,"trial_index_global":25,"time_elapsed":806714,"internal_chunk_id":"0-0.6-0"},{"nsides":6,"question":"What is the inverse of 1 under <img src=\"./images/hexagon_symbol.png\" style=\"width:14px;height:14px\">? <br /><br /> (Remember, the inverse of an element is the thing which you combine with it to produce the identity.)","response_type":"free","response_choices":[],"correct_response":"5","response":"5","orientation_history":[[0]],"response_history":["5"],"rt":5775,"trial_type":"polygon-arrow-question","trial_index":0,"trial_index_global":26,"time_elapsed":812490,"internal_chunk_id":"0-0.6-0"},{"nsides":6,"feedback":"Correct! The inverse of 1 under <img src=\"./images/hexagon_symbol.png\" style=\"width:14px;height:14px\"> is 5 because 5 steps clockwise on the hexagon from 1 brings us to 0, and 0 is the identity under <img src=\"./images/hexagon_symbol.png\" style=\"width:14px;height:14px\">.","orientation_history":[0],"rt":1256,"trial_type":"polygon-arrow-feedback","trial_index":0,"trial_index_global":27,"time_elapsed":813746,"internal_chunk_id":"0-0.6-0"},{"nsides":6,"question":"What is the inverse of 3 under <img src=\"./images/hexagon_symbol.png\" style=\"width:14px;height:14px\">? <br /><br /> (Remember, the inverse of an element is the thing which you combine with it to produce the identity.)","response_type":"free","response_choices":[],"correct_response":"3","response":"3","orientation_history":[[0]],"response_history":["3"],"rt":3704,"trial_type":"polygon-arrow-question","trial_index":0,"trial_index_global":28,"time_elapsed":817450,"internal_chunk_id":"0-0.6-0"},{"nsides":6,"feedback":"Correct! The inverse of 3 under <img src=\"./images/hexagon_symbol.png\" style=\"width:14px;height:14px\"> is 3 because 3 steps clockwise on the hexagon from 3 brings us to 0, and 0 is the identity under <img src=\"./images/hexagon_symbol.png\" style=\"width:14px;height:14px\">.","orientation_history":[0],"rt":881,"trial_type":"polygon-arrow-feedback","trial_index":0,"trial_index_global":29,"time_elapsed":818331,"internal_chunk_id":"0-0.6-0"},{"nsides":6,"question":"What is the inverse of 2 under <img src=\"./images/hexagon_symbol.png\" style=\"width:14px;height:14px\">? <br /><br /> (Remember, the inverse of an element is the thing which you combine with it to produce the identity.)","response_type":"free","response_choices":[],"correct_response":"4","response":"4","orientation_history":[[0]],"response_history":["4"],"rt":5353,"trial_type":"polygon-arrow-question","trial_index":0,"trial_index_global":30,"time_elapsed":823684,"internal_chunk_id":"0-0.6-0"},{"nsides":6,"feedback":"Correct! The inverse of 2 under <img src=\"./images/hexagon_symbol.png\" style=\"width:14px;height:14px\"> is 4 because 4 steps clockwise on the hexagon from 2 brings us to 0, and 0 is the identity under <img src=\"./images/hexagon_symbol.png\" style=\"width:14px;height:14px\">.","orientation_history":[0],"rt":800,"trial_type":"polygon-arrow-feedback","trial_index":0,"trial_index_global":31,"time_elapsed":824484,"internal_chunk_id":"0-0.6-0"},{"nsides":6,"question":"What is the inverse of 0 under <img src=\"./images/hexagon_symbol.png\" style=\"width:14px;height:14px\">? <br /><br /> (Remember, the inverse of an element is the thing which you combine with it to produce the identity.)","response_type":"free","response_choices":[],"correct_response":"0","response":"0","orientation_history":[[0]],"response_history":["0"],"rt":4343,"trial_type":"polygon-arrow-question","trial_index":0,"trial_index_global":32,"time_elapsed":828827,"internal_chunk_id":"0-0.6-0"},{"nsides":6,"feedback":"Correct! The inverse of 0 under <img src=\"./images/hexagon_symbol.png\" style=\"width:14px;height:14px\"> is 0 because 0 steps clockwise on the hexagon from 0 brings us to 0, and 0 is the identity under <img src=\"./images/hexagon_symbol.png\" style=\"width:14px;height:14px\">.","orientation_history":[0],"rt":2440,"trial_type":"polygon-arrow-feedback","trial_index":0,"trial_index_global":33,"time_elapsed":831268,"internal_chunk_id":"0-0.6-0"},{"nsides":6,"question":"Let's review: under <img src=\"./images/hexagon_symbol.png\" style=\"width:14px;height:14px\">, the inverse of 0 is 0, the inverse of 1 is 5 and the inverse of 5 is 1, the inverse of 2 is 4 and the inverse of 4 is 2, and finally the inverse of 3 is 3. Try playing with some of these pairs on the hexagon. Do you see a spatial relationship between an element and its inverse under <img src=\"./images/hexagon_symbol.png\" sty le=\"width:14px;height:14px\">?","response_type":"free","response_choices":[],"correct_response":"","response":"Yes, there appears to be a relationship in which the inverse of a number is whatever number can be added to the other to total 6 which is how many sides the hexagon has. The one exception is for zero in which case the inverse is just zero as well.","orientation_history":[[0]],"response_history":["In each case the inverse totals to 6, except for 0 where the inverse is s","In each case the inverse totals to 6, except for 0 where the inverse is just 0","In each case the inverse totals to 6, except for 0 where the inverse is just ","In each case the inverse totals to 6, except for 0","In each case the inverse totals to 6, except for zero where the inverse is just zero.","Yes, there appears to be a relationship in which the inverse of a number is whatever number can be added to the other to total 6. The ","Yes, there appears to be a relationship in which the inverse of a number  is what ever number can be added to the other to total 6. The one exception is for zero in which case the inverse is just itse","Yes, there appears to be a relationship in which the inverse of a number is whatever number can be added to the other to total 6. The one exception is for zero in which case the inverse is just its","Yes, there appears to be a relationship in which the inverse of a number is whatever number can be added to the other to total 6. The one exception is for zero in which case the inverse is just it","Yes, there appears to be a relationship in which the inverse of a number is whatever number can be added to the other to total 6. The one exception is for zero in which case the inverse is just i","Yes, there appears to be a relationship in which the inverse of a number is whatever number can be added to the other to total 6. The one exception is for zero in which case the inverse is just zero as well.","Yes, there appears to be a relationship in which the inverse  of a num ber is whatever number can be added to the other to total 6 . The one exception is for zero in which case the inverse is just zero as well.","Yes, there appears to be a relationship in which the inverse of a number is whatever number can be added to the other to total 6 w. The one exception is for zero in which case the inverse is just zero as well.","Yes, there appears to be a relationship in which the inverse of a number is whatever number can be added to the other to total 6 wh. The one exception is for zero in which case the inverse is just zero as well.","Yes, there appears to be a relationship in which the inverse of a number is whatever number can be added to the other to total 6 whic. The one exception is for zero in which case the inverse is just zero as well.","Yes, there appears to be a relationship in which the inverse of a number is whatever number can be added to the other to total 6 which . The one exception is for zero in which case the inverse is just zero a s well.","Yes, there appears to be a relationship in which the inverse of a number is whatever number can be added to the other to total 6 which i. The one exception is for zero in which case the inverse is just zero as well.","Yes, there appears to be a relationship in which the inverse of a number is whatever number can be added to the other to total 6 which is. The one exception is for zero in which case the inverse is just zero as well.","Yes, there appears to be a relationship in which the inverse of a number is whatever number can be added to the other to total 6 which is . The one exception is for zero in which case the inverse is just zero as well.","Yes, there appears to be a relationship in which the inverse of a number is whatever number can be added to the other to total 6 which is ho. The one exception is for zero in which case the inverse is just zero as well.","Yes, there appears to be a relationship in which the inverse of a number is whatever number can be added to  the othe r to total 6 which is how. The one exception is for zero in which case the inverse is just zero as well.","Yes, there appears to be a relationship in which the inverse of a number is whatever number can be added to the other to total 6 which is how . The one exception is for zero in which case the inverse is just zero as well.","Yes, there appears to be a relationship in which the inverse of a number is whatever number can be added to the other to total 6 which is how m. The one exception is for zero in which case the inverse is just zero as well.","Yes, there appears to be a relationship in which the inverse of a number is whatever number can be added to the other to total 6 which is how ma. The one exception is for zero in which case the inverse is just zero as well.","Yes, there appears to be a relationship in which the inverse of a number is whatever number can be added to the other to total 6 which is how man. The one exception is for zero in which case the inverse is j ust zero  as well.","Yes, there appears to be a relationship in which the inverse of a number is whatever number can be added to the other to total 6 which is how many . The one exception is for zero in which case the inverse is just zero as well.","Yes, there appears to be a relationship in which the inverse of a number is whatever number can be added to the other to total 6 which is how many s. The one exception is for zero in which case the inverse is just zero as well.","Yes, there appears to be a relationship in which the inverse of a number is whatever number can be added to the other to total 6 which is how many si. The one exception is for zero in which case the inverse is just zero as well.","Yes, there appears to be a relationship in which the inverse of a number is whatever number can be added to the other to total 6 which is how many sid. The one exception is for zero in which case the inverse is just zero as well.","Yes, there appears to be a relationship in which the in verse of  a number is whatever number can be added to the other to total 6 which is how many side. The one exception is for zero in which case the inverse is just zero as well.","Yes, there appears to be a relationship in which the inverse of a number is whatever number can be added to the other to total 6 which is how many sides. The one exception is for zero in which case the inverse is just zero as well.","Yes, there appears to be a relationship in which the inverse of a number is whatever number can be added to the other to total 6 which is how many sides . The one exception is for zero in which case the inverse is just zero as well.","Yes, there appears to be a relationship in which the inverse of a number is whatever number can be added to the other to total 6 which is how many sides t. The one exception is for zero in which case the inverse is just zero as well.","Yes, there appears to be a relationship in which the inverse of a number is whatever number can be added to the ot her to t otal 6 which is how many sides the. The one exception is for zero in which case the inverse is just zero as well.","Yes, there appears to be a relationship in which the inverse of a number is whatever number can be added to the other to total 6 which is how many sides the . The one exception is for zero in which case the inverse is just zero as well.","Yes, there appears to be a relationship in which the inverse of a number is whatever number can be added to the other to total 6 which is how many sides the h. The one exception is for zero in which case the inverse is just zero as well.","Yes, there appears to be a relationship in which the inverse of a number is whatever number can be added to the other to total 6 which is how many sides the he. The one exception is for zero in which case the inverse is just zero as well.","Yes, there appears to be a relationship in which the inverse of a number is whatever number can be added to the other to total 6 which is how many sides  the hex.  The one exception is for zero in which case the inverse is just zero as well.","Yes, there appears to be a relationship in which the inverse of a number is whatever number can be added to the other to total 6 which is how many sides the hexa. The one exception is for zero in which case the inverse is just zero as well.","Yes, there appears to be a relationship in which the inverse of a number is whatever number can be added to the other to total 6 which is how many sides the hexag. The one exception is for zero in which case the inverse is just zero as well.","Yes, there appears to be a relationship in which the inverse of a number is whatever number can be added to the other to total 6 which is how many sides the hexago. The one exception is for zero in which case the inverse is just zero as well.","Yes, there appears to be a relationship in which the inverse of a number is whatever number can be added to the other to total 6 which is how many sides the hexagon. The one ex ception  is for zero in which case the inverse is just zero as well.","Yes, there appears to be a relationship in which the inverse of a number is whatever number can be added to the other to total 6 which is how many sides the hexagon . The one exception is for zero in which case the inverse is just zero as well.","Yes, there appears to be a relationship in which the inverse of a number is whatever number can be added to the other to total 6 which is how many sides the hexagon c. The one exception is for zero in which case the inverse is just zero as well.","Yes, there appears to be a relationship in which the inverse of a number is whatever number can be added to the other to total 6 which is how many sides the hexagon con. The one exception is for zero in which case the inverse is just zero as well.","Yes, there appears to be a relationship in which the inverse of a number is whatever number can be added to the other to total 6 which is how many sides the hexagon cont. The one exc eption i s for zero in which case the inverse is just zero as well.","Yes, there appears to be a relationship in which the inverse of a number is whatever number can be added to the other to total 6 which is how many sides the hexagon conta. The one exception is for zero in which case the inverse is just zero as well.","Yes, there appears to be a relationship in which the inverse of a number is whatever number can be added to the other to total 6 which is how many sides the hexagon cont. The one exception is for zero in which case the inverse is just zero as well.","Yes, there appears to be a relationship in which the inverse of a number is whatever number can be added to the other to total 6 which is how many sides the hexagon con. The one exception is for zero in which case the inverse is just zero as well.","Yes, there appears to be a relationship in which the inverse of a number is whatever number can be added to the other to total 6 which is how many sides the hexagon co. The on e except ion is for zero in which case the inverse is just zero as well.","Yes, there appears to be a relationship in which the inverse of a number is whatever number can be added to the other to total 6 which is how many sides the hexagon c. The one exception is for zero in which case the inverse is just zero as well.","Yes, there appears to be a relationship in which the inverse of a number is whatever number can be added to the other to total 6 which is how many sides the hexagon . The one exception is for zero in which case the inverse is just zero as well.","Yes, there appears to be a relationship in which the inverse of a number is whatever number can be added to the other to total 6 which is how many sides the hexagon h. The one exception is for zero in which case the inverse is just zero as well.","Yes, there appears to be a relationship in which the inverse of a number is whatever number can be added to the other to total 6 which is how many sides the hexagon ha. The one exc eption i s for zero in which case the inverse is just zero as well.","Yes, there appears to be a relationship in which the inverse of a number is whatever number can be added to the other to total 6 which is how many sides the hexagon has. The one exception is for zero in which case the inverse is just zero as well."],"rt":145772,"trial_type":"polygon-arrow-question","trial_index":0,"trial_index_global":34,"time_elapsed":977040,"internal_chunk_id":"0-0"},{"instructions":"It is also possible to successively apply <img src=\"./images/hexagon_symbol.png\" style=\"width:14px;height:14px\">, and the operation can simply be performed starting with the left-most pair. For example, 2 <img src=\"./images/hexagon_symbol.png\" style=\"width:14px;height:14px\"> 3 <img src=\"./images/hexagon_symbol.png\" style=\"width:14px;height:14px\"> 4 = 5 <img src=\"./images/hexagon_symbol.png\" style=\"width:14px;height:14px\"> 4 = 3.","rt":47927,"trial_type":"instructions","trial_index":0,"trial_index_global":35,"time_elapsed":1024968,"internal_chunk_id":"0-0"},{"nsides":6,"instructions":"We have one last definition to learn today. Let's start with an example. Under our operation <img src=\"./images/hexagon_symbol.png\" style=\"width:14px;height:14px\"> we can make every other number using just 1: 2 = 1 <img src=\"./images/hexagon_symbol.png\" style=\"width:14px;height:14px\"> 1, 3 = 1 <img src=\"./images/hexagon_symbol.png\" style=\"width:14px;height:14px\"> 1 <img src=\"./images/hexagon_symbol.png\" style=\"width:14px;height:14px\"> 1, 4 = 1 <img src=\"./images/hexagon_symbol.png\" style=\"width:14px;height:14px\"> 1 <img src=\"./images/hexagon_symbol.png\" style=\"width:14px;height:14px\"> 1 <img src=\"./images/hexagon_symbol.png\" style=\"width:14px;height:14px\"> 1, 5 = 1 <img src=\"./images/hexagon_symbol.png\" style=\"width:14px;height:14px\"> 1 <img src=\"./images/hexagon_symbol.png\" style=\"width:14px;height:14px\"> 1 <img src=\"./images/hexagon_symbol.png\" style=\"width:14px;height:14px\"> 1 <img src=\"./images/hexagon_symbol.png\" style=\"width:14px;height:14px\"> 1, and 0 = 1 <img src=\"./images/hexagon_symbol.png\" style=\"width:14px;height:14px\"> 1 <img src=\"./images/hexagon_symbol.png\" style=\"width:14px;height:14px\"> 1 <img src=\"./images/hexagon_symbol.png\" style=\"width:14px;height:14px\"> 1 <img src=\"./images/hexagon_symbol.png\" style=\"width:14px;height:14px\"> 1 <img src=\"./images/hexagon_symbol.png\" style=\"width:14px;height:14px\"> 1. Because 1 can make every other element under <img src=\"./images/hexagon_symbol.png\" style=\"width:14px;height:14px\">, we say that 1 is a <i>generator</i> under <img src=\"./images/hexagon_symbol.png\" style=\"width:14px;height:14px\">. <br /><br /> However, 2 is not a generator under <img src=\"./images/hexagon_symbol.png\" style=\"width:14px;height:14px\">, because 4 = 2 <img src=\"./images/hexagon_symbol.png\" style=\"width:14px;height:14px\"> 2, and 0 = 2 <img src=\"./images/hexagon_symbol.png\" sty le=\"width:14px;height:14px\"> 2 <img src=\"./images/hexagon_symbol.png\" style=\"width:14px;height:14px\"> 2, but there is no way to make 1, 3, or 5 using just 2.","orientation_history":[0],"rt":24422,"trial_type":"polygon-arrow-instructions","trial_index":0,"trial_index_global":36,"time_elapsed":1049391,"internal_chunk_id":"0-0"},{"nsides":6,"question":"Now you try! Is 3 a generator under <img src=\"./images/hexagon_symbol.png\" style=\"width:14px;height:14px\">? <br /><br /> (Remember, a generator is an element which can make every other element.)","response_type":"multi","response_choices":["Yes","No"],"correct_response":"No","response":"No","orientation_history":[[0]],"response_history":["No"],"rt":13001,"trial_type":"polygon-arrow-question","trial_index":0,"trial_index_global":37,"time_elapsed":1062393,"internal_chunk_id":"0-0.10-0"},{"nsides":6,"feedback":"Correct! 3 is not a generator under <img src=\"./images/hexagon_symbol.png\" style=\"width:14px;height:14px\">, b ecause 3  = 3, 0 = 3 <img src=\"./images/hexagon_symbol.png\" style=\"width:14px;height:14px\"> 3, but there is no way to make 1, 2, 4, or 5 using just 3.","orientation_history":[0],"rt":4296,"trial_type":"polygon-arrow-feedback","trial_index":0,"trial_index_global":38,"time_elapsed":1066689,"internal_chunk_id":"0-0.10-0"},{"nsides":6,"question":"Is 5 a generator under <img src=\"./images/hexagon_symbol.png\" style=\"width:14px;height:14px\">? <br /><br /> (Remember, a generator is an element which can make every other element.)","response_type":"multi","response_choices":["Yes","No"],"correct_response":"Yes","response":"Yes","orientation_history":[[0]],"response_history":["Yes"],"rt":9545,"trial_type":"polygon-arrow-question","trial_index":0,"trial_index_global":39,"time_elapsed":1076234,"internal_chunk_id":"0-0.10-0"},{"nsides":6,"feedback":"Correct! 5 is a generator under <img src=\"./images/hexagon_symbol.png\" style=\"width:14px;height:14px\">, because 5 = 5, 4 = 5 <img src=\"./images/hexagon_symbol.png\" style=\"width:14px;height:14px\"> 5, 3 = 5 <img src=\"./images/hexagon_symbol.png\" style=\"width:14px;height:14px\"> 5 <img src=\"./images/hexagon_symbol.png\" style=\"width:14px;height:14px\"> 5, 2 = 5 <img src=\"./images/hexagon_symbol.png\" style=\"width:14px;height:14px\"> 5 <img src=\"./images/hexagon_symbol.png\" style=\"width:14px;height:14px\"> 5 <img src=\"./images/hexagon_symbol.png\" style=\"width:14px;height:14px\"> 5, 1 = 5 <img src=\"./images/hexagon_symbol.png\" style=\"width:14px;height:14px\"> 5 <img src=\"./images/hexagon_symbol.png\" style=\"width:14px;height:14px\"> 5 <img src=\"./images/hexagon_symbol.png\" style=\"width:14px;height:14px\"> 5 <img src=\"./images/hexagon_symbol.png\" style=\"width:14px;height:14px\"> 5, and 0 = 5 <img src=\"./images/hexagon_symbol.png\" style=\"width:14px;height:14px\"> 5 <img src=\"./images/hexagon_symbol.png\" style=\"width:14px;height:14px\"> 5 <img src=\"./images/hexagon_symbol.png\" style=\"width:14px;height:14px\"> 5 <img src=\"./images/hexagon_symbol.png\" style=\"width:14px;height:14px\"> 5 <img src=\"./images/hexagon_symbol.png\" style=\"width:14px;height:14px\"> 5, so you can make all of the numbers under <img src=\"./images/hexagon_symbol.png\" style=\"width:14px;height:14px\"> using 5","orientation_history":[0],"rt":1751,"trial_type":"polygon-arrow-feedback","trial_index":0,"trial_index_global":40,"time_elapsed":1077985,"internal_chunk_id":"0-0.10-0"},{"nsides":6,"question":"Is 4 a generator under <img src=\"./images/hexagon_symbol.png\" style=\"width:14px;height:14px\">? <br /><br /> (Remember, a generator is an element which can make every other element.)","response_type":"multi","response_choices":["Yes","No"],"correct_response":"No","response":"No","orientation_history":[[0]],"response_history":["No"],"rt":10272,"trial_type":"polygon-arrow-question","trial_index":0,"trial_index_global":41,"time_elapsed":1088258,"internal_chunk_id":"0-0.10-0"},{"nsides":6,"feedback":"Corr ect! 4 is not a generator under <img src=\"./images/hexagon_symbol.png\" style=\"width:14px;height:14px\">, because 4 = 4, 2 = 4 <img src=\"./images/hexagon_symbol.png\" style=\"width:14px;height:14px\"> 4, and 0 = 4 <img src=\"./images/hexagon_symbol.png\" style=\"width:14px;height:14px\"> 4 <img src=\"./images/hexagon_symbol.png\" style=\"width:14px;height:14px\"> 4, but there is no way to make 1, 3, or 5 using just 4.","orientation_history":[0],"rt":998,"trial_type":"polygon-arrow-feedback","trial_index":0,"trial_index_global":42,"time_elapsed":1089257,"internal_chunk_id":"0-0.10-0"},{"nsides":6,"question":"Is 0 a generator under <img src=\"./images/hexagon_symbol.png\" style=\"width:14px;height:14px\">? <br /><br /> (Remember, a generator is an element which can make every other element.)","response_type":"multi","response_choices":["Yes","No"],"correct_response":"No","response":"No","orientation_history":[[0]],"response_history":["No"],"rt":3327,"trial_type":"polygon-ar row-ques tion","trial_index":0,"trial_index_global":43,"time_elapsed":1092585,"internal_chunk_id":"0-0.10-0"},{"nsides":6,"feedback":"Correct! 0 is not a generator under <img src=\"./images/hexagon_symbol.png\" style=\"width:14px;height:14px\">, because 0 = 0, but there is no way to make 1, 2, 3, 4, or 5 using just 0.","orientation_history":[0],"rt":1696,"trial_type":"polygon-arrow-feedback","trial_index":0,"trial_index_global":44,"time_elapsed":1094281,"internal_chunk_id":"0-0.10-0"},{"nsides":6,"question":"Let's review: under <img src=\"./images/hexagon_symbol.png\" style=\"width:14px;height:14px\">, 1 and 5 are generators. However, 0, 2, 3 and 4 are not generators. Try playing with these non-generators on the hexagon and seeing which elements each of them does generate (i.e. which elements you can get by combining each non-generator with itself repeatedly). Do you see spatial relationships among particular subsets of the elements that are not generators under <img src=\"./images/hexagon_symbol.png\" style=\"width:14px;height:14px\">?","response_type":"free","response_choices":[],"correct_response":"","response":"For 0 it never generates any new numbers. For 2 it generates each even number contained in the hexagon (0, 2, 4) or each odd number (1, 3, 5) depending on which number it starts at. For 3 it generates the number located on the opposite side of whichever number it starts from. For 4 it generates 3 different numbers on the hexagon depending on where it starts from which form a triangular relationship from the starting point.","orientation_history":[[0]],"response_history":["For 0 it never generates any new numbers. ","For 0 it never generates any new numbers.","For 0 it never generates any new numbers ","For 0 it never generates any new numbers. For 2 it generates each even number contained in the hea","For 0 it never generates any new numbers. For 2 it generates each even number contained in the hexagon (0, 2, 4). For 3","For 0 it never generates any  new numb ers. For 2 it generates each even number contained in the hexagon (0, 2, 4) or each odd number (1, 3, 5) depending on which number it starts at. For 3 it generates the number located on the opposite side of whichever number it starts from. For 4 it generates 3 different numbers depending on where it starts from which form a tir","For 0 it never generates any new numbers. For 2 it generates each even number contained in the hexagon (0, 2, 4) or each odd number (1, 3, 5) depending on which number it starts at. For 3 it generates the number located on the opposite side of whichever number it starts from. For 4 it generates 3 different numbers depending on where it starts from which form a ti","For 0 it never generates any new numbers. For 2 it generates each even number contained in the hexagon (0, 2, 4) or each odd number (1, 3, 5) depending on which number it starts at. For 3 it generates the number located on the opposite side of whichever number it starts from. For 4 it gen erates 3  different numbers depending on where it starts from which form a triangular relationship from the starting point.","For 0 it never generates any new numbers. For 2 it generates each even number contained in the hexagon (0, 2, 4) or each odd number (1, 3, 5) depending on which number it starts at. For 3 it generates the number located on the opposite side of whichever number it starts from. For 4 it generates 3 different numbers ondepending on where it starts from which form a triangular relationship from the starting point.","For 0 it never generates any new numbers. For 2 it generates each even number contained in the hexagon (0, 2, 4) or each odd number (1, 3, 5) depending on which number it starts at. For 3 it generates the number located on the opposite side of whichever number it starts from. For 4 it generates 3 different numbers on depending on where it starts from which form a triangular relationship from the starting point.","For 0 it never generates any new number s. For 2  it generates each even number contained in the hexagon (0, 2, 4) or each odd number (1, 3, 5) depending on which number it starts at. For 3 it generates the number located on the opposite side of whichever number it starts from. For 4 it generates 3 different numbers on tdepending on where it starts from which form a triangular relationship from the starting point.","For 0 it never generates any new numbers. For 2 it generates each even number contained in the hexagon (0, 2, 4) or each odd number (1, 3, 5) depending on which number it starts at. For 3 it generates the number located on the opposite side of whichever number it starts from. For 4 it generates 3 different numbers on thdepending on where it starts from which form a triangular relationship from the starting point.","For 0 it never generates any new numbers. For 2 it generates each even number contained in the hexagon (0, 2, 4) or each odd number (1, 3, 5) depending on which number it starts at. For 3 it generate s the nu mber located on the opposite side of whichever number it starts from. For 4 it generates 3 different numbers on the depending on where it starts from which form a triangular relationship from the starting point.","For 0 it never generates any new numbers. For 2 it generates each even number contained in the hexagon (0, 2, 4) or each odd number (1, 3, 5) depending on which number it starts at. For 3 it generates the number located on the opposite side of whichever number it starts from. For 4 it generates 3 different numbers on the hedepending on where it starts from which form a triangular relationship from the starting point.","For 0 it never generates any new numbers. For 2 it generates each even number contained in the hexagon (0, 2, 4) or each odd number (1, 3, 5) depending on which number it starts at. For 3 it generates the number located on the opposite side of whichever number it starts from. For 4 it generates 3 different numbers on the headepending on where it star ts from  which form a triangular relationship from the starting point.","For 0 it never generates any new numbers. For 2 it generates each even number contained in the hexagon (0, 2, 4) or each odd number (1, 3, 5) depending on which number it starts at. For 3 it generates the number located on the opposite side of whichever number it starts from. For 4 it generates 3 different numbers on the hexdepending on where it starts from which form a triangular relationship from the starting point.","For 0 it never generates any new numbers. For 2 it generates each even number contained in the hexagon (0, 2, 4) or each odd number (1, 3, 5) depending on which number it starts at. For 3 it generates the number located on the opposite side of whichever number it starts from. For 4 it generates 3 different numbers on the hexadepending on where it starts from which form a triangular relationship from the starting point.","For 0 it never generates any new numbers. For 2 it generates each even numbe r contai ned in the hexagon (0, 2, 4) or each odd number (1, 3, 5) depending on which number it starts at. For 3 it generates the number located on the opposite side of whichever number it starts from. For 4 it generates 3 different numbers on the hexagdepending on where it starts from which form a triangular relationship from the starting point.","For 0 it never generates any new numbers. For 2 it generates each even number contained in the hexagon (0, 2, 4) or each odd number (1, 3, 5) depending on which number it starts at. For 3 it generates the number located on the opposite side of whichever number it starts from. For 4 it generates 3 different numbers on the hexagondepending on where it starts from which form a triangular relationship from the starting point.","For 0 it never generates any new numbers. For 2 it generates each even number contained in the hexagon (0, 2, 4) or each odd number (1, 3, 5) depending on which number it starts at. For 3 it generates the number located  on the  opposite side of whichever number it starts from. For 4 it generates 3 different numbers on the hexagon depending on where it starts from which form a triangular relationship from the starting point."],"rt":203814,"trial_type":"polygon-arrow-question","trial_index":0,"trial_index_global":45,"time_elapsed":1298095,"internal_chunk_id":"0-0"},{"nsides":9,"instructions":"Now we are going to ask you some questions about a new operation, <img src=\"./images/nonagon_symbol.png\" style=\"width:14px;height:14px\">, on the numbers 0, 1, 2, 3, 4, 5, 6, 7, 8. It works exactly like <img src=\"./images/hexagon_symbol.png\" style=\"width:14px;height:14px\">, except now you use the nonagon shown at the right. <br /><br />We'll give you one practice question with feedback to make sure you understand the new operation. After that, try to complete the remaining questions as accurately as possible.","orientation_history":[0],"rt":14141,"trial_type":"polygon-arrow-instructions","trial_index":0,"trial_index_global":46,"time_elapsed":1312237,"internal_chunk_id":"0-0"},{"nsides":9,"question":"Practice: What is 5 <img src=\"./images/nonagon_symbol.png\" style=\"width:14px;height:14px\"> 5?","response_type":"free","response_choices":[],"correct_response":"1","response":"1","orientation_history":[[0]],"response_history":["1"],"rt":8568,"trial_type":"polygon-arrow-question","trial_index":0,"trial_index_global":47,"time_elapsed":1320806,"internal_chunk_id":"0-0.13-0"},{"nsides":9,"feedback":"Correct! 5 <img src=\"./images/nonagon_symbol.png\" style=\"width:14px;height:14px\"> 5 = 1 because 5 steps clockwise on the nonagon from 5 brings us to 1","orientation_history":[0],"rt":1895,"trial_type":"polygon-arrow-feedback","trial_index":0,"trial_index_global":48,"time_elapsed":1322702,"internal_chunk_id":"0-0.13-0"},{"nsides":9,"question":"What is 3 <img src=\"./images/nonagon_symbol.png\" style=\"width:14px;height:14px\"> 3?","response_type":"free","response_choices":[],"correct_response":"6","response":"6","orientation_history":[[0]],"response_history":["6"],"rt":5743,"trial_type":"polygon-arrow-question","trial_index":0,"trial_index_global":49,"time_elapsed":1328446,"internal_chunk_id":"0-0.13-0"},{"nsides":9,"question":"What is 7 <img src=\"./images/nonagon_symbol.png\" style=\"width:14px;height:14px\"> 4?","response_type":"free","response_choices":[],"correct_response":"2","response":"2","orientation_history":[[0]],"response_history":["2"],"rt":6080,"trial_type":"polygon-arrow-question","trial_index":0,"trial_index_global":50,"time_elapsed":1334527,"internal_chunk_id":"0-0.13-0"},{"nsides":9,"question":"What is 1 <img src=\"./images/nonagon_symbol.png\" style=\"width:14px;height:14px\"> 8?","response_type":"free","response_choices":[],"correct_response":"0","response":"0","orientation_history":[[0]],"response_history":["0"],"rt":8416,"trial_type":"polygon-arrow-question","trial_index":0,"trial_index_global":51,"time_elapsed":1342943,"internal_chunk_id":"0-0.1 3-0"},{"nsides":9,"question":"What is 5 <img src=\"./images/nonagon_symbol.png\" style=\"width:14px;height:14px\"> 4?","response_type":"free","response_choices":[],"correct_response":"0","response":"0","orientation_history":[[0]],"response_history":["0"],"rt":6944,"trial_type":"polygon-arrow-question","trial_index":0,"trial_index_global":52,"time_elapsed":1349887,"internal_chunk_id":"0-0.13-0"},{"nsides":9,"question":"What is 6 <img src=\"./images/nonagon_symbol.png\" style=\"width:14px;height:14px\"> 6?","response_type":"free","response_choices":[],"correct_response":"3","response":"3","orientation_history":[[0]],"response_history":["3"],"rt":5991,"trial_type":"polygon-arrow-question","trial_index":0,"trial_index_global":53,"time_elapsed":1355879,"internal_chunk_id":"0-0.13-0"},{"nsides":9,"question":"What is 4 <img src=\"./images/nonagon_symbol.png\" style=\"width:14px;height:14px\"> 1? Please explain in words how you got your answer.","response_type":"free","response_choices":[],"correct_response":"","response":"The answer is 5. I moved 1 position clockwise to determine the answer.","orientation_history":[[0]],"response_history":["5. I moved one position ","5. I moved 1 position clockwise around the nonagon.","5. I moved 1 position clockwise around the n","5. I moved 1 position clockwise a","5. I moved 1 position clockwise ","5. I moved 1 position clockwise to determine the answer.","5 I moved 1 position clockwise to determine the answer.","5; I moved 1 position clockwise to determine the answer.","5 I moved 1 position clockwise to determine the answer.","5, I moved 1 position clockwise to determine the answer.","T I moved 1 position clockwise to determine the answer.","Th I moved 1 position clockwise to determine the answer.","The I moved 1 position clockwise to determine the answer.","The a I moved 1 position clockwise to determine the answer.","The ans I moved 1 position clockwise to determine the answer.","The answe I moved 1 position clockwise to deter mine the  answer.","The answer I moved 1 position clockwise to determine the answer.","The answer  I moved 1 position clockwise to determine the answer.","The answer is I moved 1 position clockwise to determine the answer.","The answer is  I moved 1 position clockwise to determine the answer.","The answer is 5 I moved 1 position clockwise to determine the answer.","The answer is 5. I moved 1 position clockwise to determine the answer."],"rt":65978,"trial_type":"polygon-arrow-question","trial_index":0,"trial_index_global":54,"time_elapsed":1421858,"internal_chunk_id":"0-0.13-0"},{"nsides":9,"question":"What is 8 <img src=\"./images/nonagon_symbol.png\" style=\"width:14px;height:14px\"> 4? Please explain in words how you got your answer.","response_type":"free","response_choices":[],"correct_response":"","response":"The answer is 3. I moved 4 positions clockwise to determine the answer.","orientation_history":[[0]],"response_history":["The answer is 3. I moved 4 positions clockwise to  determin e the answer."],"rt":23796,"trial_type":"polygon-arrow-question","trial_index":0,"trial_index_global":55,"time_elapsed":1445657,"internal_chunk_id":"0-0.13-0"},{"nsides":9,"question":"What is the identity under <img src=\"./images/nonagon_symbol.png\" style=\"width:14px;height:14px\">? Please explain in words how you got your answer.","response_type":"free","response_choices":[],"correct_response":"0","response":"The identity is 0, because each number will be represented by itself when using this number.","orientation_history":[[0]],"response_history":["The identity is 0, because each number will be represented by itself when combined with the","The identity is 0, because each number will be represented by itself when co","The identity is 0, because each number will be represented by itself when c","The identity is 0, because each number will be represented by itself when using the number ","The identity is 0, because each number will be represented by itself when using the","The id entity is 0, because each number will be represented by itself when using th","The identity is 0, because each number will be represented by itself when using t","The identity is 0, because each number will be represented by itself when using this number."],"rt":105706,"trial_type":"polygon-arrow-question","trial_index":0,"trial_index_global":56,"time_elapsed":1551364,"internal_chunk_id":"0-0.13-0"},{"nsides":9,"question":"What is the inverse of 5 under <img src=\"./images/nonagon_symbol.png\" style=\"width:14px;height:14px\">?","response_type":"free","response_choices":[],"correct_response":"4","response":"4","orientation_history":[[0]],"response_history":["4"],"rt":10784,"trial_type":"polygon-arrow-question","trial_index":0,"trial_index_global":57,"time_elapsed":1562149,"internal_chunk_id":"0-0.13-0"},{"nsides":9,"question":"What is the inverse of 2 under <img src=\"./images/nonagon_symbol.png\" style=\"width:14px;height:14px\">?","response_type":"free","response_choices":[],"correct_response":"7","response":"7","orientation_history":[[0]],"response_history":["7"],"rt":35015,"trial_type":"polygon-arrow-question","trial_index":0,"trial_index_global":58,"time_elapsed":1597165,"internal_chunk_id":"0-0.13-0"},{"nsides":9,"question":"What is the inverse of 3 under <img src=\"./images/nonagon_symbol.png\" style=\"width:14px;height:14px\">? Please explain in words how you got your answer.","response_type":"free","response_choices":[],"correct_response":"","response":"The inverse is 6. In order to reach 0 you must move 6 positions clockwise from 3.","orientation_history":[[0]],"response_history":["6","The inverse is 6. In order to reach 0 you must move 6 positions clockwise from 3."],"rt":42240,"trial_type":"polygon-arrow-question","trial_index":0,"trial_index_global":59,"time_elapsed":1639406,"internal_chunk_id":"0-0.13-0"},{"nsides":9,"question":"Is 2 a generator under <img src=\"./images/nonagon_symbol.png\" style=\"width:14px;height:14px\">? Please expla in in wo rds how you got your answer.","response_type":"free","response_choices":[],"correct_response":"","response":"No, because moving 2 positions will never reach every number within the shape no matter where you start from so it is not a generator.","orientation_history":[[0]],"response_history":["No, because this s","No, because t","No, because moving ","No, because moving 2 positions will never reach every number within the shape no matter where you start from so it is not a generator."],"rt":36648,"trial_type":"polygon-arrow-question","trial_index":0,"trial_index_global":60,"time_elapsed":1676055,"internal_chunk_id":"0-0.13-0"},{"nsides":9,"question":"Is 3 a generator under <img src=\"./images/nonagon_symbol.png\" style=\"width:14px;height:14px\">? Please explain in words how you got your answer.","response_type":"free","response_choices":[],"correct_response":"","response":"No, because moving 3 positions clockwise will only reach 3 locations within the shape so it will not ge nerate e ach number.","orientation_history":[[0]],"response_history":["No, because moving 3 positions clockwise will only reach 3 ocat","No, because moving 3 positions clockwise will only reach 3 oca","No, because moving 3 positions clockwise will only reach 3 oc","No, because moving 3 positions clockwise will only reach 3 o","No, because moving 3 positions clockwise will only reach 3 locations within the shape so it will not generate each number."],"rt":33009,"trial_type":"polygon-arrow-question","trial_index":0,"trial_index_global":61,"time_elapsed":1709065,"internal_chunk_id":"0-0.13-0"},{"nsides":9,"question":"Is 5 a generator under <img src=\"./images/nonagon_symbol.png\" style=\"width:14px;height:14px\">? Please explain in words how you got your answer.","response_type":"free","response_choices":[],"correct_response":"","response":"Yes, because eventually moving 5 positions clockwise will eventually generate each number 0-8 no matter the starting position.","orientation_history":[[0]],"response_history":["Yes, because eventually moving 5 positions clockwise will eventually reach ever","Yes, because eventually moving 5 positions clockwise will eventually rea","Yes, because eventually moving 5 positions clockwise will eventually re","Yes, because eventually moving 5 positions clockwise will eventually r","Yes, because eventually moving 5 positions clockwise will eventually generate each number 0-8 ","Yes, because eventually moving 5 positions clockwise will eventually generate each number 0-8.","Yes, because eventually moving 5 positions clockwise will eventually generate each number 0-8 no matter where you start","Yes, because eventually moving 5 positions clockwise will eventually generate each number 0-8 no matter where you star","Yes, because eventually moving 5 positions clockwise will eventually generate each number 0-8 no matter whe","Yes, because eventually moving 5 positions clockwise will eventually generate each number 0-8 no matter wh","Yes, bec ause eve ntually moving 5 positions clockwise will eventually generate each number 0-8 no matter w","Yes, because eventually moving 5 positions clockwise will eventually generate each number 0-8 no matter the starting position."],"rt":44128,"trial_type":"polygon-arrow-question","trial_index":0,"trial_index_global":62,"time_elapsed":1753194,"internal_chunk_id":"0-0.13-0"},{"nsides":9,"question":"Is 6 a generator under <img src=\"./images/nonagon_symbol.png\" style=\"width:14px;height:14px\">? Please explain in words how you got your answer.","response_type":"free","response_choices":[],"correct_response":"","response":"No, because moving 6 positions clockwile will only reach a few numbers so it cannot generate each number.","orientation_history":[[0]],"response_history":["No, because 6 wi","No, because 6 w","No, because 6 ","No, because 6","No, because moving 6 positions will only reach a few numbers so it cannot generate each number from","No, because moving 6 positions will only rea ch a few  numbers so it cannot generate each number fro","No, because moving 6 positions will only reach a few numbers so it cannot generate each number fr","No, because moving 6 positions will only reach a few numbers so it cannot generate each number f","No, because moving 6 positions will only reach a few numbers so it cannot generate each number ","No, because moving 6 positions will only reach a few numbers so it cannot generate each number.","No, because moving 6 positions  will only reach a few numbers so it cannot generate each number.","No, because moving 6 positions cl will only reach a few numbers so it cannot generate each number.","No, because moving 6 positions clo will only reach a few numbers so it cannot generate each number.","No, because moving 6 positions cloc will only reach a few numbers so it cannot generate each number.","No, because moving 6 positions clock will only reach a few numbers so it cannot generate each number.","No, because moving 6 positions clock w will o nly reach a few numbers so it cannot generate each number.","No, because moving 6 positions clockwi will only reach a few numbers so it cannot generate each number.","No, because moving 6 positions clockwile will only reach a few numbers so it cannot generate each number."],"rt":40465,"trial_type":"polygon-arrow-question","trial_index":0,"trial_index_global":63,"time_elapsed":1793659,"internal_chunk_id":"0-0.13-0"},{"nsides":"n","instructions":"Now we'd like to ask you some questions about <img src=\"./images/ngon_symbol.png\" style=\"width:14px;height:14px\">, where n could be any positive counting number. For example, n could be 3, and the polygon a triangle, or n could be any other counting number you can think of. If you need to write the operation, you can use \"(n)\", and your answers can include n to stand in for the arbitrary value if necessary. (You can use the polygon at the right to think, but it doesn't necessarily correspond to the real polygon, which is why we' ve left  most of it dashed.)","orientation_history":[0],"rt":19544,"trial_type":"polygon-arrow-instructions","trial_index":0,"trial_index_global":64,"time_elapsed":1813204,"internal_chunk_id":"0-0"},{"nsides":"n","question":"What is the formula for the inverse of 1 under <img src=\"./images/ngon_symbol.png\" style=\"width:14px;height:14px\">?","response_type":"free","response_choices":[],"correct_response":"n-1","response":"n-1","orientation_history":[[0]],"response_history":["1","n - 1","n - ","n -","n ","n","n-1"],"rt":79610,"trial_type":"polygon-arrow-question","trial_index":0,"trial_index_global":65,"time_elapsed":1892814,"internal_chunk_id":"0-0.15-0"},{"nsides":"n","question":"What is the formula for the inverse of an element x under <img src=\"./images/ngon_symbol.png\" style=\"width:14px;height:14px\">? Please explain in words why your answer is correct.","response_type":"free","response_choices":[],"correct_response":"n-x","response":"The inverse is x-n, because each number  will rea ch the inverse by subtracting n from itself in order to reach 0.","orientation_history":[[0]],"response_history":["The inverse is x-n, where","The inverse is x-n, wher","The inverse is x-n, whe","The inverse is x-n, wh","The inverse is x-n, w","The inverse is x-n, because each number will reach the inverse by subtracting n from itself in order to reach 0."],"rt":50721,"trial_type":"polygon-arrow-question","trial_index":0,"trial_index_global":66,"time_elapsed":1943536,"internal_chunk_id":"0-0.15-0"},{"nsides":"n","question":"Is there a pattern to which elements are generators? How can you know if an element x is a generator under <img src=\"./images/ngon_symbol.png\" style=\"width:14px;height:14px\"> without seeing whether it can make all the elements?.","response_type":"free","response_choices":[],"correct_response":"","response":"An element x is a generator if it is not a prime number under n so that it can reach all of the elements.","orientation_history":[[0]],"response_history":["An element x is a gnere","An element x is a gner","An element x is a gne","An element x is a gn","An element x is a generator if it is not a prime number under n.","An element x is a generator if it is not a prime number under n so that it can reach all of the elements."],"rt":48647,"trial_type":"polygon-arrow-question","trial_index":0,"trial_index_global":67,"time_elapsed":1992184,"internal_chunk_id":"0-0.15-0"},{"nsides":"n","question":"True or false: If x is an odd number, it must be a generator under <img src=\"./images/ngon_symbol.png\" style=\"width:14px;height:14px\">.","response_type":"multi","response_choices":["True","False"],"correct_response":"False","response":"False","orientation_history":[[0]],"response_history":["False"],"rt":9296,"trial_type":"polygon-arrow-question","trial_index":0,"trial_index_global":68,"time_elapsed":2001480,"internal_chunk_id":"0-0.15-0"},{"nsides":"n","question":"True or false: If x is an even number, it must not be a generator under  <img sr c=\"./images/ngon_symbol.png\" style=\"width:14px;height:14px\">.","response_type":"multi","response_choices":["True","False"],"correct_response":"False","response":"True","orientation_history":[[0]],"response_history":["True"],"rt":34104,"trial_type":"polygon-arrow-question","trial_index":0,"trial_index_global":69,"time_elapsed":2035585,"internal_chunk_id":"0-0.15-0"},{"nsides":"n","question":"True or false: If x is not a generator under <img src=\"./images/ngon_symbol.png\" style=\"width:14px;height:14px\">, x must divide n.","response_type":"multi","response_choices":["True","False"],"correct_response":"False","response":"True","orientation_history":[[0]],"response_history":["True"],"rt":22695,"trial_type":"polygon-arrow-question","trial_index":0,"trial_index_global":70,"time_elapsed":2058281,"internal_chunk_id":"0-0.15-0"},{"nsides":"n","question":"True or false: If x is not a generator under <img src=\"./images/ngon_symbol.png\" style=\"width:14px;height:14px\">, x must  be a mu ltiple of a divisor of n. Please explain in words why your answer is correct.","response_type":"free","response_choices":[],"correct_response":"True","response":"False, because depending on the number of elements x might not always be a multiple of a divisor of n.","orientation_history":[[0]],"response_history":["A divisor of n","False, because depending on the number of elements x might not always be a multiple of a vi","False, because depending on the number of elements x might not always be a multiple of a v","False, because depending on the number of elements x might not always be a multiple of a divisor of n."],"rt":57976,"trial_type":"polygon-arrow-question","trial_index":0,"trial_index_global":71,"time_elapsed":2116259,"internal_chunk_id":"0-0.15-0"},{"nsides":"n","question":"If an element x is a generator under <img src=\"./images/ngon_symbol.png\" style=\"width:14px;height:14px\">, is its inverse a generator under <img src=\"./images/ngon_symbol.png\" style=\"width:14px;height:14px\"> always, sometimes, or never?","response_type":"multi","response_choices":["Always","Sometimes","Never"],"correct_response":"Always","response":"Sometimes","orientation_history":[[0]],"response_history":["Sometimes"],"rt":17032,"trial_type":"polygon-arrow-question","trial_index":0,"trial_index_global":72,"time_elapsed":2133291,"internal_chunk_id":"0-0.15-0"},{"nsides":"n","question":"If an element x is not a generator under <img src=\"./images/ngon_symbol.png\" style=\"width:14px;height:14px\">, is x <img src=\"./images/ngon_symbol.png\" style=\"width:14px;height:14px\"> x a generator under <img src=\"./images/ngon_symbol.png\" style=\"width:14px;height:14px\"> always, sometimes, or never?","response_type":"multi","response_choices":["Always","Sometimes","Never"],"correct_response":"Never","response":"Never","orientation_history":[[0]],"response_history":["Never"],"rt":9527,"trial_type":"polygon-arrow-question","trial_index":0,"trial_index_global":73,"time_elapsed":2142819,"internal_chunk_id":"0-0.15-0"},{"nsides":"n","question":"If an element x is a generator under <img src=\"./images/ngon_symbol.png\" style=\"width:14px;height:14px\">, is x <img src=\"./images/ngon_symbol.png\" style=\"width:14px;height:14px\"> x a generator under <img src=\"./images/ngon_symbol.png\" style=\"width:14px;height:14px\"> always, sometimes, or never? Please explain in words why your answer is correct.","response_type":"free","response_choices":[],"correct_response":"Sometimes","response":"Sometimes, because it would depend on the number of elements under n.","orientation_history":[[0]],"response_history":["Sometimes, because it would depend on the number of elements under n."],"rt":35584,"trial_type":"polygon-arrow-question","trial_index":0,"trial_index_global":74,"time_elapsed":2178404,"internal_chunk_id":"0-0.15-0"},{"instructions":"We would like to ask you some questions about your background. Please press \"Continue\" to continue.","rt":2168,"trial_type":" instruct ions","trial_index":0,"trial_index_global":75,"time_elapsed":2180572,"internal_chunk_id":"0-0.16-0"},{"question":"What is your age?","response_type":"free","response_choices":[],"correct_response":"","response":"30","response_history":["30"],"rt":2431,"trial_type":"question","trial_index":0,"trial_index_global":76,"time_elapsed":2183004,"internal_chunk_id":"0-0.16-0"},{"question":"What is your level of education?","response_type":"multi","response_choices":["Did not graduate high school","High school diploma","Some college, no degree","Associates Degree","Bachelors Degree","Some graduate school, no degree","Masters Degree","Doctorate, M.D., etc."],"correct_response":"","response":"Associates Degree","response_history":["Associates Degree"],"rt":3641,"trial_type":"question","trial_index":0,"trial_index_global":77,"time_elapsed":2186645,"internal_chunk_id":"0-0.16-0"},{"question":"What is the most advanced math class you've completed? If you have multiple classes and you're no t sure w hich one is most advanced, please list them.","response_type":"free","response_choices":[],"correct_response":"","response":"Calculus II or Linear Algebra.","response_history":["Calculus II, Linear Algebra","Calculus II Linear Algebra","Calculus II  Linear Algebra","Calculus II o Linear Algebra","Calculus II or Linear Algebra."],"rt":25889,"trial_type":"question","trial_index":0,"trial_index_global":78,"time_elapsed":2212534,"internal_chunk_id":"0-0.16-0"},{"question":"How familiar are you with the concept of modular arithmetic?","response_type":"multi","response_choices":["1 - never heard of it","2 - heard of it but didn't know what it was","3 - seen it used or explained","4 - used it but not often or recently","5 - used it, remember and understand it"],"correct_response":"1","response":"2 - heard of it but didn't know what it was","response_history":["2 - heard of it but didn't know what it was"],"rt":11696,"trial_type":"question","trial_index":0,"trial_index_global":79,"time_elapsed":2224230,"internal_chunk_id":"0-0.16-0"},{"question":"How familiar are you with the concept of a mathematical group?","response_type":"multi","response_choices":["1 - never heard of it","2 - heard of it but didn't know what it was","3 - seen it used or explained","4 - used it but not often or recently","5 - used it, remember and understand it"],"correct_response":"1","response":"1 - never heard of it","response_history":["1 - never heard of it"],"rt":16864,"trial_type":"question","trial_index":0,"trial_index_global":80,"time_elapsed":2241094,"internal_chunk_id":"0-0.16-0"},{"question":"Do you feel you learned something from this HIT?","response_type":"multi","response_choices":["1 - not at all","2 - somewhat","3 - definitely"],"correct_response":"1","response":"2 - somewhat","response_history":["3 - definitely","2 - somewhat","3 - definitely","2 - somewhat","3 - definitely","2 - somewhat"],"rt":20182,"trial_type":"question","trial_index":0,"trial_index_global":81,"time_elapsed":2261277,"internal_chunk_id":"0-0.16-0"},{"question":"Do you feel you understood the concepts in this HIT?","response_type":"multi","response_choices":["1 - not at all","2 - somewhat","3 - definitely"],"correct_response":"1","response":"2 - somewhat","response_history":["2 - somewhat"],"rt":3608,"trial_type":"question","trial_index":0,"trial_index_global":82,"time_elapsed":2264885,"internal_chunk_id":"0-0.16-0"},{"question":"Did you enjoy this HIT?","response_type":"multi","response_choices":["1 - not at all","2 - somewhat","3 - definitely"],"correct_response":"1","response":"3 - definitely","response_history":["3 - definitely"],"rt":2136,"trial_type":"question","trial_index":0,"trial_index_global":83,"time_elapsed":2267021,"internal_chunk_id":"0-0.16-0"},{"question":"What is your gender?","response_type":"multi","response_choices":["Female","Male","Other"],"correct_response":"","response":"Male","response_history":["Male"],"rt":1904,"trial_type":"question","trial_index":0,"trial_index_global":84,"time_elapsed":2268925,"internal_chunk_id":"0-0.16-0"},{"question":"What is/are your native language(s)? (The languages spoken in your household when you were a child.)","response_type":"free","response_choices":[],"correct_response":"","response":"English","response_history":["English"],"rt":4095,"trial_type":"question","trial_index":0,"trial_index_global":85,"time_elapsed":2273021,"internal_chunk_id":"0-0.16-0"},{"question":"Did you use pen and paper at any point on this HIT?","response_type":"free","response_choices":[],"correct_response":"","response":"No.","response_history":["No."],"rt":4760,"trial_type":"question","trial_index":0,"trial_index_global":86,"time_elapsed":2277781,"internal_chunk_id":"0-0.16-0"},{"question":"Do you have any comments on this HIT?","response_type":"free","response_choices":[],"correct_response":"","response":"The HIT was both interesting and a bit of a challenge. Although I was not fully confident in all of my answers I tried m y best t o learn the concepts and answer to the best of my ability.","response_history":["The HIT was both interesting and a bit of a challenge. Although I was not 100% confident in all of my answers I tried my best to learn and answer to the best of my ability.","The HIT was both interesting and a bit of a challenge. Although I was not f confident in all of my answers I tried my best to learn and answer to the best of my ability.","The HIT was both interesting and a bit of a challenge. Although I was not fu confident in all of my answers I tried my best to learn and answer to the best of my ability.","The HIT was both interesting and a bit of a challenge. Although I was not ful confident in all of my answers I tried my best to learn and answer to the best of my ability.","The HIT was both interesting and a bit of a challenge. Although I was not full confident in all of my answers I tried my best to learn and answer to the best of my ability.","The HIT was both interesting and a bit  of a cha llenge. Although I was not fully confident in all of my answers I tried my best to learn and answer to the best of my ability.","The HIT was both interesting and a bit of a challenge. Although I was not fully confident in all of my answers I tried my best to learn  and answer to the best of my ability.","The HIT was both interesting and a bit of a challenge. Although I was not fully confident in all of my answers I tried my best to learn t and answer to the best of my ability.","The HIT was both interesting and a bit of a challenge. Although I was not fully confident in all of my answers I tried my best to learn the and answer to the best of my ability.","The HIT was both interesting and a bit of a challenge. Although I was not fully confident in all of my answers I tried my best to learn the  and answer to the best of my ability.","The HIT was both interesting and a bit of a challenge. Although I was not fully confident in all of my answers I tried my best to learn the c an d answer  to the best of my ability.","The HIT was both interesting and a bit of a challenge. Although I was not fully confident in all of my answers I tried my best to learn the conc and answer to the best of my ability.","The HIT was both interesting and a bit of a challenge. Although I was not fully confident in all of my answers I tried my best to learn the conce and answer to the best of my ability.","The HIT was both interesting and a bit of a challenge. Although I was not fully confident in all of my answers I tried my best to learn the concept and answer to the best of my ability.","The HIT was both interesting and a bit of a challenge. Although I was not fully confident in all of my answers I tried my best to learn the concepts and answer to the best of my ability."],"rt":46041,"trial_type":"question","trial_index":0,"trial_index_global":87,"time_elapsed":2323823,"internal_chunk_id":"0-0.16-0"}]