[{"nsides":6,"instructions":"Let's define a new operation <img src=./images/hexagon_symbol.png style=width:14px;height:14px>. This operation will give us a way of combining two of the numbers 0, 1, 2, 3, 4, 5 to get another one of them back. To perform <img src=./images/hexagon_symbol.png style=width:14px;height:14px>, you can either use a method based on the hexagon at right, or a method based on arithmetic.<br /><b>Hexagon method:</b> you can use the interactive diagram on the right, or perform the operation in your mind. Point the arrow at the first number on the hexagon by clicking, then click (or click and drag) to move the arrow the second number of points clockwise around the hexagon. The number the arrow arrives at is your result. (The operation is called <img src=./images/hexagon_symbol.png style=width:14px;height:14px> because it uses the hexagon, which has 6 sides.) <br ><b>Arithmetic method:</b> you start with the first number, and then add  the sec ond one to it. If the sum is smaller than 6, that's your result. If the sum is 6 or bigger, you subtract 6 to get your result. <br /><br />For example, 3 <img src=./images/hexagon_symbol.png style=width:14px;height:14px> 5 = 2, because 5 steps clockwise from 3 on the hexagon brings us to 2. Equivalently, 3 + 5 = 8, and 8 is bigger than 6, so we subtract 6, and 8 - 6 = 2. So 3 <img src=./images/hexagon_symbol.png style=width:14px;height:14px> 5 = 2.<br /><br />Similarly, 1 <img src=./images/hexagon_symbol.png style=width:14px;height:14px> 4 = 5, because 1 + 4 = 5, and 5 is less than 6 so we leave it alone. Equivalently, 4 steps clockwise from 1 on the hexagon brings us to 5. <br /><br />Click Continue when you're ready to move on.","orientation_history":[0,[0.9953716762596116,1.0074800653029286,1.0471975511965976],[2.1025203940537023,2.1025203940537023,2.1025203940537023,2.0943951023931953],[3.087298241681487,3.141592653589793],[4.124386376837123,4.124386376837123,4.124386376837123,4.124386376837123,4.124386376837123,4.124386376837123,4.124386376837123,4.124386376837123,4.124386376837123,4.417451921535883,5.400869515987775,5.400869515987775,5.400869515987775,5.400869515987775,5.400869515987775,5.400869515987775,5.400869515987775,5.467493383863363,5.497787143782138,5.591528685326386,5.853423028082897,6.120090014969345,0.03527947359359129,0.04647813135100298,0.04647813135100298,0.04647813135100298,0.04647813135100298,0.04647813135100298,0.04647813135100298,0.04647813135100298,0.04647813135100298,0.04647813135100298,0.02325162281046289,6.271691560464555,6.271691560464555,6.260200849738134,6.248716206180078,6.237240651371467,6.237240651371467,6.237240651371467,6.237240651371467,6.237240651371467,6.237240651371467,6.237240651371467,6.249107595592578,6.260461946337945,6.260461946337945,6.283185307179586]],"rt":116732,"trial_type":"polygon-arrow-instructions","trial_index":0,"trial_index_global":1,"time_elapsed":128125,"internal_chunk_id":" 0-0"},{"nsides":6,"instructions":"Do you see how the different ways of performing <img src=./images/hexagon_symbol.png style=width:14px;height:14px> give the same result? By labeling the points of the hexagon with the numbers from 0 to 5, we ensure that when we combine two numbers using the hexagon, we only produce numbers between 0 and 5. When we use the arithmetic strategy, adding the second number to the first mimics counting around the hexagon, and subtracting 6 each time we get above 5 makes sure the results correspond to the numbers on the points of the hexagon. <br /><br />Click Continue when you're ready to move on.","orientation_history":[0],"rt":21351,"trial_type":"polygon-arrow-instructions","trial_index":0,"trial_index_global":2,"time_elapsed":149502,"internal_chunk_id":"0-0"},{"nsides":6,"question":"Now try one on your own! What is 4 <img src=./images/hexagon_symbol.png style=width:14px;height:14px> 5? <br /><br /> (Remember, to perform <img  src=./ images/hexagon_symbol.png style=width:14px;height:14px>, you can either use a method based on the hexagon at right, or a method based on arithmetic.<br /><br /><b>Hexagon method:</b> you can use the interactive diagram on the right, or perform the operation in your mind. Point the arrow at the first number, then move the arrow the second number of points clockwise around the hexagon. The number the arrow arrives at is your result. <br /><br /><b>Arithmetic method:</b> you start with the first number, and then add the second one to it. If the sum is smaller than 6, that's your result. If the sum is 6 or bigger, you subtract 6 to get your result.)","response_type":"free","response_choices":[],"correct_response":"3","response":"3","explain":false,"explanation":"","explanation_history":[],"orientation_history":[[0]],"response_history":["3","3"],"rt":26959,"trial_type":"polygon-arrow-question","trial_index":0,"trial_index_global":3,"time_elapsed":176472,"internal_chunk_id":"0-0.3-0 "},{"nsides":6,"feedback":"Correct! 4 <img src=./images/hexagon_symbol.png style=width:14px;height:14px> 5 = 3 because 5 steps clockwise on the hexagon from 4 brings us to 3. Equivalently, 4 + 5 = 9 and 9 - 6 = 3.","orientation_history":[0],"rt":8886,"trial_type":"polygon-arrow-feedback","trial_index":0,"trial_index_global":4,"time_elapsed":185370,"internal_chunk_id":"0-0.3-0"},{"nsides":6,"question":"What is 3 <img src=./images/hexagon_symbol.png style=width:14px;height:14px> 2? Try to solve this problem using the hexagon. <br /><br /> (Remember, to perform <img src=./images/hexagon_symbol.png style=width:14px;height:14px> on the hexagon, you can use the interactive diagram on the right, or perform the operation in your mind. Point the arrow at the first number on the hexagon, and then move the arrow the second number of points clockwise around the hexagon.)","response_type":"free","response_choices":[],"correct_response":"5","response":"5","explain":false,"explanation":"","explanation_history":[],"orientation_history":[[0],[0,0,0,0,-6.1301453029349435,-5.947175469740325,-5.508360767842302,-4.440348682757267,-4.151481008166137,-4.014098595575486,-3.908272254695567,-3.900284044075762,-3.854135660043915,-3.8236480777745636,-3.815571465382533,-3.779597569973043,-3.711883743850672,-3.6707085272355813,-3.580276660487577,-3.4530751487614033,-3.347785640433454,-3.1935526253487243,-3.1589481336605556,-3.1589481336605556,-3.1589481336605556,-3.1589481336605556,-3.1589481336605556,-3.1589481336605556,-3.1589481336605556,-3.1589481336605556,-3.1589481336605556,-3.1589481336605556,-3.1589481336605556,-3.1589481336605556,-3.1589481336605556,-3.1589481336605556,-3.1589481336605556,-3.1589481336605556,-3.1589481336605556,-3.1589481336605556,-3.1589481336605556,3.141592653589793],[3.141592653589793,3.141592653589793,3.141592653589793,3.141592653589793,3.141592653589793,3.5994263746087576,4.000031382290361,4.221842031557781,4.262014928068059,4.262014928068059,4.262014928068059,4.872302103542909,4.994943932854277,5.081722638058315,5.100288938112621,5.100288938112621,5.100288938112621,5.127616315939921,5.136583388288456,5.136583388288456,5.136583388288456,5.136583388288456,5.136583388288456,5.136583388288456,5.136583388288456,5.136583388288456,5.1977722962272885,5.223211862342513,5.236308328069889,5.236308328069889,5.236308328069889,5.236308328069889,5.236308328069889,5.236308328069889,5.236308328069889,5.236308328069889,5.236308328069889,5.236308328069889,5.236308328069889,5.236308328069889,5.236308328069889,5.236308328069889,5.235987755982988]],"response_history":["5"],"rt":16195,"trial_type":"polygon-arrow-question","trial_index":0,"trial_index_global":5,"time_elapsed":201570,"internal_chunk_id":"0-0.3-0"},{"nsides":6,"feedback":"Correct! 3 <img src=./images/hexagon_symbol.png style=width:14px;height:14px> 2 = 5 because 2 steps clockwise on the hexagon from 3 brings us to 5. Equivalently, 3 + 2 = 5 and 5 is less  than 6.","orientation_history":[0],"rt":2340,"trial_type":"polygon-arrow-feedback","trial_index":0,"trial_index_global":6,"time_elapsed":203916,"internal_chunk_id":"0-0.3-0"},{"nsides":6,"question":"What is 1 <img src=./images/hexagon_symbol.png style=width:14px;height:14px> 5? Try to solve this probem using the arithmetic technique. <br /><br /> (Remember, to perform <img src=./images/hexagon_symbol.png style=width:14px;height:14px> by arithmetic, you start with the first number, and then add the second one to it. If the sum is smaller than 6, that's your result. If the sum is 6 or bigger, you subtract 6 to get your result.)","response_type":"free","response_choices":[],"correct_response":"0","response":"0","explain":false,"explanation":"","explanation_history":[],"orientation_history":[[0]],"response_history":["0","0"],"rt":15946,"trial_type":"polygon-arrow-question","trial_index":0,"trial_index_global":7,"time_elapsed":219867,"internal_chunk_id":"0-0.3-0"},{"nsides":6,"feedback":"Correct! 1 <img src=./images/hexagon_symbol.png style=width:14px;height:14px> 5 = 0 because 1 + 5 = 6 and 6 - 6 = 0.  Equivalently, 5 steps clockwise on the hexagon from 1 brings us to 0.","orientation_history":[0],"rt":1988,"trial_type":"polygon-arrow-feedback","trial_index":0,"trial_index_global":8,"time_elapsed":221860,"internal_chunk_id":"0-0.3-0"},{"nsides":6,"question":"What is 1 <img src=./images/hexagon_symbol.png style=width:14px;height:14px> 1? Try to solve this problem using the hexagon. <br /><br /> (Remember, to perform <img src=./images/hexagon_symbol.png style=width:14px;height:14px> on the hexagon, you can use the interactive diagram on the right, or perform the operation in your mind. Point the arrow at the first number on the hexagon, and then move the arrow the second number of points clockwise around the hexagon.)","response_type":"free","response_choices":[],"correct_response":"2","response":"2","explain":false,"explanation":"","explanation_history":[],"orientation_history":[[0],[0.095506865299126,0.2379252962898326,0.8350918350758854,0.926849684504694,0.9375017449849397,0.9375017449849397,1.0841860208592198,1.1987340345684565,1.1987340345684565,1.1987340345684565,1.1987340345684565,1.1987340345684565,1.1987340345684565,1.1987340345684565,1.1987340345684565,1.7295471600580135,1.8532076956579329,2.289142735859402,2.289142735859402,2.289142735859402,2.289142735859402,2.289142735859402,2.214956039252985,2.1465640181024694,2.137783539079071,2.137783539079071,2.137783539079071,2.137783539079071,2.137783539079071,2.137783539079071,2.137783539079071,2.137783539079071,2.137783539079071,2.137783539079071,2.0943951023931953]],"response_history":["2"],"rt":7955,"trial_type":"polygon-arrow-question","trial_index":0,"trial_index_global":9,"time_elapsed":229819,"internal_chunk_id":"0-0.3-0"},{"nsides":6,"feedback":"Correct! 1 <img src=./images/hexagon_symbol.png style=width:14px;height:14px> 1 = 2 because  1 step  clockwise on the hexagon from 1 brings us to 2. Equivalently, 1 + 1 = 2 and 2 is less than 6.","orientation_history":[0],"rt":2343,"trial_type":"polygon-arrow-feedback","trial_index":0,"trial_index_global":10,"time_elapsed":232165,"internal_chunk_id":"0-0.3-0"},{"nsides":6,"question":"What is 3 <img src=./images/hexagon_symbol.png style=width:14px;height:14px> 0? Try to solve this problem using the arithmetic technique. <br /><br /> (Remember, to perform <img src=./images/hexagon_symbol.png style=width:14px;height:14px> using arithmetic, you start with the first number, and then add the second one to it. If the sum is smaller than 6, that's your result. If the sum is 6 or bigger, you subtract 6 to get your result.)","response_type":"free","response_choices":[],"correct_response":"3","response":"3","explain":false,"explanation":"","explanation_history":[],"orientation_history":[[0]],"response_history":["3"],"rt":5729,"trial_type":"polygon-arrow-question","trial_index":0,"trial_index_global":11,"time_elapsed":237898,"internal_chunk_id":"0-0.3-0"},{"nsides":6,"feedback":"Correct! 3 <img src=./images/hexagon_symbol.png style=width:14px;height:14px> 0 = 3 because 3 + 0 = 3 and 3 - 6 = 3.  Equivalently, 0 steps clockwise on the hexagon from 3 brings us to 3.","orientation_history":[0],"rt":1485,"trial_type":"polygon-arrow-feedback","trial_index":0,"trial_index_global":12,"time_elapsed":239387,"internal_chunk_id":"0-0.3-0"},{"nsides":6,"question":"What is 4 <img src=./images/hexagon_symbol.png style=width:14px;height:14px> 4? Try to solve this problem using the hexagon. <br /><br /> (Remember, to perform <img src=./images/hexagon_symbol.png style=width:14px;height:14px> on the hexagon, you can use the interactive diagram on the right, or perform the operation in your mind. Point the arrow at the first number on the hexagon, and then move the arrow the second number of points clockwise around the hexagon.)","response_type":"free ","response_choices":[],"correct_response":"2","response":"2","explain":false,"explanation":"","explanation_history":[],"orientation_history":[[0],[0,0,0,0.04190417658128531,0.18926565766993697,0.3389456332049581,0.4417629761091051,0.6006306213419101,0.861484183718534,1.214811603900273,1.6070878401433564,1.702484943128472,1.7600619844648335,1.8407592726482436,1.9901163826016126,2.1984679743025453,2.4489863726796948,4.073068789103617,4.2853577006585555,4.2853577006585555,4.2853577006585555,4.407356253798554,4.45770891296663,4.45770891296663,4.45770891296663,4.45770891296663,4.45770891296663,4.45770891296663,4.45770891296663,4.45770891296663,4.45770891296663,4.587531977847971,4.983156863010796,5.228970997686423,5.394986529676521,5.453892116512633,5.453892116512633,5.453892116512633,5.453892116512633,5.453892116512633,5.453892116512633,5.453892116512633,5.453892116512633,0.014047607187525735,0.08832928660008865,0.08832928660008865,0.08832928660008865,0.09891993948178968,1.0420463169107614,1.126487280900017,1.2715438826524224,1.2715438826524224,1.2715438826524224,1.2715438826524224,1.2715438826524224,1.2715438826524224,1.3521940164909234,1.840639354193368,1.9163847657242603,1.946284824875975,1.946284824875975,1.9738008141614296,1.9738008141614296,2.0532488810227156,2.0785012926852717,2.0785012926852717,2.0785012926852717,2.0943951023931953]],"response_history":["2"],"rt":8200,"trial_type":"polygon-arrow-question","trial_index":0,"trial_index_global":13,"time_elapsed":247591,"internal_chunk_id":"0-0.3-0"},{"nsides":6,"feedback":"Correct! 4 <img src=./images/hexagon_symbol.png style=width:14px;height:14px> 4 = 2 because 4 steps clockwise on the hexagon from 4 brings us to 2. Equivalently, 4 + 4 = 8 and 8 - 6 = 2.","orientation_history":[0],"rt":2116,"trial_type":"polygon-arrow-feedback","trial_index":0,"trial_index_global":14,"time_elapsed":249716,"internal_chunk_id":"0-0.3-0"},{"nsides":6,"question":"What is 1 <img src=./images/hexagon_symbol.png style= width:14px;height:14px> 3? Try to solve this problem using the arithmetic technique. <br /><br /> (Remember, to perform <img src=./images/hexagon_symbol.png style=width:14px;height:14px> by arithmetic, you start with the first number, and then add the second one to it. If the sum is smaller than 6, that's your result. If the sum is 6 or bigger, you subtract 6 to get your result.)","response_type":"free","response_choices":[],"correct_response":"4","response":"4","explain":false,"explanation":"","explanation_history":[],"orientation_history":[[0]],"response_history":["4"],"rt":30983,"trial_type":"polygon-arrow-question","trial_index":0,"trial_index_global":15,"time_elapsed":280702,"internal_chunk_id":"0-0.3-0"},{"nsides":6,"feedback":"Correct! 1 <img src=./images/hexagon_symbol.png style=width:14px;height:14px> 3 = 4 because 1 + 3 = 4 and 4 - 6 = 4.  Equivalently, 3 steps clockwise on the hexagon from 1 brings us to 4.","orientation_history":[0],"rt":9168,"trial_type":"polygon-arrow-feedback","trial_index":0,"trial_index_global":16,"time_elapsed":289879,"internal_chunk_id":"0-0.3-0"},{"nsides":6,"question":"What is 4 <img src=./images/hexagon_symbol.png style=width:14px;height:14px> 3? <br /><br /> (Remember, to perform <img src=./images/hexagon_symbol.png style=width:14px;height:14px>, you can either use a method based on the hexagon at right, or a method based on arithmetic.<br /><br /><b>Hexagon method:</b> you can use the interactive diagram on the right, or perform the operation in your mind. Point the arrow at the first number, then move the arrow the second number of points clockwise around the hexagon. The number the arrow arrives at is your result. <br /><br /><b>Arithmetic method:</b> you start with the first number, and then add the second one to it. If the sum is smaller than 6, that's your result. If the sum is 6 or bigger, you subtract 6 to get your result.)","response_type":"free","response_choices":[],"correct_response":"1","response":"1","explain":false,"explanation":"","explanation_history":[],"orientation_history":[[0]],"response_history":["1"],"rt":7209,"trial_type":"polygon-arrow-question","trial_index":0,"trial_index_global":17,"time_elapsed":297094,"internal_chunk_id":"0-0.3-0"},{"nsides":6,"feedback":"Correct! 4 <img src=./images/hexagon_symbol.png style=width:14px;height:14px> 3 = 1 because 3 steps clockwise on the hexagon from 4 brings us to 1. Equivalently, 4 + 3 = 7 and 7 - 6 = 1.","orientation_history":[0],"rt":1600,"trial_type":"polygon-arrow-feedback","trial_index":0,"trial_index_global":18,"time_elapsed":298703,"internal_chunk_id":"0-0.3-0"},{"nsides":6,"question":"What is 0 <img src=./images/hexagon_symbol.png style=width:14px;height:14px> 5? <br /><br /> (Remember, to perform <img src=./images/hexagon_symbol.png style=width:14px;height:14px>, you can either use a method based on the hexagon at right, or a method based on arithmetic.<br /> <br /><b >Hexagon method:</b> you can use the interactive diagram on the right, or perform the operation in your mind. Point the arrow at the first number, then move the arrow the second number of points clockwise around the hexagon. The number the arrow arrives at is your result. <br /><br /><b>Arithmetic method:</b> you start with the first number, and then add the second one to it. If the sum is smaller than 6, that's your result. If the sum is 6 or bigger, you subtract 6 to get your result.)","response_type":"free","response_choices":[],"correct_response":"5","response":"5","explain":false,"explanation":"","explanation_history":[],"orientation_history":[[0]],"response_history":["5"],"rt":4436,"trial_type":"polygon-arrow-question","trial_index":0,"trial_index_global":19,"time_elapsed":303146,"internal_chunk_id":"0-0.3-0"},{"nsides":6,"feedback":"Correct! 0 <img src=./images/hexagon_symbol.png style=width:14px;height:14px> 5 = 5 because 5 steps clockwise on the hexagon from  0 bring s us to 5. Equivalently, 0 + 5 = 5 and 5 is less than 6.","orientation_history":[0],"rt":1289,"trial_type":"polygon-arrow-feedback","trial_index":0,"trial_index_global":20,"time_elapsed":304442,"internal_chunk_id":"0-0.3-0"},{"nsides":6,"question":"What is 2 <img src=./images/hexagon_symbol.png style=width:14px;height:14px> 5? <br /><br /> (Remember, to perform <img src=./images/hexagon_symbol.png style=width:14px;height:14px>, you can either use a method based on the hexagon at right, or a method based on arithmetic.<br /><br /><b>Hexagon method:</b> you can use the interactive diagram on the right, or perform the operation in your mind. Point the arrow at the first number, then move the arrow the second number of points clockwise around the hexagon. The number the arrow arrives at is your result. <br /><br /><b>Arithmetic method:</b> you start with the first number, and then add the second one to it. If the sum is smaller than 6, that's your result. If the  sum is 6  or bigger, you subtract 6 to get your result.)","response_type":"free","response_choices":[],"correct_response":"1","response":"1","explain":false,"explanation":"","explanation_history":[],"orientation_history":[[0]],"response_history":["1"],"rt":3541,"trial_type":"polygon-arrow-question","trial_index":0,"trial_index_global":21,"time_elapsed":307989,"internal_chunk_id":"0-0.3-0"},{"nsides":6,"feedback":"Correct! 2 <img src=./images/hexagon_symbol.png style=width:14px;height:14px> 5 = 1 because 5 steps clockwise on the hexagon from 2 brings us to 1. Equivalently, 2 + 5 = 7 and 7 - 6 = 1.","orientation_history":[0],"rt":1994,"trial_type":"polygon-arrow-feedback","trial_index":0,"trial_index_global":22,"time_elapsed":309988,"internal_chunk_id":"0-0.3-0"},{"nsides":6,"instructions":"Now we're going to discuss a couple special properties of this new operation, <img src=./images/hexagon_symbol.png style=width:14px;height:14px> that we've learned. First, notice tha t the nu mber 0 behaves in a special way under <img src=./images/hexagon_symbol.png style=width:14px;height:14px>. Whenever we combine 0 with anything else, we get that same thing back. We'll say that 0 is the <i>identity</i> under <img src=./images/hexagon_symbol.png style=width:14px;height:14px>, because when you combine it with something it gives you that identical thing back.","orientation_history":[0],"rt":18200,"trial_type":"polygon-arrow-instructions","trial_index":0,"trial_index_global":23,"time_elapsed":328231,"internal_chunk_id":"0-0"},{"nsides":6,"instructions":"Now that we know 0 is the identity under <img src=./images/hexagon_symbol.png style=width:14px;height:14px>, we're going to make a new definition. We'll say that the <i>inverse</i> of a number is the element that you combine with it to produce the identity. For example, 5 <img src=./images/hexagon_symbol.png style=width:14px;height:14px> 1 = 0, so we say 1 is the inverse of 5 under < img src= ./images/hexagon_symbol.png style=width:14px;height:14px>, (remember 0 is the identity under <img src=./images/hexagon_symbol.png style=width:14px;height:14px>). Similarly, 3 is its own inverse under <img src=./images/hexagon_symbol.png style=width:14px;height:14px>, because 3 <img src=./images/hexagon_symbol.png style=width:14px;height:14px> 3 = 0.","orientation_history":[0],"rt":28155,"trial_type":"polygon-arrow-instructions","trial_index":0,"trial_index_global":24,"time_elapsed":356404,"internal_chunk_id":"0-0"},{"nsides":6,"question":"Now you try! What is the inverse of 4 under <img src=./images/hexagon_symbol.png style=width:14px;height:14px>? <br /><br /> (Remember, the inverse of an element is the thing which you combine with it to produce the identity.)","response_type":"free","response_choices":[],"correct_response":"2","response":"2","explain":false,"explanation":"","explanation_history":[],"orientation_history":[[0]],"response_history":["2"],"rt":6030,"trial_type":"polygon-arrow-question","trial_index":0,"trial_index_global":25,"time_elapsed":362455,"internal_chunk_id":"0-0.7-0"},{"nsides":6,"feedback":"Correct! The inverse of 4 under <img src=./images/hexagon_symbol.png style=width:14px;height:14px> is 2 because 4 <img src=./images/hexagon_symbol.png style=width:14px;height:14px> 2 = 0, and 0 is the identity under <img src=./images/hexagon_symbol.png style=width:14px;height:14px>.","orientation_history":[0],"rt":1655,"trial_type":"polygon-arrow-feedback","trial_index":0,"trial_index_global":26,"time_elapsed":364115,"internal_chunk_id":"0-0.7-0"},{"nsides":6,"question":"What is the inverse of 1 under <img src=./images/hexagon_symbol.png style=width:14px;height:14px>? <br /><br /> (Remember, the inverse of an element is the thing which you combine with it to produce the identity.)","response_type":"free","response_choices":[],"correct_response":"5","response":"5","explain":false,"explanation":"","explanation_history":[],"orientation_history":[[0]],"response_history":["5"],"rt":2869,"trial_type":"polygon-arrow-question","trial_index":0,"trial_index_global":27,"time_elapsed":366990,"internal_chunk_id":"0-0.7-0"},{"nsides":6,"feedback":"Correct! The inverse of 1 under <img src=./images/hexagon_symbol.png style=width:14px;height:14px> is 5 because 1 <img src=./images/hexagon_symbol.png style=width:14px;height:14px> 5 = 0, and 0 is the identity under <img src=./images/hexagon_symbol.png style=width:14px;height:14px>.","orientation_history":[0],"rt":1235,"trial_type":"polygon-arrow-feedback","trial_index":0,"trial_index_global":28,"time_elapsed":368231,"internal_chunk_id":"0-0.7-0"},{"nsides":6,"question":"What is the inverse of 3 under <img src=./images/hexagon_symbol.png style=width:14px;height:14px>? <br /><br /> (Remember, the inverse of an element is the thing which you combine with it to produce the identity.)","response_type":"free","response_choices":[],"correct_response":"3","response":"3","explain":false,"explanation":"","explanation_history":[],"orientation_history":[[0]],"response_history":["3"],"rt":2346,"trial_type":"polygon-arrow-question","trial_index":0,"trial_index_global":29,"time_elapsed":370581,"internal_chunk_id":"0-0.7-0"},{"nsides":6,"feedback":"Correct! The inverse of 3 under <img src=./images/hexagon_symbol.png style=width:14px;height:14px> is 3 because 3 <img src=./images/hexagon_symbol.png style=width:14px;height:14px> 3 = 0, and 0 is the identity under <img src=./images/hexagon_symbol.png style=width:14px;height:14px>.","orientation_history":[0],"rt":967,"trial_type":"polygon-arrow-feedback","trial_index":0,"trial_index_global":30,"time_elapsed":371554,"internal_chunk_id":"0-0.7-0"},{"nsides":6,"question":"What is the inverse of 2 under <img src=./images/hexagon_symbol.png style=width:14px;height:14px>? <br /><br /> (Remember, the inverse of  an elem ent is the thing which you combine with it to produce the identity.)","response_type":"free","response_choices":[],"correct_response":"4","response":"4","explain":false,"explanation":"","explanation_history":[],"orientation_history":[[0]],"response_history":["4"],"rt":3010,"trial_type":"polygon-arrow-question","trial_index":0,"trial_index_global":31,"time_elapsed":374566,"internal_chunk_id":"0-0.7-0"},{"nsides":6,"feedback":"Correct! The inverse of 2 under <img src=./images/hexagon_symbol.png style=width:14px;height:14px> is 4 because 2 <img src=./images/hexagon_symbol.png style=width:14px;height:14px> 4 = 0, and 0 is the identity under <img src=./images/hexagon_symbol.png style=width:14px;height:14px>.","orientation_history":[0],"rt":1217,"trial_type":"polygon-arrow-feedback","trial_index":0,"trial_index_global":32,"time_elapsed":375787,"internal_chunk_id":"0-0.7-0"},{"nsides":6,"question":"What is the inverse of 0 under <img src=./images/hexagon_s ymbol.pn g style=width:14px;height:14px>? <br /><br /> (Remember, the inverse of an element is the thing which you combine with it to produce the identity.)","response_type":"free","response_choices":[],"correct_response":"0","response":"0","explain":false,"explanation":"","explanation_history":[],"orientation_history":[[0]],"response_history":["0"],"rt":4184,"trial_type":"polygon-arrow-question","trial_index":0,"trial_index_global":33,"time_elapsed":379973,"internal_chunk_id":"0-0.7-0"},{"nsides":6,"feedback":"Correct! The inverse of 0 under <img src=./images/hexagon_symbol.png style=width:14px;height:14px> is 0 because 0 <img src=./images/hexagon_symbol.png style=width:14px;height:14px> 0 = 0, and 0 is the identity under <img src=./images/hexagon_symbol.png style=width:14px;height:14px>.","orientation_history":[0],"rt":3229,"trial_type":"polygon-arrow-feedback","trial_index":0,"trial_index_global":34,"time_elapsed":383208,"internal_chunk_id":"0-0.7-0"},{"nsides":6,"instructions":"It is also possible to successively apply <img src=./images/hexagon_symbol.png style=width:14px;height:14px>, and the operation can simply be performed starting with the left-most pair. For example, 2 <img src=./images/hexagon_symbol.png style=width:14px;height:14px> 3 <img src=./images/hexagon_symbol.png style=width:14px;height:14px> 4 = 5 <img src=./images/hexagon_symbol.png style=width:14px;height:14px> 4 = 3.","orientation_history":[0],"rt":36190,"trial_type":"polygon-arrow-instructions","trial_index":0,"trial_index_global":35,"time_elapsed":419406,"internal_chunk_id":"0-0"},{"nsides":6,"instructions":"We have one last definition to learn today, using the successive operations we just learned. Let's start with an example. Under our operation <img src=./images/hexagon_symbol.png style=width:14px;height:14px> we can make every other number using just 1: 2 = 1 <img src=./images/hexagon_symbol.png style=width :14px;he ight:14px> 1, 3 = 1 <img src=./images/hexagon_symbol.png style=width:14px;height:14px> 1 <img src=./images/hexagon_symbol.png style=width:14px;height:14px> 1, 4 = 1 <img src=./images/hexagon_symbol.png style=width:14px;height:14px> 1 <img src=./images/hexagon_symbol.png style=width:14px;height:14px> 1 <img src=./images/hexagon_symbol.png style=width:14px;height:14px> 1, 5 = 1 <img src=./images/hexagon_symbol.png style=width:14px;height:14px> 1 <img src=./images/hexagon_symbol.png style=width:14px;height:14px> 1 <img src=./images/hexagon_symbol.png style=width:14px;height:14px> 1 <img src=./images/hexagon_symbol.png style=width:14px;height:14px> 1, and 0 = 1 <img src=./images/hexagon_symbol.png style=width:14px;height:14px> 1 <img src=./images/hexagon_symbol.png style=width:14px;height:14px> 1 <img src=./images/hexagon_symbol.png style=width:14px;height:14px> 1 <img src=./image s/hexago n_symbol.png style=width:14px;height:14px> 1 <img src=./images/hexagon_symbol.png style=width:14px;height:14px> 1. Because 1 can make every other element under <img src=./images/hexagon_symbol.png style=width:14px;height:14px>, we say that 1 is a <i>generator</i> under <img src=./images/hexagon_symbol.png style=width:14px;height:14px>. <br /><br /> However, 2 is not a generator under <img src=./images/hexagon_symbol.png style=width:14px;height:14px>, because 4 = 2 <img src=./images/hexagon_symbol.png style=width:14px;height:14px> 2, and 0 = 2 <img src=./images/hexagon_symbol.png style=width:14px;height:14px> 2 <img src=./images/hexagon_symbol.png style=width:14px;height:14px> 2, but there is no way to make 1, 3, or 5 using just 2.","orientation_history":[0],"rt":67513,"trial_type":"polygon-arrow-instructions","trial_index":0,"trial_index_global":36,"time_elapsed":486922,"internal_chunk_id":"0-0"},{"nsides":6,"question":"N ow you try! Is 3 a generator under <img src=./images/hexagon_symbol.png style=width:14px;height:14px>? <br /><br /> (Remember, a generator is an element which can make every other element.)","response_type":"multi","response_choices":["Yes","No"],"correct_response":"No","response":"No","explain":false,"explanation":"","explanation_history":[],"orientation_history":[[0]],"response_history":["No"],"rt":6456,"trial_type":"polygon-arrow-question","trial_index":0,"trial_index_global":37,"time_elapsed":493381,"internal_chunk_id":"0-0.10-0"},{"nsides":6,"feedback":"Correct! 3 is not a generator under <img src=./images/hexagon_symbol.png style=width:14px;height:14px>, because 3 = 3, 0 = 3 <img src=./images/hexagon_symbol.png style=width:14px;height:14px> 3, but there is no way to make 1, 2, 4, or 5 using just 3.","orientation_history":[0],"rt":3641,"trial_type":"polygon-arrow-feedback","trial_index":0,"trial_index_global":38,"time_elapsed":497024,"internal_chunk_id":"0-0.10-0"},{"nsides":6,"question":"Is 5 a generator under <img src=./images/hexagon_symbol.png style=width:14px;height:14px>? <br /><br /> (Remember, a generator is an element which can make every other element.)","response_type":"multi","response_choices":["Yes","No"],"correct_response":"Yes","response":"Yes","explain":false,"explanation":"","explanation_history":[],"orientation_history":[[0]],"response_history":["Yes"],"rt":4196,"trial_type":"polygon-arrow-question","trial_index":0,"trial_index_global":39,"time_elapsed":501223,"internal_chunk_id":"0-0.10-0"},{"nsides":6,"feedback":"Correct! 5 is a generator under <img src=./images/hexagon_symbol.png style=width:14px;height:14px>, because 5 = 5, 4 = 5 <img src=./images/hexagon_symbol.png style=width:14px;height:14px> 5, 3 = 5 <img src=./images/hexagon_symbol.png style=width:14px;height:14px> 5 <img src=./images/hexagon_symbol.png style=width:14px;height:14px> 5, 2 = 5 <img src=./im ages/hex agon_symbol.png style=width:14px;height:14px> 5 <img src=./images/hexagon_symbol.png style=width:14px;height:14px> 5 <img src=./images/hexagon_symbol.png style=width:14px;height:14px> 5, 1 = 5 <img src=./images/hexagon_symbol.png style=width:14px;height:14px> 5 <img src=./images/hexagon_symbol.png style=width:14px;height:14px> 5 <img src=./images/hexagon_symbol.png style=width:14px;height:14px> 5 <img src=./images/hexagon_symbol.png style=width:14px;height:14px> 5, and 0 = 5 <img src=./images/hexagon_symbol.png style=width:14px;height:14px> 5 <img src=./images/hexagon_symbol.png style=width:14px;height:14px> 5 <img src=./images/hexagon_symbol.png style=width:14px;height:14px> 5 <img src=./images/hexagon_symbol.png style=width:14px;height:14px> 5 <img src=./images/hexagon_symbol.png style=width:14px;height:14px> 5, so you can make all of the numbers under <img src=./images/hexagon_ symbol.p ng style=width:14px;height:14px> using 5","orientation_history":[0],"rt":2334,"trial_type":"polygon-arrow-feedback","trial_index":0,"trial_index_global":40,"time_elapsed":503560,"internal_chunk_id":"0-0.10-0"},{"nsides":6,"question":"Is 4 a generator under <img src=./images/hexagon_symbol.png style=width:14px;height:14px>? <br /><br /> (Remember, a generator is an element which can make every other element.)","response_type":"multi","response_choices":["Yes","No"],"correct_response":"No","response":"No","explain":false,"explanation":"","explanation_history":[],"orientation_history":[[0]],"response_history":["No"],"rt":3102,"trial_type":"polygon-arrow-question","trial_index":0,"trial_index_global":41,"time_elapsed":506665,"internal_chunk_id":"0-0.10-0"},{"nsides":6,"feedback":"Correct! 4 is not a generator under <img src=./images/hexagon_symbol.png style=width:14px;height:14px>, because 4 = 4, 2 = 4 <img src=./images/hexagon_symbol.png style=width: 14px;hei ght:14px> 4, and 0 = 4 <img src=./images/hexagon_symbol.png style=width:14px;height:14px> 4 <img src=./images/hexagon_symbol.png style=width:14px;height:14px> 4, but there is no way to make 1, 3, or 5 using just 4.","orientation_history":[0],"rt":1736,"trial_type":"polygon-arrow-feedback","trial_index":0,"trial_index_global":42,"time_elapsed":508405,"internal_chunk_id":"0-0.10-0"},{"nsides":6,"question":"Is 0 a generator under <img src=./images/hexagon_symbol.png style=width:14px;height:14px>? <br /><br /> (Remember, a generator is an element which can make every other element.)","response_type":"multi","response_choices":["Yes","No"],"correct_response":"No","response":"No","explain":false,"explanation":"","explanation_history":[],"orientation_history":[[0]],"response_history":["No"],"rt":4924,"trial_type":"polygon-arrow-question","trial_index":0,"trial_index_global":43,"time_elapsed":513332,"internal_chunk_id":"0-0.10-0"},{"nsides":6,"feedback":"Co rrect! 0  is not a generator under <img src=./images/hexagon_symbol.png style=width:14px;height:14px>, because 0 = 0, but there is no way to make 1, 2, 3, 4, or 5 using just 0.","orientation_history":[0],"rt":2233,"trial_type":"polygon-arrow-feedback","trial_index":0,"trial_index_global":44,"time_elapsed":515567,"internal_chunk_id":"0-0.10-0"},{"nsides":9,"instructions":"Now we are going to ask you some questions about a new operation, <img src=./images/nonagon_symbol.png style=width:14px;height:14px>, on the numbers 0, 1, 2, 3, 4, 5, 6, 7, 8. It works exactly like <img src=./images/hexagon_symbol.png style=width:14px;height:14px>, except now you use the nonagon shown at the right. Equivalently, after adding the two numbers you subtract 9 if your result is 9 or greater.<br /><br />Do you see how the different ways of performing <img src=./images/nonagon_symbol.png style=width:14px;height:14px> give the same result, just like with <img src=./images/he xagon_sy mbol.png style=width:14px;height:14px>? By labeling the points of the nonagon with the numbers from 0 to 8, we ensure that when we combine two numbers under <img src=./images/nonagon_symbol.png style=width:14px;height:14px>, we only produce numbers between 0 and 8. When we use the arithmetic strategy, adding the second number to the first mimics counting around the nonagon, and subtracting 9 each time we get above 8 makes sure the results correspond to the numbers on the points of the nonagon.<br /><br />We'll give you one practice question with feedback to make sure you understand the new operation. After that, try to complete the remaining questions as accurately as possible.","orientation_history":[0],"rt":25081,"trial_type":"polygon-arrow-instructions","trial_index":0,"trial_index_global":45,"time_elapsed":540652,"internal_chunk_id":"0-0"},{"nsides":9,"question":"Practice: What is 5 <img src=./images/nonagon_symbol.png style=width:14px;height:14px>  5?","response_type":"free","response_choices":[],"correct_response":"1","response":"1","explain":false,"explanation":"","explanation_history":[],"orientation_history":[[0]],"response_history":["1"],"rt":5203,"trial_type":"polygon-arrow-question","trial_index":0,"trial_index_global":46,"time_elapsed":545857,"internal_chunk_id":"0-0.12-0"},{"nsides":9,"feedback":"Correct! 5 <img src=./images/nonagon_symbol.png style=width:14px;height:14px> 5 = 1 because 5 steps clockwise on the nonagon from 5 brings us to 1. Equivalently, 5 + 5 = 10 and 10 - 9 = 1.","orientation_history":[0],"rt":2229,"trial_type":"polygon-arrow-feedback","trial_index":0,"trial_index_global":47,"time_elapsed":548089,"internal_chunk_id":"0-0.12-0"},{"nsides":9,"question":"What is 3 <img src=./images/nonagon_symbol.png style=width:14px;height:14px> 3?","response_type":"free","response_choices":[],"correct_response":"6","response":"6","explain":false,"explanation":"","explanation_history":[],"orientation_history":[[0]],"response_history":["6"],"rt":2945,"trial_type":"polygon-arrow-question","trial_index":0,"trial_index_global":48,"time_elapsed":551037,"internal_chunk_id":"0-0.12-0"},{"nsides":9,"question":"What is 7 <img src=./images/nonagon_symbol.png style=width:14px;height:14px> 4?","response_type":"free","response_choices":[],"correct_response":"2","response":"2","explain":false,"explanation":"","explanation_history":[],"orientation_history":[[0]],"response_history":["2"],"rt":2928,"trial_type":"polygon-arrow-question","trial_index":0,"trial_index_global":49,"time_elapsed":553968,"internal_chunk_id":"0-0.12-0"},{"nsides":9,"question":"What is 1 <img src=./images/nonagon_symbol.png style=width:14px;height:14px> 8?","response_type":"free","response_choices":[],"correct_response":"0","response":"0","explain":false,"explanation":"","explanation_history":[],"orientation_history":[[0]],"response_history":["0"],"rt":2739,"trial_type":"polygon-arrow-question","trial_index":0,"trial_index_global":50,"time_elapsed":556710,"internal_chunk_id":"0-0.12-0"},{"nsides":9,"question":"What is 5 <img src=./images/nonagon_symbol.png style=width:14px;height:14px> 4?","response_type":"free","response_choices":[],"correct_response":"0","response":"0","explain":false,"explanation":"","explanation_history":[],"orientation_history":[[0]],"response_history":["0"],"rt":2316,"trial_type":"polygon-arrow-question","trial_index":0,"trial_index_global":51,"time_elapsed":559028,"internal_chunk_id":"0-0.12-0"},{"nsides":9,"question":"What is 6 <img src=./images/nonagon_symbol.png style=width:14px;height:14px> 6?","response_type":"free","response_choices":[],"correct_response":"3","response":"3","explain":false,"explanation":"","explanation_history":[],"orientation_history":[[0]],"response_history":["3"],"rt":2573,"trial_type":"polygon-arrow-question","trial_index":0,"trial_index_global":52,"time_elapsed":561604,"internal_chunk_id":"0-0.12-0"},{"nsides":9,"instructions":"On the following question, and several others later in the HIT, we will ask you to explain how you got your answer. On these questions, you will be given one box for your answer to the question, and a second for your explanation. Please explain your thought process in as much detail as possible (at least one sentence, and more if you can).","orientation_history":[0],"rt":10198,"trial_type":"polygon-arrow-instructions","trial_index":0,"trial_index_global":53,"time_elapsed":571805,"internal_chunk_id":"0-0.12-0"},{"nsides":9,"question":"What is 4 <img src=./images/nonagon_symbol.png style=width:14px;height:14px> 1? Please explain in words how you got your answer.","response_type":"free","response_choices":[],"correct_response":"5","response":"5","explain":true,"explanation":"I added 1 to 4 and since it's less than nine I left the answer at 5.","explanation_history":["I added 1 to 5","I added 1 to 4 and since it's undr","I added 1 to 4 and since it's und","I added 1  to 4 and  since it's un","I added 1 to 4 and since it's u","I added 1 to 4 and since it's less than nine I left the anser at ","I added 1 to 4 and since it's less than nine I left the anser at","I added 1 to 4 and since it's less than nine I left the anser a","I added 1 to 4 and since it's less than nine I left the anser ","I added 1 to 4 and since it's less than nine I left the anser","I added 1 to 4 and since it's less than nine I left the anse","I added 1 to 4 and since it's less than nine I left the answer at 5."],"orientation_history":[[0]],"response_history":["5"],"rt":29419,"trial_type":"polygon-arrow-question","trial_index":0,"trial_index_global":54,"time_elapsed":601226,"internal_chunk_id":"0-0.12-0"},{"nsides":9,"question":"What is 8 <img src=./images/nonagon_symbol.png style=width:14px;height:14px> 4? Please explain in words how you got your answer.","response_type":"free","response_choices":[],"correct_response":"3","response":"3","explain":true,"explanation":"I a dded 4 t o 8 and since that answer (12) is greater than 9 I subtracted 9 from it and got 3.","explanation_history":["I added 4 to 8 and since that anser is ","I added 4 to 8 and since that anser is","I added 4 to 8 and since that anser i","I added 4 to 8 and since that anser ","I added 4 to 8 and since that anser","I added 4 to 8 and since that anse","I added 4 to 8 and since that answer is greater than 9 I subr","I added 4 to 8 and since that answer is greater than 9 I subtracted 9 from it and got 3.","I added 4 to 8 and since that answer  is greater than 9 I subtracted 9 from it and got 3.","I added 4 to 8 and since that answer ( is greater than 9 I subtracted 9 from it and got 3.","I added 4 to 8 and since that answer (1 is greater than 9 I subtracted 9 from it and got 3.","I added 4 to 8 and since that answer (12 is greater than 9 I subtracted 9 from it and got 3.","I added 4 to 8 and since that answer (12) is greater than 9 I subtracted 9 from it and got 3."],"orientation_history":[[0]],"response_history":["3"],"rt":41153,"trial_type":"polygon-arrow-question","trial_index":0,"trial_index_global":55,"time_elapsed":642382,"internal_chunk_id":"0-0.12-0"},{"nsides":9,"question":"What is the identity under <img src=./images/nonagon_symbol.png style=width:14px;height:14px>? Please explain in words how you got your answer.","response_type":"free","response_choices":[],"correct_response":"0","response":"0","explain":true,"explanation":"It is 0 because you get back the same number when 0 is applied.","explanation_history":["It is 0 because when you answer","It is 0 because when you answe","It is 0 because when you answ","It is 0 because when you ans","It is 0 because when you an","It is 0 because when you a","It is 0 because when you add 0 ","It is 0 because when you add 0","It is 0 because when you add ","It is 0 because when you add","It is 0 because when you ad","It is 0 because when you a","It is 0 because when you ","It is 0 because when you","It is 0  because  when yo","It is 0 because when y","It is 0 because when ","It is 0 because when","It is 0 because whe","It is 0 because wh","It is 0 because w","It is 0 because you get back the same number when 0 is apple","It is 0 because you get back the same number when 0 is applied."],"orientation_history":[[0]],"response_history":["0"],"rt":59426,"trial_type":"polygon-arrow-question","trial_index":0,"trial_index_global":56,"time_elapsed":701812,"internal_chunk_id":"0-0.12-0"},{"nsides":9,"question":"What is the inverse of 5 under <img src=./images/nonagon_symbol.png style=width:14px;height:14px>?","response_type":"free","response_choices":[],"correct_response":"4","response":"4","explain":false,"explanation":"","explanation_history":[],"orientation_history":[[0],[0,0,0,0,-6.113182672971647,-5.940849425698278,-5.940849425698278,-5.940849425698278,-5.940849425698278,-5.940849425698278,-5.940849425698278,-5.940849425698278,-5.940849425698278,-5.940849425698278,-5.761082371272113,-5.704342144810283,-5.704342144810283,-5.704342144810283,-5.704342144810283,-5.704342144810283,-5.66925572818365,-5.66925572818365,-5.66925572818365,-5.66925572818365,-5.66925572818365,-5.66925572818365,-5.66925572818365,-5.66925572818365,-5.66925572818365,-5.66925572818365,-5.66925572818365,-5.66925572818365,-5.66925572818365,-5.66925572818365,-5.66925572818365,-5.66925572818365,-5.66925572818365,-5.66925572818365,-5.66925572818365,-5.66925572818365,-5.66925572818365,-5.66925572818365,-5.66925572818365,-5.66925572818365,-5.66925572818365,-5.66925572818365,0.6981317007977318],[0.6981317007977318,0.8747541585544785,1.7876246454644393,2.19013729653531,2.3072621802864988,2.4041766458555403,2.515355243415979,2.550812075431349,2.550812075431349,2.5926148962646707,2.5926148962646707,2.6141868029441278,2.6449541479438334,2.7604624082126574,2.7875773708914418,2.7875773708914418,2.7875773708914418,2.7875773708914418,2.7875773708914418,2.7875773708914418,2.7875773708914418,2.7875773708914418,2.7875773708914418,2.7875773708914418,2.7875773708914418,2.7875773708914418,2.7875773708914418,2.7875773708914418,2.7875773708914418,2.7875773708914418,2.7875773708914418,2.7875773708914418,2.7875773708914418,2.7875773708914418,2.7875773708914418,2.7875773708914418,2.7875773708914418,2.7875773708914418,2.7875773708914418,2.7875773708914418,2.7875773708914418,2.7875773708914418,2.7875773708914418,2.7875773708914418,2.7875773708914418,2.7875773708914418,2.7875773708914418,2.792526803190927]],"response_history":["4"],"rt":41946,"trial_type":"polygon-arrow-question","trial_index":0,"trial_index_global":57,"time_elapsed":743763,"internal_chunk_id":"0-0.12-0"},{"nsides":9,"question":"What is the inverse of 2 under <img src=./images/nonagon_symbol.png style=width:14px;height:14px>?","response_type":"free","response_choices":[],"correct_response":"7","response":"7","explain":false,"explanation":"","explanation_history":[],"orientation_history":[[0]],"response_history":["7"],"rt":7315,"trial_type":"polygon-arrow-question","trial_index":0,"trial_index_global":58,"time_elapsed":751093,"internal_chunk_id":"0-0.12-0"},{"nsides":9,"question":"What is the inverse of 0 under <img src=./images/nonagon_symbol.png style=width:14px;height:14px>?","response_type":"free","response_choices":[],"correct_response":"0","response":"0","explain":false,"explanation":"","explanation_history":[],"orientation_history":[[0]],"response_history":["0"],"rt":7588,"trial_type":"polygon-arrow-question","trial_index":0,"trial_index_global":59,"time_elapsed":758691,"internal_chunk_id":"0-0.12-0"},{"nsides":9,"question":"What is the inverse of 3 under <img src=./images/nonagon_symbol.png style=width:14px;height:14px>? Please explain in words how you got your answer.","response_type":"free","response_choices":[],"correct_response":"6","response":"6","explain":true,"explanation":"The inverse is the number needed to be paired with the number such that it returns a 0 so in order to  get a 0  I need to pair it with 6 because the sum is then 9 which I have to subtract 9 and then I get 0.","explanation_history":["the in","the i","the ","the","th","t","the i","the ","the","th","t","The inverse is the number needed to be paired with the number so ","The inverse is the number needed to be paired with the number so","The inverse is the number needed to be paired with the number such that it returns a 0 so when you add 3 to ","The inverse is the number needed to be paired with the number such that it returns a 0 so when you add 3 to","The inverse is the number needed to be paired with the number such that it returns a 0 so when you add 3 t","The inverse is the number needed to be paired with the number such that it returns a 0 so when you add 3 ","The inverse is the number needed to be paired with the number such that it returns a 0 so when you add 3","The inverse is the number needed to be paired with the number such that it returns a 0 so when you add ","The inverse i s the nu mber needed to be paired with the number such that it returns a 0 so when you add","The inverse is the number needed to be paired with the number such that it returns a 0 so when you ad","The inverse is the number needed to be paired with the number such that it returns a 0 so when you a","The inverse is the number needed to be paired with the number such that it returns a 0 so when you ","The inverse is the number needed to be paired with the number such that it returns a 0 so when you","The inverse is the number needed to be paired with the number such that it returns a 0 so when yo","The inverse is the number needed to be paired with the number such that it returns a 0 so when y","The inverse is the number needed to be paired with the number such that it returns a 0 so when ","The inverse is the number needed to be paired with the number such that it returns a 0 so when","The inverse is the number needed to be paired with the number such that it returns a 0 so whe","The i nverse i s the number needed to be paired with the number such that it returns a 0 so wh","The inverse is the number needed to be paired with the number such that it returns a 0 so w","The inverse is the number needed to be paired with the number such that it returns a 0 so in order to get a 0 I need to pair it with 6 because the sum is then 9 which I have to subract 9 and then I got","The inverse is the number needed to be paired with the number such that it returns a 0 so in order to get a 0 I need to pair it with 6 because the sum is then 9 which I have to subract 9 and then I go","The inverse is the number needed to be paired with the number such that it returns a 0 so in order to get a 0 I need to pair it with 6 because the sum is then 9 which I have to subract 9 and then I get 0.","The inverse is the number needed to be paired with the number such that it returns a 0 so in order to get a 0 I need to pair it with 6 because the sum is then 9 which I have to subtract 9 and then I  get 0."],"orientation_history":[[0]],"response_history":["6"],"rt":74704,"trial_type":"polygon-arrow-question","trial_index":0,"trial_index_global":60,"time_elapsed":833398,"internal_chunk_id":"0-0.12-0"},{"nsides":9,"question":"Is 2 a generator under <img src=./images/nonagon_symbol.png style=width:14px;height:14px>? Please explain in words how you got your answer.","response_type":"multi","response_choices":["Yes","No"],"correct_response":"Yes","response":"Yes","explain":true,"explanation":"I can get every number using 2 because it goes 2,4,6,8 and then 2 after that is 1 and thus the odds start 3,5,7 and then it hits 0 so every number is used.","explanation_history":["I can get every number using 2 because it goes 2,4,6,8 and then 2 after that is 1 and thus the odds stgar","I can get every number using 2 because it goes 2,4,6,8 and then 2 after that is 1 and thus the odds stga","I can get every number using 2 because it goes 2,4,6,8 and then 2 after that is 1 and thus the  odds stg ","I can get every number using 2 because it goes 2,4,6,8 and then 2 after that is 1 and thus the odds start 3,5,7 and then it hits 0 so everyt","I can get every number using 2 because it goes 2,4,6,8 and then 2 after that is 1 and thus the odds start 3,5,7 and then it hits 0 so every number is used."],"orientation_history":[[0]],"response_history":["Yes"],"rt":58360,"trial_type":"polygon-arrow-question","trial_index":0,"trial_index_global":61,"time_elapsed":891766,"internal_chunk_id":"0-0.12-0"},{"nsides":9,"question":"Is 3 a generator under <img src=./images/nonagon_symbol.png style=width:14px;height:14px>? Please explain in words how you got your answer.","response_type":"multi","response_choices":["Yes","No"],"correct_response":"No","response":"No","explain":true,"explanation":"No because you can get 3,6 and 0 but there's no way to get the other numbers it always circles back to 3.","explanation_history":["no because ","N because ","NO because ","N because ","No  because  you can get 3,6 and 0 but there's no way to get the other numbers it always s","No because you can get 3,6 and 0 but there's no way to get the other numbers it always circles back to 3."],"orientation_history":[[0]],"response_history":["No"],"rt":1258134,"trial_type":"polygon-arrow-question","trial_index":0,"trial_index_global":62,"time_elapsed":2149909,"internal_chunk_id":"0-0.12-0"},{"nsides":9,"question":"Is 5 a generator under <img src=./images/nonagon_symbol.png style=width:14px;height:14px>? Please explain in words how you got your answer.","response_type":"multi","response_choices":["Yes","No"],"correct_response":"Yes","response":"Yes","explain":true,"explanation":"Yes, because it goes 5,1,6,2,7,3,8,4,0, and then back to 5.","explanation_history":["yes","ye","Yes, because it goes 5,1,6,2,3,","Yes, because it goes 5,1,6,2,3","Yes, because it goes 5,1,6,2,7,3,8,4,0,5","Yes, because it goes 5,1,6,2,7,3,8,4,0, and then back to 5."],"orientation_history":[[0]],"response_history":["Yes"],"rt":60749,"trial_type":"polygon-arrow-question","trial_index":0,"trial_index_global":63,"time_elapsed":2210672,"internal_chunk_id":"0-0.12-0"},{"nsides":9,"question":"Is 6 a generator under <img src=./images/nonagon_symbol.png style=width:14px;height:14px>? Please explain in words how you got your answer.","response_type":"multi","response_choices":["Yes","No"],"correct_response":"No","response":"No","explain":true,"explanation":"No again it goes 6 then 3 then 0 and then back to 6.","explanation_history":["no again it goes 6 then 3 then 0 and then back to 6.","N again it goes 6 then 3 then 0 and then back to 6.","No again it goes 6 then 3 then 0 and then back to 6."],"orientation_history":[[0]],"response_history":["No"],"rt":21695,"trial_type":"polygon-arrow-question","trial_index":0,"trial_index_global":64,"time_elapsed":2232373,"internal_chunk_id":"0-0.12-0"},{"nsides":"n","instructions":"Now we'd like to ask you some questions about <img src=./im ages/ngo n_symbol.png style=width:14px;height:14px>, where n could be any postive counting number. For example, n could be 3, and the polygon a triangle, or n could be any other counting number you can think of, in which case the corresponding polygon would have n sides. Just as before, you can use either the polygon or arithmetic methods. If you need to write the operation, you can use (n), and your answers can include n to stand in for the arbitrary value if necessary. (You can use the polygon at the right to think, but it doesn't necessarily correspond to the real polygon, which is why we've left most of it dashed.)","orientation_history":[0],"rt":18163,"trial_type":"polygon-arrow-instructions","trial_index":0,"trial_index_global":65,"time_elapsed":2250544,"internal_chunk_id":"0-0"},{"nsides":"n","question":"What is the formula for the inverse of 1 under <img src=./images/ngon_symbol.png style=width:14px;height:14px>?","response_type":"free","response_choices":[],"correct_response":"n-1","response":"n-1","explain":false,"explanation":"","explanation_history":[],"orientation_history":[[0]],"response_history":["n-1"],"rt":35063,"trial_type":"polygon-arrow-question","trial_index":0,"trial_index_global":66,"time_elapsed":2285611,"internal_chunk_id":"0-0.14-0"},{"nsides":"n","question":"What is the formula for the inverse of an element x under <img src=./images/ngon_symbol.png style=width:14px;height:14px>? Please explain in words how you got your answer.","response_type":"free","response_choices":[],"correct_response":"n-x","response":"n-x except when x=0 then it's x","explain":true,"explanation":"except in the case of 0 (which is always 0)the inverse is always the sum of the two numbers to equal n so you would need to subtract a number from n to find the inverse.","explanation_history":["except in the case of 0 the invers ","except in the case of 0 the inverse is always the sum of teh ","except in the case of 0 the inverse is always th e sum of  teh","except in the case of 0 the inverse is always the sum of te","except in the case of 0 the inverse is always the sum of the two numbers su ","except in the case of 0 the inverse is always the sum of the two numbers su","except in the case of 0 the inverse is always the sum of the two numbers so you subra","except in the case of 0 the inverse is always the sum of the two numbers so you subr","except in the case of 0 the inverse is always the sum of the two numbers so you subtrac","except in the case of 0 the inverse is always the sum of the two numbers so you subtra","except in the case of 0 the inverse is always the sum of the two numbers so you subtr","except in the case of 0 the inverse is always the sum of the two numbers so you subt","except in the case of 0 the inverse is always the sum of the two numbers so you sub","except in the case of 0 the inverse is always the sum of the two numbers s","except in the case of 0 the inverse is always the sum of the two number s to eau l","except in the case of 0 the inverse is always the sum of the two numbers to eau","except in the case of 0 the inverse is always the sum of the two numbers to ea","except in the case of 0 the inverse is always the sum of the two numbers to equal n su ","except in the case of 0 the inverse is always the sum of the two numbers to equal n su","except in the case of 0 the inverse is always the sum of the two numbers to equal n so you would need to subtract a number from i","except in the case of 0 the inverse is always the sum of the two numbers to equal n so you would need to subtract a number from n to find the inverse.","except in the case of 0 (the inverse is always the sum of the two numbers to equal n so you would need to subtract a number from n to find the inverse.","except in the case of 0 (whthe inverse is always the sum of the two numbers to equal n so you would need to subtract a number from n to find the inverse.","except in the case of 0 (whithe inverse is alway s the su m of the two numbers to equal n so you would need to subtract a number from n to find the inverse.","except in the case of 0 (whichthe inverse is always the sum of the two numbers to equal n so you would need to subtract a number from n to find the inverse.","except in the case of 0 (which the inverse is always the sum of the two numbers to equal n so you would need to subtract a number from n to find the inverse.","except in the case of 0 (which ithe inverse is always the sum of the two numbers to equal n so you would need to subtract a number from n to find the inverse.","except in the case of 0 (which isthe inverse is always the sum of the two numbers to equal n so you would need to subtract a number from n to find the inverse.","except in the case of 0 (which is the inverse is always the sum of the two numbers to equal n so you would need to subtract a number from n to find the inverse.","except in the case of 0 (which is athe inverse is always the sum of the two numbers  to equa l n so you would need to subtract a number from n to find the inverse.","except in the case of 0 (which is althe inverse is always the sum of the two numbers to equal n so you would need to subtract a number from n to find the inverse.","except in the case of 0 (which is alwthe inverse is always the sum of the two numbers to equal n so you would need to subtract a number from n to find the inverse.","except in the case of 0 (which is alwathe inverse is always the sum of the two numbers to equal n so you would need to subtract a number from n to find the inverse.","except in the case of 0 (which is alwasthe inverse is always the sum of the two numbers to equal n so you would need to subtract a number from n to find the inverse.","except in the case of 0 (which is alwasythe inverse is always the sum of the two numbers to equal n so you would need to subtract a number from n to find the inverse.","except in the case of 0 (which is alwasthe inverse is always the sum of the two n umbers t o equal n so you would need to subtract a number from n to find the inverse.","except in the case of 0 (which is alwathe inverse is always the sum of the two numbers to equal n so you would need to subtract a number from n to find the inverse.","except in the case of 0 (which is alwaythe inverse is always the sum of the two numbers to equal n so you would need to subtract a number from n to find the inverse.","except in the case of 0 (which is alwaysthe inverse is always the sum of the two numbers to equal n so you would need to subtract a number from n to find the inverse.","except in the case of 0 (which is always the inverse is always the sum of the two numbers to equal n so you would need to subtract a number from n to find the inverse.","except in the case of 0 (which is always 0the inverse is always the sum of the two numbers to equal n so you would need to subtract a number from n to find the inverse.","except in the case of 0 (which is always 0)the inverse is always  the sum  of the two numbers to equal n so you would need to subtract a number from n to find the inverse."],"orientation_history":[[0]],"response_history":["x-x","x-","x","n-x except when x=0 then x","n-x except when x=0 then x","n-x except when x=0 then it's x"],"rt":116152,"trial_type":"polygon-arrow-question","trial_index":0,"trial_index_global":67,"time_elapsed":2401768,"internal_chunk_id":"0-0.14-0"},{"nsides":"n","question":"Is there a pattern to which elements are generators? How can you know if an element x is a generator under <img src=./images/ngon_symbol.png style=width:14px;height:14px> without seeing whether it can make all the elements?.","response_type":"free","response_choices":[],"correct_response":"","response":"If the number is a factor of that number it's not a generator all non factors are generators (besides 1).","explain":false,"explanation":"","explanation_history":[],"orientation_history":[[0]],"response_history":["if the number is a factor of that nu mber it' s not a generator other ","if the number is a factor of that number it's not a generator other","if the number is a factor of that number it's not a generator othe","if the number is a factor of that number it's not a generator oth","if the number is a factor of that number it's not a generator ot","if the number is a factor of that number it's not a generator o","if the number is a factor of that number it's not a generator all non factors are generators (besides 1).","If the number is a factor of that number it's not a generator all non factors are generators (besides 1)."],"rt":66745,"trial_type":"polygon-arrow-question","trial_index":0,"trial_index_global":68,"time_elapsed":2468525,"internal_chunk_id":"0-0.14-0"},{"nsides":"n","question":"True or false: If x is an odd number, it must be a generator under <img src=./images/ngon_symbol.png style=width:14px;height:14px>.","response_type":"multi","response_choices":["True","False"],"correct_response":"False","response":"Fals e","explain":false,"explanation":"","explanation_history":[],"orientation_history":[[0]],"response_history":["False"],"rt":6661,"trial_type":"polygon-arrow-question","trial_index":0,"trial_index_global":69,"time_elapsed":2475208,"internal_chunk_id":"0-0.14-0"},{"nsides":"n","question":"True or false: If x is an even number, it must not be a generator under <img src=./images/ngon_symbol.png style=width:14px;height:14px>.","response_type":"multi","response_choices":["True","False"],"correct_response":"False","response":"False","explain":false,"explanation":"","explanation_history":[],"orientation_history":[[0]],"response_history":["False"],"rt":3420,"trial_type":"polygon-arrow-question","trial_index":0,"trial_index_global":70,"time_elapsed":2478632,"internal_chunk_id":"0-0.14-0"},{"nsides":"n","question":"True or false: If x is not a generator under <img src=./images/ngon_symbol.png style=width:14px;height:14px>, x must be a divisor of n, that is, x must divide  n evenl y, with no remainder.","response_type":"multi","response_choices":["True","False"],"correct_response":"False","response":"True","explain":false,"explanation":"","explanation_history":[],"orientation_history":[[0]],"response_history":["True"],"rt":11416,"trial_type":"polygon-arrow-question","trial_index":0,"trial_index_global":71,"time_elapsed":2490055,"internal_chunk_id":"0-0.14-0"},{"nsides":"n","question":"True or false: If x is not a generator under <img src=./images/ngon_symbol.png style=width:14px;height:14px>, x must be a multiple of a divisor of n. Please explain in words how you got your answer.","response_type":"multi","response_choices":["True","False"],"correct_response":"True","response":"True","explain":true,"explanation":"Because if it's a multiple or divisor it will land back on itself and not allow it to get to the numbers it skipped over the first time around.","explanation_history":["Because if it's a multiple or divisor it will a","Because if it's  a multip le or divisor it will land back on it'","Because if it's a multiple or divisor it will land back on itse;","Because if it's a multiple or divisor it will land back on itself and not allow it to get to the numbers it skipped over the v","Because if it's a multiple or divisor it will land back on itself and not allow it to get to the numbers it skipped over the first time around."],"orientation_history":[[0]],"response_history":["True"],"rt":36072,"trial_type":"polygon-arrow-question","trial_index":0,"trial_index_global":72,"time_elapsed":2526134,"internal_chunk_id":"0-0.14-0"},{"nsides":"n","question":"If an element x is a generator under <img src=./images/ngon_symbol.png style=width:14px;height:14px>, is its inverse a generator under <img src=./images/ngon_symbol.png style=width:14px;height:14px> always, sometimes, or never?","response_type":"multi","response_choices":["Always","Sometimes","Never"],"correct_response":"Always","response":"Always","explain":false,"explanation":"","explanation_history":[],"orientation_history":[[0]],"response_history":["Always","Sometimes","Always"],"rt":54016,"trial_type":"polygon-arrow-question","trial_index":0,"trial_index_global":73,"time_elapsed":2580154,"internal_chunk_id":"0-0.14-0"},{"nsides":"n","question":"if an element x is a generator under <img src=./images/ngon_symbol.png style=width:14px;height:14px>, is x <img src=./images/ngon_symbol.png style=width:14px;height:14px> x a generator under <img src=./images/ngon_symbol.png style=width:14px;height:14px> always, sometimes, or never? Please explain in words how you got your answer.","response_type":"multi","response_choices":["Always","Sometimes","Never"],"correct_response":"Sometimes","response":"Always","explain":true,"explanation":"They have an inverse skipping increment which patterns the numbers it generates backwards.","explanation_history":["They have the same incrime","They have the same incrim","They have the sam e incri","They have the same incr","They have the same inc","They have the same in","They have the same i","They have the same skipping incrim","They have the same skipping incri","They have the same skipping increment ","They have the sa","They have the s","They have the ","They have the","They have th","They have t","They have an inverse skipping increment which patters","They have an inverse skipping increment which patterns the numbers back","They have an inverse skipping increment which patterns the numbers bac","They have an inverse skipping increment which patterns the numbers ba","They have an inverse skipping increment which patterns the numbers b","They have an inverse skipping increment which patterns the numbers it generates backwards."],"orientation_history":[[0]],"response_history":["Always"],"rt":56023,"trial_type":"polygon-arrow-question","trial_index":0,"trial_index_global":74,"time_elapsed":2636183,"internal_chunk_id":"0-0.14-0"},{"nsides":"n","question":"If an ele ment x i s not a generator under <img src=./images/ngon_symbol.png style=width:14px;height:14px>, is x <img src=./images/ngon_symbol.png style=width:14px;height:14px> x a generator under <img src=./images/ngon_symbol.png style=width:14px;height:14px> always, sometimes, or never?","response_type":"multi","response_choices":["Always","Sometimes","Never"],"correct_response":"Never","response":"Never","explain":false,"explanation":"","explanation_history":[],"orientation_history":[[0]],"response_history":["Sometimes","Never"],"rt":37729,"trial_type":"polygon-arrow-question","trial_index":0,"trial_index_global":75,"time_elapsed":2673916,"internal_chunk_id":"0-0.14-0"},{"instructions":"Now we'd like you to do a few of the questions and tell us how much you're using the arithmetic and polygon methods to solve them. We'll give you a demonstration of the response screen first.<br /><br />Press continue when you're ready to begin.","rt":4598,"trial_type":"instructions","trial_index":0,"trial_index_global":76,"time_elapsed":2678517,"internal_chunk_id":"0-0.15-0"},{"nsides":9,"added_prompt":"<i>This is a demo response screen. You can respond independently to both questions, so it's okay to say you used both methods.</i><br /><br />","polygon_response":"1","modular_response":"4","rt":10098,"trial_type":"polygon-arrow-which-representation","trial_index":0,"trial_index_global":77,"time_elapsed":2688620,"internal_chunk_id":"0-0.15-0"},{"question":"<i>This is a demo response screen.</i><br /><br />Please describe in as much detail as possible how you used the arithmetic method, polygon method, or both for the problem.","response_type":"free","response_choices":[],"correct_response":"","response":"It was simply a lot easier to add and then see if I needed to subtract for most of the problems.  Although when it came to the generating and inverse sometimes it was helpful to visualize it rather than simply go through all the numbers.","explain":false,"explanation":" ","explanation_history":[],"response_history":["It was simply a lot easier to add and then fi","It was simply a lot easier to add and then f","It was simply a lot easier to add and then see if I needed to subtrack","It was simply a lot easier to add and then see if I needed to subtract for most of the problems.  Although it ","It was simply a lot easier to add and then see if I needed to subtract for most of the problems.  Although it","It was simply a lot easier to add and then see if I needed to subtract for most of the problems.  Although i","It was simply a lot easier to add and then see if I needed to subtract for most of the problems.  Although when it came to the generating and inverse sometimes it was helpful to visualize it rather than simply keep ","It was simply a lot easier to add and then see if I needed to subtract for most of the problems.  Although when it came to the generating and inverse sometimes it was helpful to visualize it rather than simply keep","It  was sim ply a lot easier to add and then see if I needed to subtract for most of the problems.  Although when it came to the generating and inverse sometimes it was helpful to visualize it rather than simply kee","It was simply a lot easier to add and then see if I needed to subtract for most of the problems.  Although when it came to the generating and inverse sometimes it was helpful to visualize it rather than simply ke","It was simply a lot easier to add and then see if I needed to subtract for most of the problems.  Although when it came to the generating and inverse sometimes it was helpful to visualize it rather than simply k","It was simply a lot easier to add and then see if I needed to subtract for most of the problems.  Although when it came to the generating and inverse sometimes it was helpful to visualize it rather than simply a","It was simply a lot easier to add and then see if I needed to subtract for most of the problems.  Although when it came to the generating an d invers e sometimes it was helpful to visualize it rather than simply go through all the numbers."],"rt":73184,"trial_type":"question","trial_index":0,"trial_index_global":78,"time_elapsed":2761812,"internal_chunk_id":"0-0.15-0"},{"instructions":"Great! Now we have a few questions for you to do (some of which you may have seen earlier), and after each question you will tell us how much you used the polygon and arithmetic methods.<br /><br />Press continue when you're ready to begin.","rt":3864,"trial_type":"instructions","trial_index":0,"trial_index_global":79,"time_elapsed":2765689,"internal_chunk_id":"0-0.15-0"},{"nsides":9,"question":"Please answer the following question:<br /><br />What is the inverse of 4 under <img src=./images/nonagon_symbol.png style=width:14px;height:14px>?","response_type":"free","response_choices":[],"correct_response":"5","response":"5","explain":false,"explanation":"","explanation_history":[],"orientation_history":[[0]],"response_history":["5"],"rt":5906,"trial_type":"polygon-arrow-question","trial_index":0,"trial_index_global":80,"time_elapsed":2771598,"internal_chunk_id":"0-0.15-0"},{"nsides":9,"question":"Please answer the following question:<br /><br />What is the inverse of 4 under <img src=./images/nonagon_symbol.png style=width:14px;height:14px>?","added_prompt":"","polygon_response":"0","modular_response":"4","rt":4414,"trial_type":"polygon-arrow-which-representation","trial_index":0,"trial_index_global":81,"time_elapsed":2776016,"internal_chunk_id":"0-0.15-0"},{"question":"Please describe in as much detail as possible how you used the arithmetic method, polygon method, or both for the problem.","response_type":"free","response_choices":[],"correct_response":"","response":"Again I know the formula now so it's just quicker to subtract in my head rather than use the polygon.","explain":false,"explanation":"","explanation_history":[],"response_history":["Again I no","Again I n","Again I know the formula now so  it's js ut ","Again I know the formula now so it's jsut","Again I know the formula now so it's jsu","Again I know the formula now so it's js","Again I know the formula now so it's just w","Again I know the formula now so it's just quicker to d","Again I know the formula now so it's just quicker to subtrack","Again I know the formula now so it's just quicker to subtract in my head rather than ust","Again I know the formula now so it's just quicker to subtract in my head rather than use the polo","Again I know the formula now so it's just quicker to subtract in my head rather than use the polygon."],"rt":28513,"trial_type":"question","trial_index":0,"trial_index_global":82,"time_elapsed":2804538,"internal_chunk_id":"0-0.15-0"},{"nsides":9,"question":"Please answer the following question:<br /><br />What is the inverse of 0 under <img src=./images/nonagon_symbol.png style=width:14px;height:14px>?","response_type":"free","response_choices":[],"correct_response":"0","response":"0 ","explain":false,"explanation":"","explanation_history":[],"orientation_history":[[0]],"response_history":["0"],"rt":4147,"trial_type":"polygon-arrow-question","trial_index":0,"trial_index_global":83,"time_elapsed":2808688,"internal_chunk_id":"0-0.15-0"},{"nsides":9,"question":"Please answer the following question:<br /><br />What is the inverse of 0 under <img src=./images/nonagon_symbol.png style=width:14px;height:14px>?","added_prompt":"","polygon_response":"0","modular_response":"4","rt":5122,"trial_type":"polygon-arrow-which-representation","trial_index":0,"trial_index_global":84,"time_elapsed":2813816,"internal_chunk_id":"0-0.15-0"},{"question":"Please describe in as much detail as possible how you used the arithmetic method, polygon method, or both for the problem.","response_type":"free","response_choices":[],"correct_response":"","response":"Again 0 is always the inverse of itself so it's a no brainer and I didn't really have to use either method just that bit of i nformati on.","explain":false,"explanation":"","explanation_history":[],"response_history":["Again the ","Again the","Again th","Again t","Again 0 is always the inverse of itself so it's a no braing","Again 0 is always the inverse of itself so it's a no brainer ","Again 0 is always the inverse of itself so it's a no brainer","Again 0 is always the inverse of itself so it's a no brainer and I didn't really have to use either method just that bit of information."],"rt":32327,"trial_type":"question","trial_index":0,"trial_index_global":85,"time_elapsed":2846149,"internal_chunk_id":"0-0.15-0"},{"nsides":9,"question":"Please answer the following question:<br /><br />Is 4 a generator under <img src=./images/nonagon_symbol.png style=width:14px;height:14px>?","response_type":"Multi","response_choices":["Yes","No"],"correct_response":"Yes","response":"Yes","explain":false,"explanation":"","explanation_history":[],"orientation_history":[[0]],"response_history":["Yes"],"rt":4797,"trial_type":"p olygon-arrow-question","trial_index":0,"trial_index_global":86,"time_elapsed":2850954,"internal_chunk_id":"0-0.15-0"},{"nsides":9,"question":"Please answer the following question:<br /><br />Is 4 a generator under <img src=./images/nonagon_symbol.png style=width:14px;height:14px>?","added_prompt":"","polygon_response":"1","modular_response":"3","rt":4934,"trial_type":"polygon-arrow-which-representation","trial_index":0,"trial_index_global":87,"time_elapsed":2855892,"internal_chunk_id":"0-0.15-0"},{"question":"Please describe in as much detail as possible how you used the arithmetic method, polygon method, or both for the problem.","response_type":"free","response_choices":[],"correct_response":"","response":"I can visualize it going around the clock as well as I know it's going to not go evenly into 9 so it's going to hit all the numbers eventually.","explain":false,"explanation":"","explanation_history":[],"response_history":["I can visualize it going around teh  clo","I  can visualize it going around teh cl","I can visualize it going around teh c","I can visualize it going around teh ","I can visualize it going around teh","I can visualize it going around te","I can visualize it going around the c","I can visualize it going around the clock and ","I can visualize it going around the clock and","I can visualize it going around the clock an","I can visualize it going around the clock as well as I know it's going to not go i","I can visualize it going around the clock as well as I know it's going to not go evenly into 9 so it's going to hit all the numbers eventuallyl.","I can visualize it going around the clock as well as I know it's going to not go evenly into 9 so it's going to hit all the numbers eventuallyl","I can visualize it going around the clock as well as I know it's going to not go evenly into 9 so it's going to hit all the numbers eventually."],"rt":51229,"trial_type":"question","trial_index":0,"trial_index_global":88,"time_elapsed":2907136,"internal_chunk_id":"0-0.15-0"},{"nsides":"n","question":"Please answer the following question:<br /><br />True or false: If x divides n, it must not be a generator under <img src=./images/ngon_symbol.png style=width:14px;height:14px>.","response_type":"multi","response_choices":["True","False"],"correct_response":"True","response":"True","explain":false,"explanation":"","explanation_history":[],"orientation_history":[[0]],"response_history":["True"],"rt":8001,"trial_type":"polygon-arrow-question","trial_index":0,"trial_index_global":89,"time_elapsed":2915150,"internal_chunk_id":"0-0.15-0"},{"nsides":"n","question":"Please answer the following question:<br /><br />True or false: If x divides n, it must not be a generator under <img src=./images/ngon_symbol.png style=width:14px;height:14px>.","added_prompt":"","polygon_response":"0","modular_response":"4","rt":4844,"trial_type":"polygon-arrow-which-representation","trial_index":0,"trial_index_global":90,"time_elapsed":2919999,"internal_chunk_id":"0-0.15-0"},{"question":"Please describe in as much detail as possible how you used the arithmetic method, polygon method, or both for the problem.","response_type":"free","response_choices":[],"correct_response":"","response":"Again that's the math of it.  If it evenly divides into n it will end up back on itself the first round so it's a little of both actually.","explain":false,"explanation":"","explanation_history":[],"response_history":["Again that's the math of it if it ","Again that's the math of it if it","Again that's the math of it if i","Again that's the math of it if ","Again that's the math of it if","Again that's the math of it i","Again that's the math of it ","Again that's the math of it.  If it even l","Again that's the math of it.  If it even ","Again that's the math of it.  If it evenly dive","Again that's the math of it.  If it evenly divides into n it will end up back on itself the first round s o it's a  little of both acut","Again that's the math of it.  If it evenly divides into n it will end up back on itself the first round so it's a little of both acu","Again that's the math of it.  If it evenly divides into n it will end up back on itself the first round so it's a little of both actually."],"rt":26985,"trial_type":"question","trial_index":0,"trial_index_global":91,"time_elapsed":2946996,"internal_chunk_id":"0-0.15-0"},{"instructions":"We would like to ask you some questions about your background. Please press Continue to continue.","rt":1433,"trial_type":"instructions","trial_index":0,"trial_index_global":92,"time_elapsed":2948434,"internal_chunk_id":"0-0.16-0"},{"question":"What is your age?","response_type":"free","response_choices":[],"correct_response":"","response":"45","explain":false,"explanation":"","explanation_history":[],"response_history":["45"],"rt":2118,"trial_type":"question","trial_index":0,"trial_index_global":93,"time_elapsed":2950555,"internal_chunk_id":"0-0.16-0"},{"question":"What is your level of education?","response_type":"multi","response_choices":["Did not graduate high school","High school diploma","Some college, no degree","Associates Degree","Bachelors Degree","Some graduate school, no degree","Masters Degree","Doctorate, M.D., etc."],"correct_response":"","response":"Some college, no degree","explain":false,"explanation":"","explanation_history":[],"response_history":["Some college, no degree"],"rt":2980,"trial_type":"question","trial_index":0,"trial_index_global":94,"time_elapsed":2953540,"internal_chunk_id":"0-0.16-0"},{"question":"What is the most advanced math class you've completed? If you have multiple classes and you're not sure which one is most advanced, please list them.","response_type":"free","response_choices":[],"correct_response":"","response":"Calculus","explain":false,"explanation":"","explanation_history":[],"response_history":["Calculus"],"rt":7158,"trial_type":"question","trial_index":0,"trial_index_global":95,"time_elapsed":2960702,"internal_chunk_id":"0-0.16-0"},{"question":"How familiar are you with the concept of modular arithmetic?","response_type":"multi","response_choices":["1 - never heard of it","2 - heard of it but didn't know what it was","3 - seen it used or explained","4 - used it but not often or recently","5 - used it, remember and understand it"],"correct_response":"1","response":"2 - heard of it but didn't know what it was","explain":false,"explanation":"","explanation_history":[],"response_history":["2 - heard of it but didn't know what it was"],"rt":5353,"trial_type":"question","trial_index":0,"trial_index_global":96,"time_elapsed":2966059,"internal_chunk_id":"0-0.16-0"},{"question":"How familiar are you with the concept of a mathematical group?","response_type":"multi","response_choices":["1 - never heard of it","2 - heard of it but didn't know what it was","3 - seen it used or explained","4 - used it but not often or recently","5 - used it, remember  and und erstand it"],"correct_response":"1","response":"3 - seen it used or explained","explain":false,"explanation":"","explanation_history":[],"response_history":["3 - seen it used or explained"],"rt":7137,"trial_type":"question","trial_index":0,"trial_index_global":97,"time_elapsed":2973200,"internal_chunk_id":"0-0.16-0"},{"question":"Do you feel you learned something from this HIT?","response_type":"multi","response_choices":["1 - not at all","2 - somewhat","3 - definitely"],"correct_response":"1","response":"3 - definitely","explain":false,"explanation":"","explanation_history":[],"response_history":["3 - definitely"],"rt":3789,"trial_type":"question","trial_index":0,"trial_index_global":98,"time_elapsed":2976995,"internal_chunk_id":"0-0.16-0"},{"question":"Do you feel you understood the concepts in this HIT?","response_type":"multi","response_choices":["1 - not at all","2 - somewhat","3 - definitely"],"correct_response":"1","response":"3 - definitely","explain":false,"explanation":"","explanation_history":[],"response_history":["3 - definitely"],"rt":2031,"trial_type":"question","trial_index":0,"trial_index_global":99,"time_elapsed":2979033,"internal_chunk_id":"0-0.16-0"},{"question":"Did you enjoy this HIT?","response_type":"multi","response_choices":["1 - not at all","2 - somewhat","3 - definitely"],"correct_response":"1","response":"3 - definitely","explain":false,"explanation":"","explanation_history":[],"response_history":["3 - definitely"],"rt":2355,"trial_type":"question","trial_index":0,"trial_index_global":100,"time_elapsed":2981392,"internal_chunk_id":"0-0.16-0"},{"question":"What is your gender?","response_type":"multi","response_choices":["Female","Male","Other"],"correct_response":"","response":"Male","explain":false,"explanation":"","explanation_history":[],"response_history":["Male"],"rt":2007,"trial_type":"question","trial_index":0,"trial_index_global":101,"time_elapsed":2983404,"internal_chunk_id":"0-0.16-0"},{"question":"What is/are you r native  language(s)? (The languages spoken in your household when you were a child.)","response_type":"free","response_choices":[],"correct_response":"","response":"English","explain":false,"explanation":"","explanation_history":[],"response_history":["English"],"rt":4355,"trial_type":"question","trial_index":0,"trial_index_global":102,"time_elapsed":2987762,"internal_chunk_id":"0-0.16-0"},{"question":"Did you use pen and paper at any point on this HIT?","response_type":"free","response_choices":[],"correct_response":"","response":"no","explain":false,"explanation":"","explanation_history":[],"response_history":["no"],"rt":5763,"trial_type":"question","trial_index":0,"trial_index_global":103,"time_elapsed":2993527,"internal_chunk_id":"0-0.16-0"},{"question":"Do you have any comments on this HIT?","response_type":"free","response_choices":[],"correct_response":"","response":"Again it was pretty interesting I don't do advance math much anymore.","explain":false,"explanation":"","explanation_history":[],"response_history":["Again it was pretty inters","Again it was pretty interesting I don't do advance mant","Again it was pretty interesting I don't do advance man","Again it was pretty interesting I don't do advance math much anymore."],"rt":14373,"trial_type":"question","trial_index":0,"trial_index_global":104,"time_elapsed":3007904,"internal_chunk_id":"0-0.16-0"}]