[{"nsides":6,"instructions":"Let's define a new operation <img src=./images/hexagon_symbol.png style=width:14px;height:14px>. This operation will give us a way of combining two of the numbers 0, 1, 2, 3, 4, 5 to get another one of them back. To perform <img src=./images/hexagon_symbol.png style=width:14px;height:14px>, you can either use a method based on the hexagon at right, or a method based on arithmetic.<br /><b>Hexagon method:</b> you can use the interactive diagram on the right, or perform the operation in your mind. Point the arrow at the first number on the hexagon by clicking, then click (or click and drag) to move the arrow the second number of points clockwise around the hexagon. The number the arrow arrives at is your result. (The operation is called <img src=./images/hexagon_symbol.png style=width:14px;height:14px> because it uses the hexagon, which has 6 sides.) <br ><b>Arithmetic method:</b> you start with the first number, and then add  the sec ond one to it. If the sum is smaller than 6, that's your result. If the sum is 6 or bigger, you subtract 6 to get your result. <br /><br />For example, 3 <img src=./images/hexagon_symbol.png style=width:14px;height:14px> 5 = 2, because 5 steps clockwise from 3 on the hexagon brings us to 2. Equivalently, 3 + 5 = 8, and 8 is bigger than 6, so we subtract 6, and 8 - 6 = 2. So 3 <img src=./images/hexagon_symbol.png style=width:14px;height:14px> 5 = 2.<br /><br />Similarly, 1 <img src=./images/hexagon_symbol.png style=width:14px;height:14px> 4 = 5, because 1 + 4 = 5, and 5 is less than 6 so we leave it alone. Equivalently, 4 steps clockwise from 1 on the hexagon brings us to 5. <br /><br />Click Continue when you're ready to move on.","orientation_history":[0,[0.01515035587476965,0.372987721800061,0],[0.020830320036216987,0.020830320036216987,0.020830320036216987,0.020830320036216987,0.020830320036216987,0.020830320036216987,0.5971766580926775,1.0471975511965976],[0.05258306161094173,0.46364760900080615,0.46364760900080615,0.46364760900080615,0.46364760900080615,0],[1.1257801020393552,1.1257801020393552,1.1257801020393552,1.1257801020393552,1.1257801020393552,1.1257801020393552,1.1257801020393552,1.1257801020393552,1.1257801020393552,1.0471975511965976],[5.32019097649865,5.32019097649865,5.32019097649865,5.32019097649865,5.32019097649865,5.32019097649865,5.32019097649865,5.32019097649865,5.235987755982988],[3.4877286171591537,3.4877286171591537,3.4877286171591537,3.4877286171591537,3.4877286171591537,3.4877286171591537,3.141592653589793],[1.987498587534295,2.0943951023931953],[1.0303768265243125,1.0471975511965976],[2.251317551462111,2.251317551462111,2.0943951023931953],[1.1479424006619559,1.0471975511965976],[0.04542327942157698,0.04542327942157698,0.04542327942157698,0.04542327942157698,0],[5.132039842519793,5.132039842519793,5.235987755982988],[4.051345811534003,4.051345811534003,4.051345811534003,4.051345811534003,4.051345811534003,4.051345811534003,4.051345811534003,4.051345811534003,4.1887902047863905],[3.257947818796668,3.257947818796668,3.257947818796668,3.257947818796668,3.257947818796668,3.257947818796668,3.257947818796668,3.257947818796668,3.257947818796668,3.141592653589793],[4.169437839953097,4.169437839953097,4.169437839953097,4.169437839953097,4.169437839953097,4.169437839953097,4.1887902047863905],[5.156171653134331,5.156171653134331,5.156171653134331,5.156171653134331,5.156171653134331,5.156171653134331,5.235987755982988],[0.14784936525875558,0.14784936525875558,0.14784936525875558,0.14784936525875558,0.14784936525875558,0.14784936525875558,0.14784936525875558,0.14784936525875558,0],[1.2722973952087173,1.2722973952087173,1.2722973952087173,1.0471975511965976],[2.325276510629302,2.325276510629302,2.325276510629302,2.325276510629302,2.325276510629302,2.325276510629302,2.3353641701561276,2.3458855770461016,2.0943951023931953]],"rt":97286,"trial_type":"polygon-arrow-instructions","trial_index":0,"trial_index_global":1,"time_elapsed":154466,"internal_chunk_id":"0-0"},{"nsides":6,"instructions":"Do you see how the different ways of performing <img src=./images/hexagon_symbol.png style=width:14px;height:14px> give the same result? By labeling the points of the hexagon with the numbers from 0 to 5, we ensure that when we combine two numbers using the hexagon, we only produce numbers between 0 and 5. When we use the arithmetic strategy, adding the second number to the first mimics counting around the hexagon, and subtracting 6 each time we get above 5 makes sure the results correspond to the numbers on the points of the hexagon. <br /><br />Click Continue when you're ready to move on.","orientation_history":[0],"rt":11653,"trial_type":"polygon-arrow-instructions","trial_index":0,"trial_index_global":2,"time_elapsed":166124,"internal_chunk_id":"0-0"},{"nsides":6,"question":"Now try one on your own! What is 4 <img src=./images/hexagon_symbol.png style=width:1 4px;heig ht:14px> 5? <br /><br /> (Remember, to perform <img src=./images/hexagon_symbol.png style=width:14px;height:14px>, you can either use a method based on the hexagon at right, or a method based on arithmetic.<br /><br /><b>Hexagon method:</b> you can use the interactive diagram on the right, or perform the operation in your mind. Point the arrow at the first number, then move the arrow the second number of points clockwise around the hexagon. The number the arrow arrives at is your result. <br /><br /><b>Arithmetic method:</b> you start with the first number, and then add the second one to it. If the sum is smaller than 6, that's your result. If the sum is 6 or bigger, you subtract 6 to get your result.)","response_type":"free","response_choices":[],"correct_response":"3","response":"3","explain":false,"explanation":"","explanation_history":[],"orientation_history":[[0],[4.108310591388731,4.1887902047863905],[4.1887902047863905],[4.1887902047863905]],"response_history":["3"],"rt":63575,"trial_type":"polygon-arrow-question","trial_index":0,"trial_index_global":3,"time_elapsed":229702,"internal_chunk_id":"0-0.3-0"},{"nsides":6,"feedback":"Correct! 4 <img src=./images/hexagon_symbol.png style=width:14px;height:14px> 5 = 3 because 5 steps clockwise on the hexagon from 4 brings us to 3. Equivalently, 4 + 5 = 9 and 9 - 6 = 3.","orientation_history":[0],"rt":2388,"trial_type":"polygon-arrow-feedback","trial_index":0,"trial_index_global":4,"time_elapsed":232096,"internal_chunk_id":"0-0.3-0"},{"nsides":6,"question":"What is 3 <img src=./images/hexagon_symbol.png style=width:14px;height:14px> 2? Try to solve this problem using the hexagon. <br /><br /> (Remember, to perform <img src=./images/hexagon_symbol.png style=width:14px;height:14px> on the hexagon, you can use the interactive diagram on the right, or perform the operation in your mind. Point the arrow at the first number on the hexagon, and then move the arrow the second nu mber of  points clockwise around the hexagon.)","response_type":"free","response_choices":[],"correct_response":"5","response":"5","explain":false,"explanation":"","explanation_history":[],"orientation_history":[[0]],"response_history":["5"],"rt":3994,"trial_type":"polygon-arrow-question","trial_index":0,"trial_index_global":5,"time_elapsed":236092,"internal_chunk_id":"0-0.3-0"},{"nsides":6,"feedback":"Correct! 3 <img src=./images/hexagon_symbol.png style=width:14px;height:14px> 2 = 5 because 2 steps clockwise on the hexagon from 3 brings us to 5. Equivalently, 3 + 2 = 5 and 5 is less than 6.","orientation_history":[0],"rt":1087,"trial_type":"polygon-arrow-feedback","trial_index":0,"trial_index_global":6,"time_elapsed":237182,"internal_chunk_id":"0-0.3-0"},{"nsides":6,"question":"What is 1 <img src=./images/hexagon_symbol.png style=width:14px;height:14px> 5? Try to solve this probem using the arithmetic technique. <br /><br /> (Remember, to perform <img src=./images /hexagon _symbol.png style=width:14px;height:14px> by arithmetic, you start with the first number, and then add the second one to it. If the sum is smaller than 6, that's your result. If the sum is 6 or bigger, you subtract 6 to get your result.)","response_type":"free","response_choices":[],"correct_response":"0","response":"0","explain":false,"explanation":"","explanation_history":[],"orientation_history":[[0]],"response_history":["6","0"],"rt":5740,"trial_type":"polygon-arrow-question","trial_index":0,"trial_index_global":7,"time_elapsed":242925,"internal_chunk_id":"0-0.3-0"},{"nsides":6,"feedback":"Correct! 1 <img src=./images/hexagon_symbol.png style=width:14px;height:14px> 5 = 0 because 1 + 5 = 6 and 6 - 6 = 0.  Equivalently, 5 steps clockwise on the hexagon from 1 brings us to 0.","orientation_history":[0],"rt":889,"trial_type":"polygon-arrow-feedback","trial_index":0,"trial_index_global":8,"time_elapsed":243817,"internal_chunk_id":"0-0.3-0"},{"nsides":6,"question":"What  is 1 <img src=./images/hexagon_symbol.png style=width:14px;height:14px> 1? Try to solve this problem using the hexagon. <br /><br /> (Remember, to perform <img src=./images/hexagon_symbol.png style=width:14px;height:14px> on the hexagon, you can use the interactive diagram on the right, or perform the operation in your mind. Point the arrow at the first number on the hexagon, and then move the arrow the second number of points clockwise around the hexagon.)","response_type":"free","response_choices":[],"correct_response":"2","response":"2","explain":false,"explanation":"","explanation_history":[],"orientation_history":[[0]],"response_history":["2"],"rt":1853,"trial_type":"polygon-arrow-question","trial_index":0,"trial_index_global":9,"time_elapsed":245671,"internal_chunk_id":"0-0.3-0"},{"nsides":6,"feedback":"Correct! 1 <img src=./images/hexagon_symbol.png style=width:14px;height:14px> 1 = 2 because 1 step clockwise on the hexagon from 1 brings us to  2. Equi valently, 1 + 1 = 2 and 2 is less than 6.","orientation_history":[0],"rt":1512,"trial_type":"polygon-arrow-feedback","trial_index":0,"trial_index_global":10,"time_elapsed":247184,"internal_chunk_id":"0-0.3-0"},{"nsides":6,"question":"What is 3 <img src=./images/hexagon_symbol.png style=width:14px;height:14px> 0? Try to solve this problem using the arithmetic technique. <br /><br /> (Remember, to perform <img src=./images/hexagon_symbol.png style=width:14px;height:14px> using arithmetic, you start with the first number, and then add the second one to it. If the sum is smaller than 6, that's your result. If the sum is 6 or bigger, you subtract 6 to get your result.)","response_type":"free","response_choices":[],"correct_response":"3","response":"3","explain":false,"explanation":"","explanation_history":[],"orientation_history":[[0]],"response_history":["3"],"rt":3532,"trial_type":"polygon-arrow-question","trial_index":0,"trial_index_global":11,"time_elapsed":250717,"internal_chunk_id":"0-0.3-0"},{"nsides":6,"feedback":"Correct! 3 <img src=./images/hexagon_symbol.png style=width:14px;height:14px> 0 = 3 because 3 + 0 = 3 and 3 - 6 = 3.  Equivalently, 0 steps clockwise on the hexagon from 3 brings us to 3.","orientation_history":[0],"rt":1057,"trial_type":"polygon-arrow-feedback","trial_index":0,"trial_index_global":12,"time_elapsed":251777,"internal_chunk_id":"0-0.3-0"},{"nsides":6,"question":"What is 4 <img src=./images/hexagon_symbol.png style=width:14px;height:14px> 4? Try to solve this problem using the hexagon. <br /><br /> (Remember, to perform <img src=./images/hexagon_symbol.png style=width:14px;height:14px> on the hexagon, you can use the interactive diagram on the right, or perform the operation in your mind. Point the arrow at the first number on the hexagon, and then move the arrow the second number of points clockwise around the hexagon.)","response_type":"free","response_choices":[],"correct_response":" 2","response":"2","explain":false,"explanation":"","explanation_history":[],"orientation_history":[[0],[4.207290473325692,4.207290473325692,4.207290473325692,4.1887902047863905],[4.196463466919405,4.1887902047863905],[4.1887902047863905],[4.323072258551549,4.1887902047863905],[5.373432149235376,5.235987755982988],[5.337874020623919,5.337874020623919,5.337874020623919,5.337874020623919,5.337874020623919,5.235987755982988],[0.11065722117389565,0.11065722117389565,0.11065722117389565,0.11065722117389565,0.11065722117389565,0.11065722117389565,0],[1.0498865459466808,1.0498865459466808,1.0498865459466808,1.0498865459466808,1.0498865459466808,1.0498865459466808,1.0471975511965976],[2.1199492294739075,2.1199492294739075,2.1199492294739075,2.1199492294739075,2.0943951023931953]],"response_history":["2"],"rt":9152,"trial_type":"polygon-arrow-question","trial_index":0,"trial_index_global":13,"time_elapsed":260930,"internal_chunk_id":"0-0.3-0"},{"nsides":6,"feedback":"Correct! 4 <img src=./i mages/he xagon_symbol.png style=width:14px;height:14px> 4 = 2 because 4 steps clockwise on the hexagon from 4 brings us to 2. Equivalently, 4 + 4 = 8 and 8 - 6 = 2.","orientation_history":[0],"rt":1252,"trial_type":"polygon-arrow-feedback","trial_index":0,"trial_index_global":14,"time_elapsed":262185,"internal_chunk_id":"0-0.3-0"},{"nsides":6,"question":"What is 1 <img src=./images/hexagon_symbol.png style=width:14px;height:14px> 3? Try to solve this problem using the arithmetic technique. <br /><br /> (Remember, to perform <img src=./images/hexagon_symbol.png style=width:14px;height:14px> by arithmetic, you start with the first number, and then add the second one to it. If the sum is smaller than 6, that's your result. If the sum is 6 or bigger, you subtract 6 to get your result.)","response_type":"free","response_choices":[],"correct_response":"4","response":"4","explain":false,"explanation":"","explanation_history":[],"orientation_history":[[0]],"response_history":[" 4"],"rt":2419,"trial_type":"polygon-arrow-question","trial_index":0,"trial_index_global":15,"time_elapsed":264605,"internal_chunk_id":"0-0.3-0"},{"nsides":6,"feedback":"Correct! 1 <img src=./images/hexagon_symbol.png style=width:14px;height:14px> 3 = 4 because 1 + 3 = 4 and 4 - 6 = 4.  Equivalently, 3 steps clockwise on the hexagon from 1 brings us to 4.","orientation_history":[0],"rt":809,"trial_type":"polygon-arrow-feedback","trial_index":0,"trial_index_global":16,"time_elapsed":265417,"internal_chunk_id":"0-0.3-0"},{"nsides":6,"question":"What is 4 <img src=./images/hexagon_symbol.png style=width:14px;height:14px> 3? <br /><br /> (Remember, to perform <img src=./images/hexagon_symbol.png style=width:14px;height:14px>, you can either use a method based on the hexagon at right, or a method based on arithmetic.<br /><br /><b>Hexagon method:</b> you can use the interactive diagram on the right, or perform the operation in your mind. Point the arrow at  the firs t number, then move the arrow the second number of points clockwise around the hexagon. The number the arrow arrives at is your result. <br /><br /><b>Arithmetic method:</b> you start with the first number, and then add the second one to it. If the sum is smaller than 6, that's your result. If the sum is 6 or bigger, you subtract 6 to get your result.)","response_type":"free","response_choices":[],"correct_response":"1","response":"1","explain":false,"explanation":"","explanation_history":[],"orientation_history":[[0]],"response_history":["7","1"],"rt":7290,"trial_type":"polygon-arrow-question","trial_index":0,"trial_index_global":17,"time_elapsed":272709,"internal_chunk_id":"0-0.3-0"},{"nsides":6,"feedback":"Correct! 4 <img src=./images/hexagon_symbol.png style=width:14px;height:14px> 3 = 1 because 3 steps clockwise on the hexagon from 4 brings us to 1. Equivalently, 4 + 3 = 7 and 7 - 6 = 1.","orientation_history":[0],"rt":878,"trial_type":"polygon-arrow-feedback","trial_index":0,"trial_index_global":18,"time_elapsed":273590,"internal_chunk_id":"0-0.3-0"},{"nsides":6,"question":"What is 0 <img src=./images/hexagon_symbol.png style=width:14px;height:14px> 5? <br /><br /> (Remember, to perform <img src=./images/hexagon_symbol.png style=width:14px;height:14px>, you can either use a method based on the hexagon at right, or a method based on arithmetic.<br /><br /><b>Hexagon method:</b> you can use the interactive diagram on the right, or perform the operation in your mind. Point the arrow at the first number, then move the arrow the second number of points clockwise around the hexagon. The number the arrow arrives at is your result. <br /><br /><b>Arithmetic method:</b> you start with the first number, and then add the second one to it. If the sum is smaller than 6, that's your result. If the sum is 6 or bigger, you subtract 6 to get your result.)","response_type":"free","response_choices":[],"correct_response":"5","response":"5","explain":false,"explanation":"","explanation_history":[],"orientation_history":[[0]],"response_history":["5"],"rt":2331,"trial_type":"polygon-arrow-question","trial_index":0,"trial_index_global":19,"time_elapsed":275922,"internal_chunk_id":"0-0.3-0"},{"nsides":6,"feedback":"Correct! 0 <img src=./images/hexagon_symbol.png style=width:14px;height:14px> 5 = 5 because 5 steps clockwise on the hexagon from 0 brings us to 5. Equivalently, 0 + 5 = 5 and 5 is less than 6.","orientation_history":[0],"rt":690,"trial_type":"polygon-arrow-feedback","trial_index":0,"trial_index_global":20,"time_elapsed":276614,"internal_chunk_id":"0-0.3-0"},{"nsides":6,"question":"What is 2 <img src=./images/hexagon_symbol.png style=width:14px;height:14px> 5? <br /><br /> (Remember, to perform <img src=./images/hexagon_symbol.png style=width:14px;height:14px>, you can either use a method based on the hexagon at right, or a method based on arithmetic.<br /><br /><b>Hexagon method:</b> you  can use  the interactive diagram on the right, or perform the operation in your mind. Point the arrow at the first number, then move the arrow the second number of points clockwise around the hexagon. The number the arrow arrives at is your result. <br /><br /><b>Arithmetic method:</b> you start with the first number, and then add the second one to it. If the sum is smaller than 6, that's your result. If the sum is 6 or bigger, you subtract 6 to get your result.)","response_type":"free","response_choices":[],"correct_response":"1","response":"1","explain":false,"explanation":"","explanation_history":[],"orientation_history":[[0]],"response_history":["1"],"rt":2582,"trial_type":"polygon-arrow-question","trial_index":0,"trial_index_global":21,"time_elapsed":279198,"internal_chunk_id":"0-0.3-0"},{"nsides":6,"feedback":"Correct! 2 <img src=./images/hexagon_symbol.png style=width:14px;height:14px> 5 = 1 because 5 steps clockwise on the hexagon from 2 brings us to 1. Equivalently,  2 + 5 =  7 and 7 - 6 = 1.","orientation_history":[0],"rt":903,"trial_type":"polygon-arrow-feedback","trial_index":0,"trial_index_global":22,"time_elapsed":280104,"internal_chunk_id":"0-0.3-0"},{"nsides":6,"instructions":"Now we're going to discuss a couple special properties of this new operation, <img src=./images/hexagon_symbol.png style=width:14px;height:14px> that we've learned. First, notice that the number 0 behaves in a special way under <img src=./images/hexagon_symbol.png style=width:14px;height:14px>. Whenever we combine 0 with anything else, we get that same thing back. We'll say that 0 is the <i>identity</i> under <img src=./images/hexagon_symbol.png style=width:14px;height:14px>, because when you combine it with something it gives you that identical thing back.","orientation_history":[0],"rt":11267,"trial_type":"polygon-arrow-instructions","trial_index":0,"trial_index_global":23,"time_elapsed":291377,"internal_chunk_id":"0-0"},{"nsides":6,"instructions":" Now that we know 0 is the identity under <img src=./images/hexagon_symbol.png style=width:14px;height:14px>, we're going to make a new definition. We'll say that the <i>inverse</i> of a number is the element that you combine with it to produce the identity. For example, 5 <img src=./images/hexagon_symbol.png style=width:14px;height:14px> 1 = 0, so we say 1 is the inverse of 5 under <img src=./images/hexagon_symbol.png style=width:14px;height:14px>, (remember 0 is the identity under <img src=./images/hexagon_symbol.png style=width:14px;height:14px>). Similarly, 3 is its own inverse under <img src=./images/hexagon_symbol.png style=width:14px;height:14px>, because 3 <img src=./images/hexagon_symbol.png style=width:14px;height:14px> 3 = 0.","orientation_history":[0],"rt":24236,"trial_type":"polygon-arrow-instructions","trial_index":0,"trial_index_global":24,"time_elapsed":315616,"internal_chunk_id":"0-0"},{"nsides":6,"question":"No w you tr y! What is the inverse of 4 under <img src=./images/hexagon_symbol.png style=width:14px;height:14px>? <br /><br /> (Remember, the inverse of an element is the thing which you combine with it to produce the identity.)","response_type":"free","response_choices":[],"correct_response":"2","response":"2","explain":false,"explanation":"","explanation_history":[],"orientation_history":[[0]],"response_history":["2"],"rt":15437,"trial_type":"polygon-arrow-question","trial_index":0,"trial_index_global":25,"time_elapsed":331056,"internal_chunk_id":"0-0.7-0"},{"nsides":6,"feedback":"Correct! The inverse of 4 under <img src=./images/hexagon_symbol.png style=width:14px;height:14px> is 2 because 4 <img src=./images/hexagon_symbol.png style=width:14px;height:14px> 2 = 0, and 0 is the identity under <img src=./images/hexagon_symbol.png style=width:14px;height:14px>.","orientation_history":[0],"rt":2309,"trial_type":"polygon-arrow-feedback","trial_index":0,"trial_index_global":26,"time_elapsed":333369,"internal_chunk_id":"0-0.7-0"},{"nsides":6,"question":"What is the inverse of 1 under <img src=./images/hexagon_symbol.png style=width:14px;height:14px>? <br /><br /> (Remember, the inverse of an element is the thing which you combine with it to produce the identity.)","response_type":"free","response_choices":[],"correct_response":"5","response":"5","explain":false,"explanation":"","explanation_history":[],"orientation_history":[[0]],"response_history":["5"],"rt":2118,"trial_type":"polygon-arrow-question","trial_index":0,"trial_index_global":27,"time_elapsed":335489,"internal_chunk_id":"0-0.7-0"},{"nsides":6,"feedback":"Correct! The inverse of 1 under <img src=./images/hexagon_symbol.png style=width:14px;height:14px> is 5 because 1 <img src=./images/hexagon_symbol.png style=width:14px;height:14px> 5 = 0, and 0 is the identity under <img src=./images/hexagon_symbol.png style=width:14px;height:14px>.","orientation_history":[0],"rt":877,"trial_type":"polygon-arrow-feedback","trial_index":0,"trial_index_global":28,"time_elapsed":336367,"internal_chunk_id":"0-0.7-0"},{"nsides":6,"question":"What is the inverse of 3 under <img src=./images/hexagon_symbol.png style=width:14px;height:14px>? <br /><br /> (Remember, the inverse of an element is the thing which you combine with it to produce the identity.)","response_type":"free","response_choices":[],"correct_response":"3","response":"3","explain":false,"explanation":"","explanation_history":[],"orientation_history":[[0]],"response_history":["3"],"rt":1225,"trial_type":"polygon-arrow-question","trial_index":0,"trial_index_global":29,"time_elapsed":337593,"internal_chunk_id":"0-0.7-0"},{"nsides":6,"feedback":"Correct! The inverse of 3 under <img src=./images/hexagon_symbol.png style=width:14px;height:14px> is 3 because 3 <img src=./images/hexagon_symbol.png style=width:14px;height:14px> 3 = 0, and 0 is the identity under <i mg src=./images/hexagon_symbol.png style=width:14px;height:14px>.","orientation_history":[0],"rt":570,"trial_type":"polygon-arrow-feedback","trial_index":0,"trial_index_global":30,"time_elapsed":338164,"internal_chunk_id":"0-0.7-0"},{"nsides":6,"question":"What is the inverse of 2 under <img src=./images/hexagon_symbol.png style=width:14px;height:14px>? <br /><br /> (Remember, the inverse of an element is the thing which you combine with it to produce the identity.)","response_type":"free","response_choices":[],"correct_response":"4","response":"4","explain":false,"explanation":"","explanation_history":[],"orientation_history":[[0]],"response_history":["4"],"rt":1236,"trial_type":"polygon-arrow-question","trial_index":0,"trial_index_global":31,"time_elapsed":339401,"internal_chunk_id":"0-0.7-0"},{"nsides":6,"feedback":"Correct! The inverse of 2 under <img src=./images/hexagon_symbol.png style=width:14px;height:14px> is 4 because 2 <img src=./images/hexagon_ symbol.p ng style=width:14px;height:14px> 4 = 0, and 0 is the identity under <img src=./images/hexagon_symbol.png style=width:14px;height:14px>.","orientation_history":[0],"rt":538,"trial_type":"polygon-arrow-feedback","trial_index":0,"trial_index_global":32,"time_elapsed":339941,"internal_chunk_id":"0-0.7-0"},{"nsides":6,"question":"What is the inverse of 0 under <img src=./images/hexagon_symbol.png style=width:14px;height:14px>? <br /><br /> (Remember, the inverse of an element is the thing which you combine with it to produce the identity.)","response_type":"free","response_choices":[],"correct_response":"0","response":"0","explain":false,"explanation":"","explanation_history":[],"orientation_history":[[0]],"response_history":["6","0"],"rt":5467,"trial_type":"polygon-arrow-question","trial_index":0,"trial_index_global":33,"time_elapsed":345409,"internal_chunk_id":"0-0.7-0"},{"nsides":6,"feedback":"Correct! The inverse of 0 under <img src=./images/hexagon_sy mbol.png  style=width:14px;height:14px> is 0 because 0 <img src=./images/hexagon_symbol.png style=width:14px;height:14px> 0 = 0, and 0 is the identity under <img src=./images/hexagon_symbol.png style=width:14px;height:14px>.","orientation_history":[0],"rt":1744,"trial_type":"polygon-arrow-feedback","trial_index":0,"trial_index_global":34,"time_elapsed":347155,"internal_chunk_id":"0-0.7-0"},{"nsides":6,"instructions":"It is also possible to successively apply <img src=./images/hexagon_symbol.png style=width:14px;height:14px>, and the operation can simply be performed starting with the left-most pair. For example, 2 <img src=./images/hexagon_symbol.png style=width:14px;height:14px> 3 <img src=./images/hexagon_symbol.png style=width:14px;height:14px> 4 = 5 <img src=./images/hexagon_symbol.png style=width:14px;height:14px> 4 = 3.","orientation_history":[0],"rt":14293,"trial_type":"polygon-arrow-instructions","trial_index":0,"trial_index_global":35,"time_elapsed":361449,"internal_chunk_id":"0-0"},{"nsides":6,"instructions":"We have one last definition to learn today, using the successive operations we just learned. Let's start with an example. Under our operation <img src=./images/hexagon_symbol.png style=width:14px;height:14px> we can make every other number using just 1: 2 = 1 <img src=./images/hexagon_symbol.png style=width:14px;height:14px> 1, 3 = 1 <img src=./images/hexagon_symbol.png style=width:14px;height:14px> 1 <img src=./images/hexagon_symbol.png style=width:14px;height:14px> 1, 4 = 1 <img src=./images/hexagon_symbol.png style=width:14px;height:14px> 1 <img src=./images/hexagon_symbol.png style=width:14px;height:14px> 1 <img src=./images/hexagon_symbol.png style=width:14px;height:14px> 1, 5 = 1 <img src=./images/hexagon_symbol.png style=width:14px;height:14px> 1 <img src=./images/hexagon_symbol.png style=width:14px;height:14px> 1 < img src= ./images/hexagon_symbol.png style=width:14px;height:14px> 1 <img src=./images/hexagon_symbol.png style=width:14px;height:14px> 1, and 0 = 1 <img src=./images/hexagon_symbol.png style=width:14px;height:14px> 1 <img src=./images/hexagon_symbol.png style=width:14px;height:14px> 1 <img src=./images/hexagon_symbol.png style=width:14px;height:14px> 1 <img src=./images/hexagon_symbol.png style=width:14px;height:14px> 1 <img src=./images/hexagon_symbol.png style=width:14px;height:14px> 1. Because 1 can make every other element under <img src=./images/hexagon_symbol.png style=width:14px;height:14px>, we say that 1 is a <i>generator</i> under <img src=./images/hexagon_symbol.png style=width:14px;height:14px>. <br /><br /> However, 2 is not a generator under <img src=./images/hexagon_symbol.png style=width:14px;height:14px>, because 4 = 2 <img src=./images/hexagon_symbol.png style=width:14px;height:14 px> 2,  and 0 = 2 <img src=./images/hexagon_symbol.png style=width:14px;height:14px> 2 <img src=./images/hexagon_symbol.png style=width:14px;height:14px> 2, but there is no way to make 1, 3, or 5 using just 2.","orientation_history":[0],"rt":11508,"trial_type":"polygon-arrow-instructions","trial_index":0,"trial_index_global":36,"time_elapsed":372960,"internal_chunk_id":"0-0"},{"nsides":6,"question":"Now you try! Is 3 a generator under <img src=./images/hexagon_symbol.png style=width:14px;height:14px>? <br /><br /> (Remember, a generator is an element which can make every other element.)","response_type":"multi","response_choices":["Yes","No"],"correct_response":"No","response":"Yes","explain":false,"explanation":"","explanation_history":[],"orientation_history":[[0]],"response_history":["Yes"],"rt":10689,"trial_type":"polygon-arrow-question","trial_index":0,"trial_index_global":37,"time_elapsed":383654,"internal_chunk_id":"0-0.10-0"},{"nsides":6,"feedback":" Sorry, t hat's incorrect. 3 is not a generator under <img src=./images/hexagon_symbol.png style=width:14px;height:14px>, because 3 = 3, 0 = 3 <img src=./images/hexagon_symbol.png style=width:14px;height:14px> 3, but there is no way to make 1, 2, 4, or 5 using just 3.","orientation_history":[0],"rt":16155,"trial_type":"polygon-arrow-feedback","trial_index":0,"trial_index_global":38,"time_elapsed":399814,"internal_chunk_id":"0-0.10-0"},{"nsides":6,"question":"Is 5 a generator under <img src=./images/hexagon_symbol.png style=width:14px;height:14px>? <br /><br /> (Remember, a generator is an element which can make every other element.)","response_type":"multi","response_choices":["Yes","No"],"correct_response":"Yes","response":"Yes","explain":false,"explanation":"","explanation_history":[],"orientation_history":[[0]],"response_history":["Yes"],"rt":4202,"trial_type":"polygon-arrow-question","trial_index":0,"trial_index_global":39,"time_elapsed":404019,"internal_chunk_id":"0-0.10-0"},{"nsides":6,"feedback":"Correct! 5 is a generator under <img src=./images/hexagon_symbol.png style=width:14px;height:14px>, because 5 = 5, 4 = 5 <img src=./images/hexagon_symbol.png style=width:14px;height:14px> 5, 3 = 5 <img src=./images/hexagon_symbol.png style=width:14px;height:14px> 5 <img src=./images/hexagon_symbol.png style=width:14px;height:14px> 5, 2 = 5 <img src=./images/hexagon_symbol.png style=width:14px;height:14px> 5 <img src=./images/hexagon_symbol.png style=width:14px;height:14px> 5 <img src=./images/hexagon_symbol.png style=width:14px;height:14px> 5, 1 = 5 <img src=./images/hexagon_symbol.png style=width:14px;height:14px> 5 <img src=./images/hexagon_symbol.png style=width:14px;height:14px> 5 <img src=./images/hexagon_symbol.png style=width:14px;height:14px> 5 <img src=./images/hexagon_symbol.png style=width:14px;height:14px> 5, and 0 = 5 <img src=./images/he xagon_sy mbol.png style=width:14px;height:14px> 5 <img src=./images/hexagon_symbol.png style=width:14px;height:14px> 5 <img src=./images/hexagon_symbol.png style=width:14px;height:14px> 5 <img src=./images/hexagon_symbol.png style=width:14px;height:14px> 5 <img src=./images/hexagon_symbol.png style=width:14px;height:14px> 5, so you can make all of the numbers under <img src=./images/hexagon_symbol.png style=width:14px;height:14px> using 5","orientation_history":[0],"rt":15103,"trial_type":"polygon-arrow-feedback","trial_index":0,"trial_index_global":40,"time_elapsed":419123,"internal_chunk_id":"0-0.10-0"},{"nsides":6,"question":"Is 4 a generator under <img src=./images/hexagon_symbol.png style=width:14px;height:14px>? <br /><br /> (Remember, a generator is an element which can make every other element.)","response_type":"multi","response_choices":["Yes","No"],"correct_response":"No","response":"Yes","explain":false,"explanation":" ","explanation_history":[],"orientation_history":[[0],[3.989409626983199,3.989409626983199,3.989409626983199,3.989409626983199,3.989409626983199,3.989409626983199,3.989409626983199,4.1887902047863905],[5.3474157157750035,5.3474157157750035,5.3474157157750035,5.3474157157750035,5.3474157157750035,5.3474157157750035,5.235987755982988],[0.32175055439664213,0.32175055439664213,0.32175055439664213,0.32175055439664213,0.32175055439664213,0.32175055439664213,0],[1.0912770348023004,1.0912770348023004,1.0912770348023004,1.0912770348023004,1.0912770348023004,1.0912770348023004,1.0471975511965976],[2.2937756801963873,2.2937756801963873,2.2937756801963873,2.2937756801963873,2.2937756801963873,2.2937756801963873,2.0943951023931953]],"response_history":["Yes"],"rt":24581,"trial_type":"polygon-arrow-question","trial_index":0,"trial_index_global":41,"time_elapsed":443707,"internal_chunk_id":"0-0.10-0"},{"nsides":6,"feedback":"Sorry, that's incorrect. 4 is not a generator under <img src=./images/h exagon_s ymbol.png style=width:14px;height:14px>, because 4 = 4, 2 = 4 <img src=./images/hexagon_symbol.png style=width:14px;height:14px> 4, and 0 = 4 <img src=./images/hexagon_symbol.png style=width:14px;height:14px> 4 <img src=./images/hexagon_symbol.png style=width:14px;height:14px> 4, but there is no way to make 1, 3, or 5 using just 4.","orientation_history":[0],"rt":7181,"trial_type":"polygon-arrow-feedback","trial_index":0,"trial_index_global":42,"time_elapsed":450893,"internal_chunk_id":"0-0.10-0"},{"nsides":6,"question":"Is 0 a generator under <img src=./images/hexagon_symbol.png style=width:14px;height:14px>? <br /><br /> (Remember, a generator is an element which can make every other element.)","response_type":"multi","response_choices":["Yes","No"],"correct_response":"No","response":"Yes","explain":false,"explanation":"","explanation_history":[],"orientation_history":[[0]],"response_history":["Yes"],"rt":3363,"trial_type":"polygon-arr ow-quest ion","trial_index":0,"trial_index_global":43,"time_elapsed":454259,"internal_chunk_id":"0-0.10-0"},{"nsides":6,"feedback":"Sorry, that's incorrect. 0 is not a generator under <img src=./images/hexagon_symbol.png style=width:14px;height:14px>, because 0 = 0, but there is no way to make 1, 2, 3, 4, or 5 using just 0.","orientation_history":[0],"rt":1084,"trial_type":"polygon-arrow-feedback","trial_index":0,"trial_index_global":44,"time_elapsed":455346,"internal_chunk_id":"0-0.10-0"},{"nsides":9,"instructions":"Now we are going to ask you some questions about a new operation, <img src=./images/nonagon_symbol.png style=width:14px;height:14px>, on the numbers 0, 1, 2, 3, 4, 5, 6, 7, 8. It works exactly like <img src=./images/hexagon_symbol.png style=width:14px;height:14px>, except now you use the nonagon shown at the right. Equivalently, after adding the two numbers you subtract 9 if your result is 9 or greater.<br /><br />Do you see how the different ways  of perf orming <img src=./images/nonagon_symbol.png style=width:14px;height:14px> give the same result, just like with <img src=./images/hexagon_symbol.png style=width:14px;height:14px>? By labeling the points of the nonagon with the numbers from 0 to 8, we ensure that when we combine two numbers under <img src=./images/nonagon_symbol.png style=width:14px;height:14px>, we only produce numbers between 0 and 8. When we use the arithmetic strategy, adding the second number to the first mimics counting around the nonagon, and subtracting 9 each time we get above 8 makes sure the results correspond to the numbers on the points of the nonagon.<br /><br />We'll give you one practice question with feedback to make sure you understand the new operation. After that, try to complete the remaining questions as accurately as possible.","orientation_history":[0],"rt":20385,"trial_type":"polygon-arrow-instructions","trial_index":0,"trial_index_global":45,"time_elapsed":475732,"internal_chunk_id":"0-0"},{"nsides":9,"question":"Practice: What is 5 <img src=./images/nonagon_symbol.png style=width:14px;height:14px> 5?","response_type":"free","response_choices":[],"correct_response":"1","response":"1","explain":false,"explanation":"","explanation_history":[],"orientation_history":[[0]],"response_history":["1"],"rt":5569,"trial_type":"polygon-arrow-question","trial_index":0,"trial_index_global":46,"time_elapsed":481306,"internal_chunk_id":"0-0.12-0"},{"nsides":9,"feedback":"Correct! 5 <img src=./images/nonagon_symbol.png style=width:14px;height:14px> 5 = 1 because 5 steps clockwise on the nonagon from 5 brings us to 1. Equivalently, 5 + 5 = 10 and 10 - 9 = 1.","orientation_history":[0],"rt":39451,"trial_type":"polygon-arrow-feedback","trial_index":0,"trial_index_global":47,"time_elapsed":520758,"internal_chunk_id":"0-0.12-0"},{"nsides":9,"question":"What is 3 <img src=./images/nonagon_symbol.png style=width:14px;height:14px> 3?","response_type":"free","response_choices":[],"correct_response":"6","response":"6","explain":false,"explanation":"","explanation_history":[],"orientation_history":[[0]],"response_history":["6"],"rt":1747,"trial_type":"polygon-arrow-question","trial_index":0,"trial_index_global":48,"time_elapsed":522508,"internal_chunk_id":"0-0.12-0"},{"nsides":9,"question":"What is 7 <img src=./images/nonagon_symbol.png style=width:14px;height:14px> 4?","response_type":"free","response_choices":[],"correct_response":"2","response":"2","explain":false,"explanation":"","explanation_history":[],"orientation_history":[[0]],"response_history":["2"],"rt":2319,"trial_type":"polygon-arrow-question","trial_index":0,"trial_index_global":49,"time_elapsed":524830,"internal_chunk_id":"0-0.12-0"},{"nsides":9,"question":"What is 1 <img src=./images/nonagon_symbol.png style=width:14px;height:14px> 8?","response_type":"free","response_choices":[],"correct_response":"0","response":"0","explain":false,"explanation":"","explanation_history":[],"orientation_history":[[0]],"response_history":["0"],"rt":5520,"trial_type":"polygon-arrow-question","trial_index":0,"trial_index_global":50,"time_elapsed":530352,"internal_chunk_id":"0-0.12-0"},{"nsides":9,"question":"What is 5 <img src=./images/nonagon_symbol.png style=width:14px;height:14px> 4?","response_type":"free","response_choices":[],"correct_response":"0","response":"0","explain":false,"explanation":"","explanation_history":[],"orientation_history":[[0]],"response_history":["0"],"rt":2066,"trial_type":"polygon-arrow-question","trial_index":0,"trial_index_global":51,"time_elapsed":532419,"internal_chunk_id":"0-0.12-0"},{"nsides":9,"question":"What is 6 <img src=./images/nonagon_symbol.png style=width:14px;height:14px> 6?","response_type":"free","response_choices":[],"correct_response":"3","response":"3","explain":false,"explanation":"","explanation_history":[],"orientation_history":[[0]],"response_history":["3"],"rt":2657,"trial_type":"polygon-arrow-question","trial_index":0,"trial_index_global":52,"time_elapsed":535077,"internal_chunk_id":"0-0.12-0"},{"nsides":9,"instructions":"On the following question, and several others later in the HIT, we will ask you to explain how you got your answer. On these questions, you will be given one box for your answer to the question, and a second for your explanation. Please explain your thought process in as much detail as possible (at least one sentence, and more if you can).","orientation_history":[0],"rt":11642,"trial_type":"polygon-arrow-instructions","trial_index":0,"trial_index_global":53,"time_elapsed":546721,"internal_chunk_id":"0-0.12-0"},{"nsides":9,"question":"What is 4 <img src=./images/nonagon_symbol.png style=width:14px;height:14px> 1? Please explain in words how you got your answer.","response_type":"free","response_choices":[],"correct_response":"5","response":"5","explain":true,"explanation":"4+1=5 not greater than 9","explanation_history":["4+ 1 ","4+1\n","4+1=8","4+1=5 not less than ","4+1=5 not less","4+1=5 not les","4+1=5 not le","4+1=5 not l","4+1=5 not grt","4+1=5 not greater than 9"],"orientation_history":[[0]],"response_history":["5"],"rt":24231,"trial_type":"polygon-arrow-question","trial_index":0,"trial_index_global":54,"time_elapsed":570953,"internal_chunk_id":"0-0.12-0"},{"nsides":9,"question":"What is 8 <img src=./images/nonagon_symbol.png style=width:14px;height:14px> 4? Please explain in words how you got your answer.","response_type":"free","response_choices":[],"correct_response":"3","response":"3","explain":true,"explanation":"8+4=12 greater than 9 so 12-9=3","explanation_history":["8+4-14","8+4-1","8+4-","8+4=12 grea","8+4=12 greater than 9 so 12-9=3"],"orientation_history":[[0]],"response_history":["3"],"rt":25017,"trial_type":"polygon-arrow-question","trial_index":0,"trial_index_global":55,"time_elapsed":595975,"internal_chunk_id":"0-0.12-0"},{"nsides":9,"question":"What is the identity  under < img src=./images/nonagon_symbol.png style=width:14px;height:14px>? Please explain in words how you got your answer.","response_type":"free","response_choices":[],"correct_response":"0","response":"0","explain":true,"explanation":"Same as identity of 6 ","explanation_history":["same ","same","sam","sa","s","Same as identity of 65","Same as identity of 6 "],"orientation_history":[[0]],"response_history":["0"],"rt":52726,"trial_type":"polygon-arrow-question","trial_index":0,"trial_index_global":56,"time_elapsed":648704,"internal_chunk_id":"0-0.12-0"},{"nsides":9,"question":"What is the inverse of 5 under <img src=./images/nonagon_symbol.png style=width:14px;height:14px>?","response_type":"free","response_choices":[],"correct_response":"4","response":"4","explain":false,"explanation":"","explanation_history":[],"orientation_history":[[0]],"response_history":["4"],"rt":8793,"trial_type":"polygon-arrow-question","trial_index":0,"trial_index_global":57,"time_elapsed":657501,"internal_chunk_id":"0-0.12-0"},{"nsides":9,"question":"What is the inverse of 2 under <img src=./images/nonagon_symbol.png style=width:14px;height:14px>?","response_type":"free","response_choices":[],"correct_response":"7","response":"7","explain":false,"explanation":"","explanation_history":[],"orientation_history":[[0]],"response_history":["7"],"rt":1688,"trial_type":"polygon-arrow-question","trial_index":0,"trial_index_global":58,"time_elapsed":659193,"internal_chunk_id":"0-0.12-0"},{"nsides":9,"question":"What is the inverse of 0 under <img src=./images/nonagon_symbol.png style=width:14px;height:14px>?","response_type":"free","response_choices":[],"correct_response":"0","response":"0","explain":false,"explanation":"","explanation_history":[],"orientation_history":[[0]],"response_history":["0"],"rt":7933,"trial_type":"polygon-arrow-question","trial_index":0,"trial_index_global":59,"time_elapsed":667127,"internal_chunk_id":"0-0.12-0"},{"nsides":9,"question":"What  is the inverse of 3 under <img src=./images/nonagon_symbol.png style=width:14px;height:14px>? Please explain in words how you got your answer.","response_type":"free","response_choices":[],"correct_response":"6","response":"6","explain":true,"explanation":"3+6=9 have to minus 9 = 0","explanation_history":["3+6 ","3+6=9 since","3+6=9 sinc","3+6=9 sin","3+6=9 si","3+6=9 s","3+6=9 have to minus 9 = 0"],"orientation_history":[[0]],"response_history":["6"],"rt":18008,"trial_type":"polygon-arrow-question","trial_index":0,"trial_index_global":60,"time_elapsed":685138,"internal_chunk_id":"0-0.12-0"},{"nsides":9,"question":"Is 2 a generator under <img src=./images/nonagon_symbol.png style=width:14px;height:14px>? Please explain in words how you got your answer.","response_type":"multi","response_choices":["Yes","No"],"correct_response":"Yes","response":"Yes","explain":true,"explanation":"You can make all the numbers with just 2","explanation_history":["Because you ca n make 0 ","Because you can make ","You can make all the numbers with just 2"],"orientation_history":[[0]],"response_history":["No","Yes","No","Yes"],"rt":35954,"trial_type":"polygon-arrow-question","trial_index":0,"trial_index_global":61,"time_elapsed":721096,"internal_chunk_id":"0-0.12-0"},{"nsides":9,"question":"Is 3 a generator under <img src=./images/nonagon_symbol.png style=width:14px;height:14px>? Please explain in words how you got your answer.","response_type":"multi","response_choices":["Yes","No"],"correct_response":"No","response":"No","explain":true,"explanation":"you can only make 0 3 6 ","explanation_history":["you can only make 0 3 6 with 3","you can only make 0 3 6 "],"orientation_history":[[0]],"response_history":["No"],"rt":21241,"trial_type":"polygon-arrow-question","trial_index":0,"trial_index_global":62,"time_elapsed":742341,"internal_chunk_id":"0-0.12-0"},{"nsides":9,"question":"Is 5 a generator under <img src=./images/nonagon_symbol.png style=wid th:14px; height:14px>? Please explain in words how you got your answer.","response_type":"multi","response_choices":["Yes","No"],"correct_response":"Yes","response":"Yes","explain":true,"explanation":"You can make all the numbers in this order 5 1 6 2 7 3 8 4 0","explanation_history":["You can make all the numer","You can make all the nume","You can make all the numbers in this order 5 0 ","You can make all the numbers in this order 5 0","You can make all the numbers in this order 5 1 10","You can make all the numbers in this order 5 1 1","You can make all the numbers in this order 5 1 6 2 7 3 8 4 0"],"orientation_history":[[0]],"response_history":["Yes"],"rt":38746,"trial_type":"polygon-arrow-question","trial_index":0,"trial_index_global":63,"time_elapsed":781091,"internal_chunk_id":"0-0.12-0"},{"nsides":9,"question":"Is 6 a generator under <img src=./images/nonagon_symbol.png style=width:14px;height:14px>? Please explain in words how you got your answer.","response_type":"multi","response_choices":["Yes","No"],"correct_response":"No","response":"No","explain":true,"explanation":"You can only make 6 3 0","explanation_history":["N","You can only make 6 3  ","You can only make 6 3 9","You can only make 6 3 0"],"orientation_history":[[0]],"response_history":["No"],"rt":42451,"trial_type":"polygon-arrow-question","trial_index":0,"trial_index_global":64,"time_elapsed":823546,"internal_chunk_id":"0-0.12-0"},{"nsides":"n","instructions":"Now we'd like to ask you some questions about <img src=./images/ngon_symbol.png style=width:14px;height:14px>, where n could be any postive counting number. For example, n could be 3, and the polygon a triangle, or n could be any other counting number you can think of, in which case the corresponding polygon would have n sides. Just as before, you can use either the polygon or arithmetic methods. If you need to write the operation, you can use (n), and your answers can include n to stand in for the arbitrary val ue if ne cessary. (You can use the polygon at the right to think, but it doesn't necessarily correspond to the real polygon, which is why we've left most of it dashed.)","orientation_history":[0],"rt":13465,"trial_type":"polygon-arrow-instructions","trial_index":0,"trial_index_global":65,"time_elapsed":837014,"internal_chunk_id":"0-0"},{"nsides":"n","question":"What is the formula for the inverse of 1 under <img src=./images/ngon_symbol.png style=width:14px;height:14px>?","response_type":"free","response_choices":[],"correct_response":"n-1","response":"n-1=0","explain":false,"explanation":"","explanation_history":[],"orientation_history":[[0]],"response_history":["n","n-1=0"],"rt":55481,"trial_type":"polygon-arrow-question","trial_index":0,"trial_index_global":66,"time_elapsed":892499,"internal_chunk_id":"0-0.14-0"},{"nsides":"n","question":"What is the formula for the inverse of an element x under <img src=./images/ngon_symbol.png style=width:14px;height:14px>? Pleas e explai n in words how you got your answer.","response_type":"free","response_choices":[],"correct_response":"n-x","response":"n-x=0","explain":true,"explanation":"you take the total number n minus the x number and you get the inverse as a result","explanation_history":["you take the total number n minus the x nume","you take the total number n minus the x number and you get the inverse as a result"],"orientation_history":[[0]],"response_history":["n-x=0"],"rt":30305,"trial_type":"polygon-arrow-question","trial_index":0,"trial_index_global":67,"time_elapsed":922809,"internal_chunk_id":"0-0.14-0"},{"nsides":"n","question":"Is there a pattern to which elements are generators? How can you know if an element x is a generator under <img src=./images/ngon_symbol.png style=width:14px;height:14px> without seeing whether it can make all the elements?.","response_type":"free","response_choices":[],"correct_response":"","response":"Im not sure.","explain":false,"explanation":"","explanation_history":[],"orientation_history":[[0]],"response_history":["Im not sure."],"rt":134022,"trial_type":"polygon-arrow-question","trial_index":0,"trial_index_global":68,"time_elapsed":1056835,"internal_chunk_id":"0-0.14-0"},{"nsides":"n","question":"True or false: If x is an odd number, it must be a generator under <img src=./images/ngon_symbol.png style=width:14px;height:14px>.","response_type":"multi","response_choices":["True","False"],"correct_response":"False","response":"False","explain":false,"explanation":"","explanation_history":[],"orientation_history":[[0]],"response_history":["False"],"rt":5955,"trial_type":"polygon-arrow-question","trial_index":0,"trial_index_global":69,"time_elapsed":1062796,"internal_chunk_id":"0-0.14-0"},{"nsides":"n","question":"True or false: If x is an even number, it must not be a generator under <img src=./images/ngon_symbol.png style=width:14px;height:14px>.","response_type":"multi","response_choices":["True","False"],"correct_response":"False","response":"False","explain":false,"explanation":"","explanation_history":[],"orientation_history":[[0]],"response_history":["False"],"rt":9518,"trial_type":"polygon-arrow-question","trial_index":0,"trial_index_global":70,"time_elapsed":1072319,"internal_chunk_id":"0-0.14-0"},{"nsides":"n","question":"True or false: If x is not a generator under <img src=./images/ngon_symbol.png style=width:14px;height:14px>, x must be a divisor of n, that is, x must divide n evenly, with no remainder.","response_type":"multi","response_choices":["True","False"],"correct_response":"False","response":"True","explain":false,"explanation":"","explanation_history":[],"orientation_history":[[0]],"response_history":["True"],"rt":14379,"trial_type":"polygon-arrow-question","trial_index":0,"trial_index_global":71,"time_elapsed":1086702,"internal_chunk_id":"0-0.14-0"},{"nsides":"n","question":"True or false: If x is not a generator under <img src=./images/ngon_symbol.png style =width :14px;height:14px>, x must be a multiple of a divisor of n. Please explain in words how you got your answer.","response_type":"multi","response_choices":["True","False"],"correct_response":"True","response":"True","explain":true,"explanation":"if n is 9 and you have x as 6 which doesn't work but is a multiple of the divisor 3.","explanation_history":["so if n is 9 and you have x as 6 ","so if n is 9 and you have x as 6","so if n is 9 and you have x as ","so if n is 9 and you have x as 5","so if n is 9 and you have x as 6 which fg","so if n is 9 and you have x as 6 which f","so if n is 9 and you have x as 6 which doesnt work but has the bu","so if n is 9 and you have x as 6 which doesnt work but has the b","so if n is 9 and you have x as 6 which doesnt work but has the mul","so if n is 9 and you have x as 6 which doesnt work but has the mu","so if n is 9 and you have x as 6 which doesnt work but has the m","so if n is 9 and you have x as 6 which doesnt work but has the ","s o if n i s 9 and you have x as 6 which doesnt work but has the","so if n is 9 and you have x as 6 which doesnt work but has th","so if n is 9 and you have x as 6 which doesnt work but has t","so if n is 9 and you have x as 6 which doesnt work but has ","so if n is 9 and you have x as 6 which doesnt work but has","so if n is 9 and you have x as 6 which doesnt work but ha","so if n is 9 and you have x as 6 which doesnt work but h","so if n is 9 and you have x as 6 which doesnt work but is a multiple of the divisor 3.","soif n is 9 and you have x as 6 which doesnt work but is a multiple of the divisor 3.","sif n is 9 and you have x as 6 which doesnt work but is a multiple of the divisor 3.","if n is 9 and you have x as 6 which doesnt work but is a multiple of the divisor 3.","if n is 9 and you have x as 6 which doesn't work but is a multiple of the divisor 3."],"orientation_history":[[0]],"response_history":["True"],"rt":86813,"trial_type":"polygon-arrow-question","trial_index":0,"trial_index_global":72,"time_elapsed":1173519,"internal_chunk_id":"0-0.14-0"},{"nsides":"n","question":"If an element x is a generator under <img src=./images/ngon_symbol.png style=width:14px;height:14px>, is its inverse a generator under <img src=./images/ngon_symbol.png style=width:14px;height:14px> always, sometimes, or never?","response_type":"multi","response_choices":["Always","Sometimes","Never"],"correct_response":"Always","response":"Always","explain":false,"explanation":"","explanation_history":[],"orientation_history":[[0]],"response_history":["Always"],"rt":66007,"trial_type":"polygon-arrow-question","trial_index":0,"trial_index_global":73,"time_elapsed":1239532,"internal_chunk_id":"0-0.14-0"},{"nsides":"n","question":"if an element x is a generator under <img src=./images/ngon_symbol.png style=width:14px;height:14px>, is x <img src=./images/ngon_symbol.png style=width:14px;height:14px> x a generator under <img src=./images/ngon_symbol.png  style= width:14px;height:14px> always, sometimes, or never? Please explain in words how you got your answer.","response_type":"multi","response_choices":["Always","Sometimes","Never"],"correct_response":"Sometimes","response":"Always","explain":true,"explanation":"n is 9, so 5, 1 and 2 are generators, 5n5= 1 which is a generator, 1n1 - 2 which is a generator and 2n2 is 4 which is a genreator","explanation_history":["n is 9, so 5 ","n is 9, so 5, 1 and 2 are generators ","n is 9, so 5, 1 and 2 are generators, 5n5 ","n is 9, so 5, 1 and 2 are generators, 5n5= 1 ge","n is 9, so 5, 1 and 2 are generators, 5n5= 1 g","n is 9, so 5, 1 and 2 are generators, 5n5= 1 which is a ggen","n is 9, so 5, 1 and 2 are generators, 5n5= 1 which is a gge","n is 9, so 5, 1 and 2 are generators, 5n5= 1 which is a gg","n is 9, so 5, 1 and 2 are generators, 5n5= 1 which is a generatoir","n is 9, so 5, 1 and 2 are generators, 5n5= 1 which is a generatoi","n is 9, so 5, 1 and 2 are generators, 5n5= 1 which  is a gen eratorm","n is 9, so 5, 1 and 2 are generators, 5n5= 1 which is a generator, 1n1 - 2 which is a generator and 2n2 is 4 which is a genreator"],"orientation_history":[[0]],"response_history":["Always"],"rt":96772,"trial_type":"polygon-arrow-question","trial_index":0,"trial_index_global":74,"time_elapsed":1336307,"internal_chunk_id":"0-0.14-0"},{"nsides":"n","question":"If an element x is not a generator under <img src=./images/ngon_symbol.png style=width:14px;height:14px>, is x <img src=./images/ngon_symbol.png style=width:14px;height:14px> x a generator under <img src=./images/ngon_symbol.png style=width:14px;height:14px> always, sometimes, or never?","response_type":"multi","response_choices":["Always","Sometimes","Never"],"correct_response":"Never","response":"Sometimes","explain":false,"explanation":"","explanation_history":[],"orientation_history":[[0]],"response_history":["Sometimes"],"rt":154210,"trial_type":"polygon-arrow-question","trial_index":0,"trial_index_global":75,"time_elapsed":1490523,"internal_chunk_id":"0-0.14-0"},{"instructions":"Now we'd like you to do a few of the questions and tell us how much you're using the arithmetic and polygon methods to solve them. We'll give you a demonstration of the response screen first.<br /><br />Press continue when you're ready to begin.","rt":7934,"trial_type":"instructions","trial_index":0,"trial_index_global":76,"time_elapsed":1498463,"internal_chunk_id":"0-0.15-0"},{"nsides":9,"added_prompt":"<i>This is a demo response screen. You can respond independently to both questions, so it's okay to say you used both methods.</i><br /><br />","polygon_response":"1","modular_response":"3","rt":7317,"trial_type":"polygon-arrow-which-representation","trial_index":0,"trial_index_global":77,"time_elapsed":1505784,"internal_chunk_id":"0-0.15-0"},{"question":"<i>This is a demo response screen.</i><br /><br />Please describe in as much detail as possible how you used the arithmetic method,  polygon  method, or both for the problem.","response_type":"free","response_choices":[],"correct_response":"","response":"It was a lot easier to use the arithmetic method because it was a lot easier to do in my head and allowed for fast computation. When I had any troubles then i would resort to the polygon method.","explain":false,"explanation":"","explanation_history":[],"response_history":["IO","I","It was a lot easier to use the arithmetic method because it was a lot ear","It was a lot easier to use the arithmetic method because it was a lot easier to do in ","It was a lot easier to use the arithmetic method because it was a lot easier to do in","It was a lot easier to use the arithmetic method because it was a lot easier to do i","It was a lot easier to use the arithmetic method because it was a lot easier to do in my head and allowed for fast computation,","It was a lot easier to use the arithmetic method because it was a lot easier to do in my head and allowed for fast computa tion. If  ","It was a lot easier to use the arithmetic method because it was a lot easier to do in my head and allowed for fast computation. If","It was a lot easier to use the arithmetic method because it was a lot easier to do in my head and allowed for fast computation. I","It was a lot easier to use the arithmetic method because it was a lot easier to do in my head and allowed for fast computation. When i had any","It was a lot easier to use the arithmetic method because it was a lot easier to do in my head and allowed for fast computation. When i ","It was a lot easier to use the arithmetic method because it was a lot easier to do in my head and allowed for fast computation. When i","It was a lot easier to use the arithmetic method because it was a lot easier to do in my head and allowed for fast computation. When I had any troubles then i would resort to the polygot ","It was a lot easier to use the arithmetic method because it was a lot easier to do in my head and allowed for  fast com putation. When I had any troubles then i would resort to the polygot","It was a lot easier to use the arithmetic method because it was a lot easier to do in my head and allowed for fast computation. When I had any troubles then i would resort to the polygon method."],"rt":46905,"trial_type":"question","trial_index":0,"trial_index_global":78,"time_elapsed":1552693,"internal_chunk_id":"0-0.15-0"},{"instructions":"Great! Now we have a few questions for you to do (some of which you may have seen earlier), and after each question you will tell us how much you used the polygon and arithmetic methods.<br /><br />Press continue when you're ready to begin.","rt":5532,"trial_type":"instructions","trial_index":0,"trial_index_global":79,"time_elapsed":1558228,"internal_chunk_id":"0-0.15-0"},{"nsides":9,"question":"Please answer the following question:<br /><br />What is the inverse of 4 under <img src=./images/nonagon_symbol.png style=width:14px;height:14px>?","response_type":"f ree","response_choices":[],"correct_response":"5","response":"5","explain":false,"explanation":"","explanation_history":[],"orientation_history":[[0]],"response_history":["5"],"rt":4483,"trial_type":"polygon-arrow-question","trial_index":0,"trial_index_global":80,"time_elapsed":1562716,"internal_chunk_id":"0-0.15-0"},{"nsides":9,"question":"Please answer the following question:<br /><br />What is the inverse of 4 under <img src=./images/nonagon_symbol.png style=width:14px;height:14px>?","added_prompt":"","polygon_response":"0","modular_response":"4","rt":5722,"trial_type":"polygon-arrow-which-representation","trial_index":0,"trial_index_global":81,"time_elapsed":1568441,"internal_chunk_id":"0-0.15-0"},{"question":"Please describe in as much detail as possible how you used the arithmetic method, polygon method, or both for the problem.","response_type":"free","response_choices":[],"correct_response":"","response":"I just subtracted 9 from 4 and got my answer","explain":false,"explanation":"","explanation_history":[],"response_history":["I u","I just subtrack","I just subtracted 9 from 4 adn got my answer","I just subtracted 9 from 4 ad got my answer","I just subtracted 9 from 4 a got my answer","I just subtracted 9 from 4 an got my answer","I just subtracted 9 from 4 and got my answer"],"rt":27968,"trial_type":"question","trial_index":0,"trial_index_global":82,"time_elapsed":1596411,"internal_chunk_id":"0-0.15-0"},{"nsides":9,"question":"Please answer the following question:<br /><br />What is the inverse of 0 under <img src=./images/nonagon_symbol.png style=width:14px;height:14px>?","response_type":"free","response_choices":[],"correct_response":"0","response":"0","explain":false,"explanation":"","explanation_history":[],"orientation_history":[[0]],"response_history":["0"],"rt":3147,"trial_type":"polygon-arrow-question","trial_index":0,"trial_index_global":83,"time_elapsed":1599562,"internal_chunk_id":"0-0.15-0"},{"nsides":9,"question":"Please  answer t he following question:<br /><br />What is the inverse of 0 under <img src=./images/nonagon_symbol.png style=width:14px;height:14px>?","added_prompt":"","polygon_response":"0","modular_response":"0","rt":8876,"trial_type":"polygon-arrow-which-representation","trial_index":0,"trial_index_global":84,"time_elapsed":1608441,"internal_chunk_id":"0-0.15-0"},{"question":"Please describe in as much detail as possible how you used the arithmetic method, polygon method, or both for the problem.","response_type":"free","response_choices":[],"correct_response":"","response":"I remembered that the inverse of 0 is 0 and used that.","explain":false,"explanation":"","explanation_history":[],"response_history":["I re,","I remembered that in","I remembered that i","I remembered that the inves","I remembered that the inverse fo 0","I remembered that the inverse fo ","I remembered that the inverse fo","I remembered that the inverse f","I remembered that the inverse ","I remembered that t he inver se of 0 is 0 and used that."],"rt":20817,"trial_type":"question","trial_index":0,"trial_index_global":85,"time_elapsed":1629262,"internal_chunk_id":"0-0.15-0"},{"nsides":9,"question":"Please answer the following question:<br /><br />Is 4 a generator under <img src=./images/nonagon_symbol.png style=width:14px;height:14px>?","response_type":"Multi","response_choices":["Yes","No"],"correct_response":"Yes","response":"Yes","explain":false,"explanation":"","explanation_history":[],"orientation_history":[[0]],"response_history":["Yes"],"rt":13224,"trial_type":"polygon-arrow-question","trial_index":0,"trial_index_global":86,"time_elapsed":1642489,"internal_chunk_id":"0-0.15-0"},{"nsides":9,"question":"Please answer the following question:<br /><br />Is 4 a generator under <img src=./images/nonagon_symbol.png style=width:14px;height:14px>?","added_prompt":"","polygon_response":"0","modular_response":"4","rt":4118,"trial_type":"polygon-arrow-which-representation","trial_index":0,"trial_index_global":87,"time_elapsed":1646608,"internal_chunk_id":"0-0.15-0"},{"question":"Please describe in as much detail as possible how you used the arithmetic method, polygon method, or both for the problem.","response_type":"free","response_choices":[],"correct_response":"","response":"I just kept adding 4 to 4 and looking at the outcome, 4 8 3 7 2 6 1 5","explain":false,"explanation":"","explanation_history":[],"response_history":["I just kle","I just kl","I just kept adding 4 to 4 and looking at the out ","I just kept adding 4 to 4 and looking at the outcome ","I just kept adding 4 to 4 and looking at the outcome.","I just kept adding 4 to 4 and looking at the outcome, 4 8 3 7 2 6 1 5"],"rt":26989,"trial_type":"question","trial_index":0,"trial_index_global":88,"time_elapsed":1673602,"internal_chunk_id":"0-0.15-0"},{"nsides":"n","question":"Please answer the following question:<br /><br />True or false: If x divides n, it must not be a generator under <img src=./image s/ngon_symbol.png style=width:14px;height:14px>.","response_type":"multi","response_choices":["True","False"],"correct_response":"True","response":"True","explain":false,"explanation":"","explanation_history":[],"orientation_history":[[0]],"response_history":["True"],"rt":31259,"trial_type":"polygon-arrow-question","trial_index":0,"trial_index_global":89,"time_elapsed":1704865,"internal_chunk_id":"0-0.15-0"},{"nsides":"n","question":"Please answer the following question:<br /><br />True or false: If x divides n, it must not be a generator under <img src=./images/ngon_symbol.png style=width:14px;height:14px>.","added_prompt":"","polygon_response":"0","modular_response":"2","rt":5951,"trial_type":"polygon-arrow-which-representation","trial_index":0,"trial_index_global":90,"time_elapsed":1710819,"internal_chunk_id":"0-0.15-0"},{"question":"Please describe in as much detail as possible how you used the arithmetic method, polygon method, or both for the problem.","response_type":"free","response_choices":[],"correct_response":"","response":"I took different N's and tried to see if anyone of them had dividers that were generators, i could not find any.","explain":false,"explanation":"","explanation_history":[],"response_history":["I took different Ns","I took different N's ","I took different N's and tried to see if anyone of the","I took different N's and tried to see if anyone of them had dividers that were generators ","I took different N's and tried to see if anyone of them had dividers that were generators, i could not find anys","I took different N's and tried to see if anyone of them had dividers that were generators, i could not find any."],"rt":23327,"trial_type":"question","trial_index":0,"trial_index_global":91,"time_elapsed":1734149,"internal_chunk_id":"0-0.15-0"},{"instructions":"We would like to ask you some questions about your background. Please press Continue to continue.","rt":1658,"trial_type":"instructions","trial_index":0,"trial_index_global":92,"time_elapsed":1735809,"internal_chunk_id":"0-0.16-0"},{"question":"What is your age?","response_type":"free","response_choices":[],"correct_response":"","response":"20","explain":false,"explanation":"","explanation_history":[],"response_history":["20"],"rt":3582,"trial_type":"question","trial_index":0,"trial_index_global":93,"time_elapsed":1739392,"internal_chunk_id":"0-0.16-0"},{"question":"What is your level of education?","response_type":"multi","response_choices":["Did not graduate high school","High school diploma","Some college, no degree","Associates Degree","Bachelors Degree","Some graduate school, no degree","Masters Degree","Doctorate, M.D., etc."],"correct_response":"","response":"Some college, no degree","explain":false,"explanation":"","explanation_history":[],"response_history":["Some college, no degree"],"rt":5241,"trial_type":"question","trial_index":0,"trial_index_global":94,"time_elapsed":1744634,"internal_chunk_id":"0-0.16-0"},{"question":"What  is the most advanced math class you've completed? If you have multiple classes and you're not sure which one is most advanced, please list them.","response_type":"free","response_choices":[],"correct_response":"","response":"Calculus 1","explain":false,"explanation":"","explanation_history":[],"response_history":["Z","Calculus 1"],"rt":7948,"trial_type":"question","trial_index":0,"trial_index_global":95,"time_elapsed":1752587,"internal_chunk_id":"0-0.16-0"},{"question":"How familiar are you with the concept of modular arithmetic?","response_type":"multi","response_choices":["1 - never heard of it","2 - heard of it but didn't know what it was","3 - seen it used or explained","4 - used it but not often or recently","5 - used it, remember and understand it"],"correct_response":"1","response":"1 - never heard of it","explain":false,"explanation":"","explanation_history":[],"response_history":["2 - heard of it but didn't know what it was","1 - never heard of it"],"rt":5390,"trial_type":"question","trial_index":0,"trial_index_global":96,"time_elapsed":1757980,"internal_chunk_id":"0-0.16-0"},{"question":"How familiar are you with the concept of a mathematical group?","response_type":"multi","response_choices":["1 - never heard of it","2 - heard of it but didn't know what it was","3 - seen it used or explained","4 - used it but not often or recently","5 - used it, remember and understand it"],"correct_response":"1","response":"2 - heard of it but didn't know what it was","explain":false,"explanation":"","explanation_history":[],"response_history":["2 - heard of it but didn't know what it was"],"rt":3153,"trial_type":"question","trial_index":0,"trial_index_global":97,"time_elapsed":1761136,"internal_chunk_id":"0-0.16-0"},{"question":"Do you feel you learned something from this HIT?","response_type":"multi","response_choices":["1 - not at all","2 - somewhat","3 - definitely"],"correct_response":"1","response":"3 - definitely","explain":false,"explanation":"","explanation_history":[],"response_history":["3 - definitely"],"rt":2216,"trial_type":"question","trial_index":0,"trial_index_global":98,"time_elapsed":1763354,"internal_chunk_id":"0-0.16-0"},{"question":"Do you feel you understood the concepts in this HIT?","response_type":"multi","response_choices":["1 - not at all","2 - somewhat","3 - definitely"],"correct_response":"1","response":"3 - definitely","explain":false,"explanation":"","explanation_history":[],"response_history":["2 - somewhat","3 - definitely"],"rt":2155,"trial_type":"question","trial_index":0,"trial_index_global":99,"time_elapsed":1765511,"internal_chunk_id":"0-0.16-0"},{"question":"Did you enjoy this HIT?","response_type":"multi","response_choices":["1 - not at all","2 - somewhat","3 - definitely"],"correct_response":"1","response":"3 - definitely","explain":false,"explanation":"","explanation_history":[],"response_history":["3 - definitely"],"rt":1668,"trial_type":"question","trial_index":0,"trial_index_global":100,"time_elapsed":1767181,"internal_chunk_id":"0-0.16-0"},{"question":"What is your gender?","response_type":"multi","response_choices":["Female","Male","Other"],"correct_response":"","response":"Male","explain":false,"explanation":"","explanation_history":[],"response_history":["Male"],"rt":2156,"trial_type":"question","trial_index":0,"trial_index_global":101,"time_elapsed":1769338,"internal_chunk_id":"0-0.16-0"},{"question":"What is/are your native language(s)? (The languages spoken in your household when you were a child.)","response_type":"free","response_choices":[],"correct_response":"","response":"Croatian","explain":false,"explanation":"","explanation_history":[],"response_history":["Cra","Croatian"],"rt":7355,"trial_type":"question","trial_index":0,"trial_index_global":102,"time_elapsed":1776695,"internal_chunk_id":"0-0.16-0"},{"question":"Did you use pen and paper at any point on this HIT?","response_type":"free","response_choices":[],"correct_response":"","response":"No","explain":false,"explanation":"","explanation_history":[],"response_history":["No ","No,","No"],"rt":5522,"trial_type":"question","trial_index":0,"trial_index_global":103,"time_elapsed":1782221,"internal_chunk_id":"0-0.16-0"},{"question":"Do you have any comments on this HIT?","response_type":"free","response_choices":[],"correct_response":"","response":"","explain":false,"explanation":"","explanation_history":[],"response_history":[],"rt":1456,"trial_type":"question","trial_index":0,"trial_index_global":104,"time_elapsed":1783680,"internal_chunk_id":"0-0.16-0"}]