[{"nsides":6,"instructions":"Let's define a new operation <img src=./images/hexagon_symbol.png style=width:14px;height:14px>. This operation will give us a way of combining two of the numbers 0, 1, 2, 3, 4, 5 to get another one of them back. Consider the hexagon at the right, where I've labeled each point with one of the numbers. To perform <img src=./images/hexagon_symbol.png style=width:14px;height:14px>, you can use the interactive diagram on the right, or perform the operation in your mind. Point the arrow at the first number on the hexagon by clicking, then click (or click and drag) to move the arrow the second number of points clockwise around the hexagon. The number the arrow arrives at is your result. (The operation is called <img src=./images/hexagon_symbol.png style=width:14px;height:14px> because it uses the hexagon, which has 6 sides.) <br /><br />For example, 3 <img src=./images/hexagon_symbol.png style=width:14px;height:14px> 5 =  2, becau se 5 steps clockwise from 3 on the hexagon brings us to 2. So 3 <img src=./images/hexagon_symbol.png style=width:14px;height:14px> 5 = 2.<br /><br />Similarly, 1 <img src=./images/hexagon_symbol.png style=width:14px;height:14px> 4 = 5, because 4 steps clockwise from 1 brings us to 5. <br /><br />Click Continue when you're ready to move on.","orientation_history":[0],"rt":38215,"trial_type":"polygon-arrow-instructions","trial_index":0,"trial_index_global":1,"time_elapsed":184833,"internal_chunk_id":"0-0"},{"nsides":6,"instructions":"Do you see how <img src=./images/hexagon_symbol.png style=width:14px;height:14px> works? By labeling the points of the hexagon with the numbers from 0 to 5, we ensure that when we combine two numbers under <img src=./images/hexagon_symbol.png style=width:14px;height:14px>, we only produce numbers between 0 and 5.<br /><br />Click Continue when you are ready to move on.","orientation_history":[0],"rt":6579,"trial_type":"polygon-arrow-instructions","trial_index":0,"trial_index_global":2,"time_elapsed":191433,"internal_chunk_id":"0-0"},{"nsides":6,"question":"Now try one on your own! What is 4 <img src=./images/hexagon_symbol.png style=width:14px;height:14px> 5? <br /><br /> (Remember, to perform <img src=./images/hexagon_symbol.png style=width:14px;height:14px>, you can use the interactive diagram on the right, or perform the operation in your mind. Point the arrow at the first number on the hexagon, then move the arrow the second number of points clockwise around the hexagon. The number the arrow arrives at is your result.)","response_type":"free","response_choices":[],"correct_response":"3","response":"4 then 2","explain":false,"explanation":"","explanation_history":[],"orientation_history":[[0]],"response_history":["4 then 2"],"rt":33409,"trial_type":"polygon-arrow-question","trial_index":0,"trial_index_global":3,"time_elapsed":224851,"internal_chunk_id":"0-0.3-0"},{"nsides":6,"feedback":"Sorry, that was incorrect. 4 <img src=./images/hexagon_symbol.png style=width:14px;height:14px> 5 = 3 because 5 steps clockwise on the hexagon from 4 brings us to 3","orientation_history":[0],"rt":37012,"trial_type":"polygon-arrow-feedback","trial_index":0,"trial_index_global":4,"time_elapsed":261879,"internal_chunk_id":"0-0.3-0"},{"nsides":6,"question":"What is 3 <img src=./images/hexagon_symbol.png style=width:14px;height:14px> 2? <br /><br /> (Remember, to perform <img src=./images/hexagon_symbol.png style=width:14px;height:14px>, you can use the interactive diagram on the right, or perform the operation in your mind. Point the arrow at the first number on the hexagon, then move the arrow the second number of points clockwise around the hexagon. The number the arrow arrives at is your result.)","response_type":"free","response_choices":[],"correct_response":"5","response":"4","explain":false,"explanation":"","explanation_history":[],"orientation_history":[[0]],"response_history":["4"],"rt":17016,"trial_type":"polygon-arrow-question","trial_index":0,"trial_index_global":5,"time_elapsed":278915,"internal_chunk_id":"0-0.3-0"},{"nsides":6,"feedback":"Sorry, that was incorrect. 3 <img src=./images/hexagon_symbol.png style=width:14px;height:14px> 2 = 5 because 2 steps clockwise on the hexagon from 3 brings us to 5","orientation_history":[0],"rt":15180,"trial_type":"polygon-arrow-feedback","trial_index":0,"trial_index_global":6,"time_elapsed":294109,"internal_chunk_id":"0-0.3-0"},{"nsides":6,"question":"What is 1 <img src=./images/hexagon_symbol.png style=width:14px;height:14px> 5? <br /><br /> (Remember, to perform <img src=./images/hexagon_symbol.png style=width:14px;height:14px>, you can use the interactive diagram on the right, or perform the operation in your mind. Point the arrow at the first number on the hexagon, then move the arrow the second number of points clockwise around the hexagon . The nu mber the arrow arrives at is your result.)","response_type":"free","response_choices":[],"correct_response":"0","response":"4","explain":false,"explanation":"","explanation_history":[],"orientation_history":[[0]],"response_history":["4"],"rt":9617,"trial_type":"polygon-arrow-question","trial_index":0,"trial_index_global":7,"time_elapsed":303734,"internal_chunk_id":"0-0.3-0"},{"nsides":6,"feedback":"Sorry, that was incorrect. 1 <img src=./images/hexagon_symbol.png style=width:14px;height:14px> 5 = 0 because 5 steps clockwise on the hexagon from 1 brings us to 0","orientation_history":[0],"rt":16038,"trial_type":"polygon-arrow-feedback","trial_index":0,"trial_index_global":8,"time_elapsed":319779,"internal_chunk_id":"0-0.3-0"},{"nsides":6,"question":"What is 1 <img src=./images/hexagon_symbol.png style=width:14px;height:14px> 1? <br /><br /> (Remember, to perform <img src=./images/hexagon_symbol.png style=width:14px;height:14px>, you can use the interac tive dia gram on the right, or perform the operation in your mind. Point the arrow at the first number on the hexagon, then move the arrow the second number of points clockwise around the hexagon. The number the arrow arrives at is your result.)","response_type":"free","response_choices":[],"correct_response":"2","response":"1","explain":false,"explanation":"","explanation_history":[],"orientation_history":[[0]],"response_history":["1"],"rt":11684,"trial_type":"polygon-arrow-question","trial_index":0,"trial_index_global":9,"time_elapsed":331474,"internal_chunk_id":"0-0.3-0"},{"nsides":6,"feedback":"Sorry, that was incorrect. 1 <img src=./images/hexagon_symbol.png style=width:14px;height:14px> 1 = 2 because 1 step clockwise on the hexagon from 1 brings us to 2","orientation_history":[0],"rt":5273,"trial_type":"polygon-arrow-feedback","trial_index":0,"trial_index_global":10,"time_elapsed":336754,"internal_chunk_id":"0-0.3-0"},{"nsides":6,"question":"What is 3 <img src=./image s/hexago n_symbol.png style=width:14px;height:14px> 0? <br /><br /> (Remember, to perform <img src=./images/hexagon_symbol.png style=width:14px;height:14px>, you can use the interactive diagram on the right, or perform the operation in your mind. Point the arrow at the first number on the hexagon, then move the arrow the second number of points clockwise around the hexagon. The number the arrow arrives at is your result.)","response_type":"free","response_choices":[],"correct_response":"3","response":"4","explain":false,"explanation":"","explanation_history":[],"orientation_history":[[0]],"response_history":["4"],"rt":6188,"trial_type":"polygon-arrow-question","trial_index":0,"trial_index_global":11,"time_elapsed":342946,"internal_chunk_id":"0-0.3-0"},{"nsides":6,"feedback":"Sorry, that was incorrect. 3 <img src=./images/hexagon_symbol.png style=width:14px;height:14px> 0 = 3 because 0 steps clockwise on the hexagon from 3 brings us to 3","orientation_history":[0],"rt":11904,"trial_type":"polygon-arrow-feedback","trial_index":0,"trial_index_global":12,"time_elapsed":354856,"internal_chunk_id":"0-0.3-0"},{"nsides":6,"question":"What is 4 <img src=./images/hexagon_symbol.png style=width:14px;height:14px> 4? <br /><br /> (Remember, to perform <img src=./images/hexagon_symbol.png style=width:14px;height:14px>, you can use the interactive diagram on the right, or perform the operation in your mind. Point the arrow at the first number on the hexagon, then move the arrow the second number of points clockwise around the hexagon. The number the arrow arrives at is your result.)","response_type":"free","response_choices":[],"correct_response":"2","response":"2","explain":false,"explanation":"","explanation_history":[],"orientation_history":[[0]],"response_history":["2"],"rt":7773,"trial_type":"polygon-arrow-question","trial_index":0,"trial_index_global":13,"time_elapsed":362638,"internal_chunk_id":"0-0.3-0"},{"nsides":6,"feedback":"Co rrect! 4  <img src=./images/hexagon_symbol.png style=width:14px;height:14px> 4 = 2 because 4 steps clockwise on the hexagon from 4 brings us to 2","orientation_history":[0],"rt":1256,"trial_type":"polygon-arrow-feedback","trial_index":0,"trial_index_global":14,"time_elapsed":363902,"internal_chunk_id":"0-0.3-0"},{"nsides":6,"question":"What is 1 <img src=./images/hexagon_symbol.png style=width:14px;height:14px> 3? <br /><br /> (Remember, to perform <img src=./images/hexagon_symbol.png style=width:14px;height:14px>, you can use the interactive diagram on the right, or perform the operation in your mind. Point the arrow at the first number on the hexagon, then move the arrow the second number of points clockwise around the hexagon. The number the arrow arrives at is your result.)","response_type":"free","response_choices":[],"correct_response":"4","response":"5","explain":false,"explanation":"","explanation_history":[],"orientation_history":[[0]],"response_history":["5"],"rt":7538,"trial_type":"polygon-arrow-question","trial_index":0,"trial_index_global":15,"time_elapsed":371443,"internal_chunk_id":"0-0.3-0"},{"nsides":6,"feedback":"Sorry, that was incorrect. 1 <img src=./images/hexagon_symbol.png style=width:14px;height:14px> 3 = 4 because 3 steps clockwise on the hexagon from 1 brings us to 4","orientation_history":[0],"rt":7376,"trial_type":"polygon-arrow-feedback","trial_index":0,"trial_index_global":16,"time_elapsed":378820,"internal_chunk_id":"0-0.3-0"},{"nsides":6,"question":"What is 4 <img src=./images/hexagon_symbol.png style=width:14px;height:14px> 3? <br /><br /> (Remember, to perform <img src=./images/hexagon_symbol.png style=width:14px;height:14px>, you can use the interactive diagram on the right, or perform the operation in your mind. Point the arrow at the first number on the hexagon, then move the arrow the second number of points clockwise around the hexagon. The number the arrow arrives at is your  result. )","response_type":"free","response_choices":[],"correct_response":"1","response":"3","explain":false,"explanation":"","explanation_history":[],"orientation_history":[[0]],"response_history":["3"],"rt":9759,"trial_type":"polygon-arrow-question","trial_index":0,"trial_index_global":17,"time_elapsed":388583,"internal_chunk_id":"0-0.3-0"},{"nsides":6,"feedback":"Sorry, that was incorrect. 4 <img src=./images/hexagon_symbol.png style=width:14px;height:14px> 3 = 1 because 3 steps clockwise on the hexagon from 4 brings us to 1","orientation_history":[0],"rt":5765,"trial_type":"polygon-arrow-feedback","trial_index":0,"trial_index_global":18,"time_elapsed":394356,"internal_chunk_id":"0-0.3-0"},{"nsides":6,"question":"What is 0 <img src=./images/hexagon_symbol.png style=width:14px;height:14px> 5? <br /><br /> (Remember, to perform <img src=./images/hexagon_symbol.png style=width:14px;height:14px>, you can use the interactive diagram on the right, or perform th e operat ion in your mind. Point the arrow at the first number on the hexagon, then move the arrow the second number of points clockwise around the hexagon. The number the arrow arrives at is your result.)","response_type":"free","response_choices":[],"correct_response":"5","response":"5","explain":false,"explanation":"","explanation_history":[],"orientation_history":[[0]],"response_history":["5"],"rt":6696,"trial_type":"polygon-arrow-question","trial_index":0,"trial_index_global":19,"time_elapsed":401055,"internal_chunk_id":"0-0.3-0"},{"nsides":6,"feedback":"Correct! 0 <img src=./images/hexagon_symbol.png style=width:14px;height:14px> 5 = 5 because 5 steps clockwise on the hexagon from 0 brings us to 5","orientation_history":[0],"rt":2137,"trial_type":"polygon-arrow-feedback","trial_index":0,"trial_index_global":20,"time_elapsed":403197,"internal_chunk_id":"0-0.3-0"},{"nsides":6,"question":"What is 2 <img src=./images/hexagon_symbol.png style=width:14px;height:14px>  5? <br / ><br /> (Remember, to perform <img src=./images/hexagon_symbol.png style=width:14px;height:14px>, you can use the interactive diagram on the right, or perform the operation in your mind. Point the arrow at the first number on the hexagon, then move the arrow the second number of points clockwise around the hexagon. The number the arrow arrives at is your result.)","response_type":"free","response_choices":[],"correct_response":"1","response":"4","explain":false,"explanation":"","explanation_history":[],"orientation_history":[[0]],"response_history":["4"],"rt":6926,"trial_type":"polygon-arrow-question","trial_index":0,"trial_index_global":21,"time_elapsed":410124,"internal_chunk_id":"0-0.3-0"},{"nsides":6,"feedback":"Sorry, that was incorrect. 2 <img src=./images/hexagon_symbol.png style=width:14px;height:14px> 5 = 1 because 5 steps clockwise on the hexagon from 2 brings us to 1","orientation_history":[0],"rt":1871,"trial_type":"polygon-arrow-feedback","trial_index":0,"trial_index_global":22,"time_elapsed":411996,"internal_chunk_id":"0-0.3-0"},{"nsides":6,"question":"What is 3 <img src=./images/hexagon_symbol.png style=width:14px;height:14px> 3? <br /><br /> (Remember, to perform <img src=./images/hexagon_symbol.png style=width:14px;height:14px>, you can use the interactive diagram on the right, or perform the operation in your mind. Point the arrow at the first number on the hexagon, then move the arrow the second number of points clockwise around the hexagon. The number the arrow arrives at is your result.)","response_type":"free","response_choices":[],"correct_response":"0","response":"3","explain":false,"explanation":"","explanation_history":[],"orientation_history":[[0]],"response_history":["3"],"rt":4184,"trial_type":"polygon-arrow-question","trial_index":0,"trial_index_global":23,"time_elapsed":416189,"internal_chunk_id":"0-0.4-0"},{"nsides":6,"feedback":"Sorry, that was incorrect. 3 <img src=./images/hexagon_sym bol.png style=width:14px;height:14px> 3 = 0 because 3 steps clockwise on the hexagon from 3 brings us to 0","orientation_history":[0],"rt":2124,"trial_type":"polygon-arrow-feedback","trial_index":0,"trial_index_global":24,"time_elapsed":418315,"internal_chunk_id":"0-0.4-0"},{"nsides":6,"question":"What is 1 <img src=./images/hexagon_symbol.png style=width:14px;height:14px> 2? <br /><br /> (Remember, to perform <img src=./images/hexagon_symbol.png style=width:14px;height:14px>, you can use the interactive diagram on the right, or perform the operation in your mind. Point the arrow at the first number on the hexagon, then move the arrow the second number of points clockwise around the hexagon. The number the arrow arrives at is your result.)","response_type":"free","response_choices":[],"correct_response":"3","response":"4","explain":false,"explanation":"","explanation_history":[],"orientation_history":[[0]],"response_history":["4"],"rt":9431,"trial_type":"polygo n-arrow- question","trial_index":0,"trial_index_global":25,"time_elapsed":427748,"internal_chunk_id":"0-0.4-0"},{"nsides":6,"feedback":"Sorry, that was incorrect. 1 <img src=./images/hexagon_symbol.png style=width:14px;height:14px> 2 = 3 because 2 steps clockwise on the hexagon from 1 brings us to 3","orientation_history":[0],"rt":4270,"trial_type":"polygon-arrow-feedback","trial_index":0,"trial_index_global":26,"time_elapsed":432025,"internal_chunk_id":"0-0.4-0"},{"nsides":6,"question":"What is 5 <img src=./images/hexagon_symbol.png style=width:14px;height:14px> 5? <br /><br /> (Remember, to perform <img src=./images/hexagon_symbol.png style=width:14px;height:14px>, you can use the interactive diagram on the right, or perform the operation in your mind. Point the arrow at the first number on the hexagon, then move the arrow the second number of points clockwise around the hexagon. The number the arrow arrives at is your result.)","response_type":"free","response_choices":[],"correct_response":"4","response":"1","explain":false,"explanation":"","explanation_history":[],"orientation_history":[[0]],"response_history":["1"],"rt":4618,"trial_type":"polygon-arrow-question","trial_index":0,"trial_index_global":27,"time_elapsed":436644,"internal_chunk_id":"0-0.4-0"},{"nsides":6,"feedback":"Sorry, that was incorrect. 5 <img src=./images/hexagon_symbol.png style=width:14px;height:14px> 5 = 4 because 5 steps clockwise on the hexagon from 5 brings us to 4","orientation_history":[0],"rt":1408,"trial_type":"polygon-arrow-feedback","trial_index":0,"trial_index_global":28,"time_elapsed":438056,"internal_chunk_id":"0-0.4-0"},{"nsides":6,"question":"What is 4 <img src=./images/hexagon_symbol.png style=width:14px;height:14px> 2? <br /><br /> (Remember, to perform <img src=./images/hexagon_symbol.png style=width:14px;height:14px>, you can use the interactive diagram on the right, or perform the operation in your mind. Point the arro w at the  first number on the hexagon, then move the arrow the second number of points clockwise around the hexagon. The number the arrow arrives at is your result.)","response_type":"free","response_choices":[],"correct_response":"0","response":"1","explain":false,"explanation":"","explanation_history":[],"orientation_history":[[0]],"response_history":["1"],"rt":58322,"trial_type":"polygon-arrow-question","trial_index":0,"trial_index_global":29,"time_elapsed":496380,"internal_chunk_id":"0-0.4-0"},{"nsides":6,"feedback":"Sorry, that was incorrect. 4 <img src=./images/hexagon_symbol.png style=width:14px;height:14px> 2 = 0 because 2 steps clockwise on the hexagon from 4 brings us to 0","orientation_history":[0],"rt":6482,"trial_type":"polygon-arrow-feedback","trial_index":0,"trial_index_global":30,"time_elapsed":502877,"internal_chunk_id":"0-0.4-0"},{"nsides":6,"question":"What is 0 <img src=./images/hexagon_symbol.png style=width:14px;height:14px> 2? <br /><br /> (Reme mber, to  perform <img src=./images/hexagon_symbol.png style=width:14px;height:14px>, you can use the interactive diagram on the right, or perform the operation in your mind. Point the arrow at the first number on the hexagon, then move the arrow the second number of points clockwise around the hexagon. The number the arrow arrives at is your result.)","response_type":"free","response_choices":[],"correct_response":"2","response":"2","explain":false,"explanation":"","explanation_history":[],"orientation_history":[[0]],"response_history":["2"],"rt":4470,"trial_type":"polygon-arrow-question","trial_index":0,"trial_index_global":31,"time_elapsed":507356,"internal_chunk_id":"0-0.4-0"},{"nsides":6,"feedback":"Correct! 0 <img src=./images/hexagon_symbol.png style=width:14px;height:14px> 2 = 2 because 2 steps clockwise on the hexagon from 0 brings us to 2","orientation_history":[0],"rt":1251,"trial_type":"polygon-arrow-feedback","trial_index":0,"trial_index_global":32,"time_elapsed":508610,"internal_chunk_id":"0-0.4-0"},{"nsides":6,"question":"What is 3 <img src=./images/hexagon_symbol.png style=width:14px;height:14px> 5? <br /><br /> (Remember, to perform <img src=./images/hexagon_symbol.png style=width:14px;height:14px>, you can use the interactive diagram on the right, or perform the operation in your mind. Point the arrow at the first number on the hexagon, then move the arrow the second number of points clockwise around the hexagon. The number the arrow arrives at is your result.)","response_type":"free","response_choices":[],"correct_response":"2","response":"2","explain":false,"explanation":"","explanation_history":[],"orientation_history":[[0]],"response_history":["2"],"rt":6909,"trial_type":"polygon-arrow-question","trial_index":0,"trial_index_global":33,"time_elapsed":515521,"internal_chunk_id":"0-0.4-0"},{"nsides":6,"feedback":"Correct! 3 <img src=./images/hexagon_symbol.png style=width:14px;height:14px> 5 = 2 because  5 steps  clockwise on the hexagon from 3 brings us to 2","orientation_history":[0],"rt":1009,"trial_type":"polygon-arrow-feedback","trial_index":0,"trial_index_global":34,"time_elapsed":516531,"internal_chunk_id":"0-0.4-0"},{"nsides":6,"question":"What is 1 <img src=./images/hexagon_symbol.png style=width:14px;height:14px> 4? <br /><br /> (Remember, to perform <img src=./images/hexagon_symbol.png style=width:14px;height:14px>, you can use the interactive diagram on the right, or perform the operation in your mind. Point the arrow at the first number on the hexagon, then move the arrow the second number of points clockwise around the hexagon. The number the arrow arrives at is your result.)","response_type":"free","response_choices":[],"correct_response":"5","response":"5","explain":false,"explanation":"","explanation_history":[],"orientation_history":[[0]],"response_history":["4","5"],"rt":8819,"trial_type":"polygon-arrow-question","trial_index":0,"trial_index_global":35,"time_elapsed":525353,"internal_chunk_id":"0-0.4-0"},{"nsides":6,"feedback":"Correct! 1 <img src=./images/hexagon_symbol.png style=width:14px;height:14px> 4 = 5 because 4 steps clockwise on the hexagon from 1 brings us to 5","orientation_history":[0],"rt":1514,"trial_type":"polygon-arrow-feedback","trial_index":0,"trial_index_global":36,"time_elapsed":526871,"internal_chunk_id":"0-0.4-0"},{"nsides":6,"question":"What is 5 <img src=./images/hexagon_symbol.png style=width:14px;height:14px> 1? <br /><br /> (Remember, to perform <img src=./images/hexagon_symbol.png style=width:14px;height:14px>, you can use the interactive diagram on the right, or perform the operation in your mind. Point the arrow at the first number on the hexagon, then move the arrow the second number of points clockwise around the hexagon. The number the arrow arrives at is your result.)","response_type":"free","response_choices":[],"correct_response":"0","response":"0\n","explain":false,"explanation":"","explanation_history":[],"orientation_history":[[0]],"response_history":["0\n"],"rt":7251,"trial_type":"polygon-arrow-question","trial_index":0,"trial_index_global":37,"time_elapsed":534124,"internal_chunk_id":"0-0.4-0"},{"nsides":6,"feedback":"Sorry, that was incorrect. 5 <img src=./images/hexagon_symbol.png style=width:14px;height:14px> 1 = 0 because 1 step clockwise on the hexagon from 5 brings us to 0","orientation_history":[0],"rt":835,"trial_type":"polygon-arrow-feedback","trial_index":0,"trial_index_global":38,"time_elapsed":534962,"internal_chunk_id":"0-0.4-0"},{"nsides":6,"question":"What is 1 <img src=./images/hexagon_symbol.png style=width:14px;height:14px> 0? <br /><br /> (Remember, to perform <img src=./images/hexagon_symbol.png style=width:14px;height:14px>, you can use the interactive diagram on the right, or perform the operation in your mind. Point the arrow at the first number on the hexagon, then move the arrow the second  number o f points clockwise around the hexagon. The number the arrow arrives at is your result.)","response_type":"free","response_choices":[],"correct_response":"1","response":"1\n","explain":false,"explanation":"","explanation_history":[],"orientation_history":[[0]],"response_history":["1\n"],"rt":8279,"trial_type":"polygon-arrow-question","trial_index":0,"trial_index_global":39,"time_elapsed":543243,"internal_chunk_id":"0-0.4-0"},{"nsides":6,"feedback":"Sorry, that was incorrect. 1 <img src=./images/hexagon_symbol.png style=width:14px;height:14px> 0 = 1 because 0 steps clockwise on the hexagon from 1 brings us to 1","orientation_history":[0],"rt":12172,"trial_type":"polygon-arrow-feedback","trial_index":0,"trial_index_global":40,"time_elapsed":555419,"internal_chunk_id":"0-0.4-0"},{"nsides":6,"question":"What is 5 <img src=./images/hexagon_symbol.png style=width:14px;height:14px> 2? <br /><br /> (Remember, to perform <img src=./images/hexagon_symbol.png style=width:1 4px;height:14px>, you can use the interactive diagram on the right, or perform the operation in your mind. Point the arrow at the first number on the hexagon, then move the arrow the second number of points clockwise around the hexagon. The number the arrow arrives at is your result.)","response_type":"free","response_choices":[],"correct_response":"1","response":"1","explain":false,"explanation":"","explanation_history":[],"orientation_history":[[0]],"response_history":["1"],"rt":5913,"trial_type":"polygon-arrow-question","trial_index":0,"trial_index_global":41,"time_elapsed":561343,"internal_chunk_id":"0-0.4-0"},{"nsides":6,"feedback":"Correct! 5 <img src=./images/hexagon_symbol.png style=width:14px;height:14px> 2 = 1 because 2 steps clockwise on the hexagon from 5 brings us to 1","orientation_history":[0],"rt":982,"trial_type":"polygon-arrow-feedback","trial_index":0,"trial_index_global":42,"time_elapsed":562327,"internal_chunk_id":"0-0.4-0"},{"nsides":6,"instructions":"Now we're going to discuss a couple special properties of this new operation, <img src=./images/hexagon_symbol.png style=width:14px;height:14px> that we've learned. First, notice that the number 0 behaves in a special way under <img src=./images/hexagon_symbol.png style=width:14px;height:14px>. Whenever we combine 0 with anything else, we get that same thing back. We'll say that 0 is the <i>identity</i> under <img src=./images/hexagon_symbol.png style=width:14px;height:14px>, because when you combine it with something it gives you that identical thing back.","orientation_history":[0],"rt":17681,"trial_type":"polygon-arrow-instructions","trial_index":0,"trial_index_global":43,"time_elapsed":580013,"internal_chunk_id":"0-0"},{"nsides":6,"instructions":"Now that we know 0 is the identity under <img src=./images/hexagon_symbol.png style=width:14px;height:14px>, we're going to make a new definition. We'll say that the <i>inverse</i> of a number is  the ele ment that you combine with it to produce the identity under our operation. For example, 5 <img src=./images/hexagon_symbol.png style=width:14px;height:14px> 1 = 0, so we say 1 is the inverse of 5 under <img src=./images/hexagon_symbol.png style=width:14px;height:14px>, (remember 0 is the identity under <img src=./images/hexagon_symbol.png style=width:14px;height:14px>). Similarly, 3 is its own inverse under <img src=./images/hexagon_symbol.png style=width:14px;height:14px>, because 3 <img src=./images/hexagon_symbol.png style=width:14px;height:14px> 3 = 0.","orientation_history":[0],"rt":50694,"trial_type":"polygon-arrow-instructions","trial_index":0,"trial_index_global":44,"time_elapsed":630723,"internal_chunk_id":"0-0"},{"nsides":6,"question":"Now you try! What is the inverse of 4 under <img src=./images/hexagon_symbol.png style=width:14px;height:14px>? <br /><br /> (Remember, the inverse of an element is the thing which you  combine  with it to produce the identity.)","response_type":"free","response_choices":[],"correct_response":"2","response":"5","explain":false,"explanation":"","explanation_history":[],"orientation_history":[[0]],"response_history":["5"],"rt":9644,"trial_type":"polygon-arrow-question","trial_index":0,"trial_index_global":45,"time_elapsed":640384,"internal_chunk_id":"0-0.7-0"},{"nsides":6,"feedback":"Sorry, that was incorrect. The inverse of 4 under <img src=./images/hexagon_symbol.png style=width:14px;height:14px> is 2 because 4 <img src=./images/hexagon_symbol.png style=width:14px;height:14px> 2 = 0, and 0 is the identity under <img src=./images/hexagon_symbol.png style=width:14px;height:14px>.","orientation_history":[0],"rt":10300,"trial_type":"polygon-arrow-feedback","trial_index":0,"trial_index_global":46,"time_elapsed":650690,"internal_chunk_id":"0-0.7-0"},{"nsides":6,"question":"What is the inverse of 1 under <img src=./images/hexagon_symbol.png styl e=widt h:14px;height:14px>? <br /><br /> (Remember, the inverse of an element is the thing which you combine with it to produce the identity.)","response_type":"free","response_choices":[],"correct_response":"5","response":"5","explain":false,"explanation":"","explanation_history":[],"orientation_history":[[0]],"response_history":["5"],"rt":10315,"trial_type":"polygon-arrow-question","trial_index":0,"trial_index_global":47,"time_elapsed":661013,"internal_chunk_id":"0-0.7-0"},{"nsides":6,"feedback":"Correct! The inverse of 1 under <img src=./images/hexagon_symbol.png style=width:14px;height:14px> is 5 because 1 <img src=./images/hexagon_symbol.png style=width:14px;height:14px> 5 = 0, and 0 is the identity under <img src=./images/hexagon_symbol.png style=width:14px;height:14px>.","orientation_history":[0],"rt":1141,"trial_type":"polygon-arrow-feedback","trial_index":0,"trial_index_global":48,"time_elapsed":662160,"internal_chunk_id":"0-0.7-0"},{"nsides":6,"question":"What is the inverse of 3 under <img src=./images/hexagon_symbol.png style=width:14px;height:14px>? <br /><br /> (Remember, the inverse of an element is the thing which you combine with it to produce the identity.)","response_type":"free","response_choices":[],"correct_response":"3","response":"3","explain":false,"explanation":"","explanation_history":[],"orientation_history":[[0]],"response_history":["3"],"rt":6495,"trial_type":"polygon-arrow-question","trial_index":0,"trial_index_global":49,"time_elapsed":668657,"internal_chunk_id":"0-0.7-0"},{"nsides":6,"feedback":"Correct! The inverse of 3 under <img src=./images/hexagon_symbol.png style=width:14px;height:14px> is 3 because 3 <img src=./images/hexagon_symbol.png style=width:14px;height:14px> 3 = 0, and 0 is the identity under <img src=./images/hexagon_symbol.png style=width:14px;height:14px>.","orientation_history":[0],"rt":1075,"trial_type":"polygon-arrow-feedback","trial_index":0,"trial_index_global":50,"time_elapsed":669734,"internal_chunk_id":"0-0.7-0"},{"nsides":6,"question":"What is the inverse of 2 under <img src=./images/hexagon_symbol.png style=width:14px;height:14px>? <br /><br /> (Remember, the inverse of an element is the thing which you combine with it to produce the identity.)","response_type":"free","response_choices":[],"correct_response":"4","response":"4","explain":false,"explanation":"","explanation_history":[],"orientation_history":[[0]],"response_history":["4"],"rt":5627,"trial_type":"polygon-arrow-question","trial_index":0,"trial_index_global":51,"time_elapsed":675363,"internal_chunk_id":"0-0.7-0"},{"nsides":6,"feedback":"Correct! The inverse of 2 under <img src=./images/hexagon_symbol.png style=width:14px;height:14px> is 4 because 2 <img src=./images/hexagon_symbol.png style=width:14px;height:14px> 4 = 0, and 0 is the identity under <img src=./images/hexagon_symbol.png style=width:14px;height:14px>.","orientation_history":[0],"rt":943,"trial_type":"polygon-arrow-feedback","trial_index":0,"trial_index_global":52,"time_elapsed":676309,"internal_chunk_id":"0-0.7-0"},{"nsides":6,"question":"What is the inverse of 0 under <img src=./images/hexagon_symbol.png style=width:14px;height:14px>? <br /><br /> (Remember, the inverse of an element is the thing which you combine with it to produce the identity.)","response_type":"free","response_choices":[],"correct_response":"0","response":"0","explain":false,"explanation":"","explanation_history":[],"orientation_history":[[0]],"response_history":["0"],"rt":5249,"trial_type":"polygon-arrow-question","trial_index":0,"trial_index_global":53,"time_elapsed":681560,"internal_chunk_id":"0-0.7-0"},{"nsides":6,"feedback":"Correct! The inverse of 0 under <img src=./images/hexagon_symbol.png style=width:14px;height:14px> is 0 because 0 <img src=./images/hexagon_symbol.png style=width:14px;height:14px> 0 = 0, and 0 is the identity under <img  src=. /images/hexagon_symbol.png style=width:14px;height:14px>.","orientation_history":[0],"rt":1181,"trial_type":"polygon-arrow-feedback","trial_index":0,"trial_index_global":54,"time_elapsed":682745,"internal_chunk_id":"0-0.7-0"},{"instructions":"It is also possible to successively apply <img src=./images/hexagon_symbol.png style=width:14px;height:14px>, and the operation can simply be performed starting with the left-most pair. For example, 2 <img src=./images/hexagon_symbol.png style=width:14px;height:14px> 3 <img src=./images/hexagon_symbol.png style=width:14px;height:14px> 4 = 5 <img src=./images/hexagon_symbol.png style=width:14px;height:14px> 4 = 3.","rt":14848,"trial_type":"instructions","trial_index":0,"trial_index_global":55,"time_elapsed":697595,"internal_chunk_id":"0-0"},{"nsides":6,"instructions":"We have one last definition to learn today, using the successive operations we just learned. Let's start with an example. Under our op eration  <img src=./images/hexagon_symbol.png style=width:14px;height:14px> we can make every other number using just 1: 2 = 1 <img src=./images/hexagon_symbol.png style=width:14px;height:14px> 1, 3 = 1 <img src=./images/hexagon_symbol.png style=width:14px;height:14px> 1 <img src=./images/hexagon_symbol.png style=width:14px;height:14px> 1, 4 = 1 <img src=./images/hexagon_symbol.png style=width:14px;height:14px> 1 <img src=./images/hexagon_symbol.png style=width:14px;height:14px> 1 <img src=./images/hexagon_symbol.png style=width:14px;height:14px> 1, 5 = 1 <img src=./images/hexagon_symbol.png style=width:14px;height:14px> 1 <img src=./images/hexagon_symbol.png style=width:14px;height:14px> 1 <img src=./images/hexagon_symbol.png style=width:14px;height:14px> 1 <img src=./images/hexagon_symbol.png style=width:14px;height:14px> 1, and 0 = 1 <img src=./images/hexagon_symbol.png style=width:14px;h eight:14 px> 1 <img src=./images/hexagon_symbol.png style=width:14px;height:14px> 1 <img src=./images/hexagon_symbol.png style=width:14px;height:14px> 1 <img src=./images/hexagon_symbol.png style=width:14px;height:14px> 1 <img src=./images/hexagon_symbol.png style=width:14px;height:14px> 1. Because 1 can make every other element under <img src=./images/hexagon_symbol.png style=width:14px;height:14px>, we say that 1 is a <i>generator</i> under <img src=./images/hexagon_symbol.png style=width:14px;height:14px>. <br /><br /> However, 2 is not a generator under <img src=./images/hexagon_symbol.png style=width:14px;height:14px>, because 4 = 2 <img src=./images/hexagon_symbol.png style=width:14px;height:14px> 2, and 0 = 2 <img src=./images/hexagon_symbol.png style=width:14px;height:14px> 2 <img src=./images/hexagon_symbol.png style=width:14px;height:14px> 2, but there is no way to make 1, 3, or 5 using just 2 .","orientation_history":[0],"rt":37723,"trial_type":"polygon-arrow-instructions","trial_index":0,"trial_index_global":56,"time_elapsed":735324,"internal_chunk_id":"0-0"},{"nsides":6,"question":"Now you try! Is 3 a generator under <img src=./images/hexagon_symbol.png style=width:14px;height:14px>? <br /><br /> (Remember, a generator is an element which can make every other element.)","response_type":"multi","response_choices":["Yes","No"],"correct_response":"No","response":"Yes","explain":false,"explanation":"","explanation_history":[],"orientation_history":[[0]],"response_history":["Yes"],"rt":9280,"trial_type":"polygon-arrow-question","trial_index":0,"trial_index_global":57,"time_elapsed":744620,"internal_chunk_id":"0-0.10-0"},{"nsides":6,"feedback":"Sorry, that's incorrect. 3 is not a generator under <img src=./images/hexagon_symbol.png style=width:14px;height:14px>, because 3 = 3, 0 = 3 <img src=./images/hexagon_symbol.png style=width:14px;height:14px> 3,  but the re is no way to make 1, 2, 4, or 5 using just 3.","orientation_history":[0],"rt":3519,"trial_type":"polygon-arrow-feedback","trial_index":0,"trial_index_global":58,"time_elapsed":748145,"internal_chunk_id":"0-0.10-0"},{"nsides":6,"question":"Is 5 a generator under <img src=./images/hexagon_symbol.png style=width:14px;height:14px>? <br /><br /> (Remember, a generator is an element which can make every other element.)","response_type":"multi","response_choices":["Yes","No"],"correct_response":"Yes","response":"No","explain":false,"explanation":"","explanation_history":[],"orientation_history":[[0]],"response_history":["No"],"rt":4379,"trial_type":"polygon-arrow-question","trial_index":0,"trial_index_global":59,"time_elapsed":752527,"internal_chunk_id":"0-0.10-0"},{"nsides":6,"feedback":"Sorry, that's incorrect. 5 is a generator under <img src=./images/hexagon_symbol.png style=width:14px;height:14px>, because 5 = 5, 4 = 5 <img src=./images/hexagon_symbol.png  style=width:14px;height:14px> 5, 3 = 5 <img src=./images/hexagon_symbol.png style=width:14px;height:14px> 5 <img src=./images/hexagon_symbol.png style=width:14px;height:14px> 5, 2 = 5 <img src=./images/hexagon_symbol.png style=width:14px;height:14px> 5 <img src=./images/hexagon_symbol.png style=width:14px;height:14px> 5 <img src=./images/hexagon_symbol.png style=width:14px;height:14px> 5, 1 = 5 <img src=./images/hexagon_symbol.png style=width:14px;height:14px> 5 <img src=./images/hexagon_symbol.png style=width:14px;height:14px> 5 <img src=./images/hexagon_symbol.png style=width:14px;height:14px> 5 <img src=./images/hexagon_symbol.png style=width:14px;height:14px> 5, and 0 = 5 <img src=./images/hexagon_symbol.png style=width:14px;height:14px> 5 <img src=./images/hexagon_symbol.png style=width:14px;height:14px> 5 <img src=./images/hexagon_symbol.png style=width:14px;height:14px> 5 <img  src=. /images/hexagon_symbol.png style=width:14px;height:14px> 5 <img src=./images/hexagon_symbol.png style=width:14px;height:14px> 5, so you can make all of the numbers under <img src=./images/hexagon_symbol.png style=width:14px;height:14px> using 5","orientation_history":[0],"rt":5946,"trial_type":"polygon-arrow-feedback","trial_index":0,"trial_index_global":60,"time_elapsed":758475,"internal_chunk_id":"0-0.10-0"},{"nsides":6,"question":"Is 4 a generator under <img src=./images/hexagon_symbol.png style=width:14px;height:14px>? <br /><br /> (Remember, a generator is an element which can make every other element.)","response_type":"multi","response_choices":["Yes","No"],"correct_response":"No","response":"Yes","explain":false,"explanation":"","explanation_history":[],"orientation_history":[[0]],"response_history":["Yes"],"rt":2310,"trial_type":"polygon-arrow-question","trial_index":0,"trial_index_global":61,"time_elapsed":760787,"internal_chunk_id":"0 -0.10-0"},{"nsides":6,"feedback":"Sorry, that's incorrect. 4 is not a generator under <img src=./images/hexagon_symbol.png style=width:14px;height:14px>, because 4 = 4, 2 = 4 <img src=./images/hexagon_symbol.png style=width:14px;height:14px> 4, and 0 = 4 <img src=./images/hexagon_symbol.png style=width:14px;height:14px> 4 <img src=./images/hexagon_symbol.png style=width:14px;height:14px> 4, but there is no way to make 1, 3, or 5 using just 4.","orientation_history":[0],"rt":7414,"trial_type":"polygon-arrow-feedback","trial_index":0,"trial_index_global":62,"time_elapsed":768204,"internal_chunk_id":"0-0.10-0"},{"nsides":6,"question":"Is 0 a generator under <img src=./images/hexagon_symbol.png style=width:14px;height:14px>? <br /><br /> (Remember, a generator is an element which can make every other element.)","response_type":"multi","response_choices":["Yes","No"],"correct_response":"No","response":"No","explain":false,"explanation":"","explanation_history":[],"orientation_history":[[0]],"response_history":["No"],"rt":5047,"trial_type":"polygon-arrow-question","trial_index":0,"trial_index_global":63,"time_elapsed":773256,"internal_chunk_id":"0-0.10-0"},{"nsides":6,"feedback":"Correct! 0 is not a generator under <img src=./images/hexagon_symbol.png style=width:14px;height:14px>, because 0 = 0, but there is no way to make 1, 2, 3, 4, or 5 using just 0.","orientation_history":[0],"rt":1074,"trial_type":"polygon-arrow-feedback","trial_index":0,"trial_index_global":64,"time_elapsed":774333,"internal_chunk_id":"0-0.10-0"},{"nsides":9,"instructions":"Now we are going to ask you some questions about a new operation, <img src=./images/nonagon_symbol.png style=width:14px;height:14px>, on the numbers 0, 1, 2, 3, 4, 5, 6, 7, 8. It works exactly like <img src=./images/hexagon_symbol.png style=width:14px;height:14px>, except now you use the nonagon shown at the right. <br /><br />Do you see how <img src=./image s/nonago n_symbol.png style=width:14px;height:14px> works just like <img src=./images/hexagon_symbol.png style=width:14px;height:14px>? By labeling the points of the nonagon with the numbers from 0 to 8, we ensure that when we combine two numbers under <img src=./images/nonagon_symbol.png style=width:14px;height:14px>, we only produce numbers between 0 and 8. <br /><br />We'll give you one practice question with feedback to make sure you understand the new operation. After that, try to complete the remaining questions as accurately as possible.","orientation_history":[0],"rt":3792,"trial_type":"polygon-arrow-instructions","trial_index":0,"trial_index_global":65,"time_elapsed":778129,"internal_chunk_id":"0-0"},{"nsides":9,"question":"Practice: What is 5 <img src=./images/nonagon_symbol.png style=width:14px;height:14px> 5?","response_type":"free","response_choices":[],"correct_response":"1","response":"1","explain":false,"explanation":"","explanation_history":[],"orientation_history":[[0]],"response_history":["1"],"rt":9018,"trial_type":"polygon-arrow-question","trial_index":0,"trial_index_global":66,"time_elapsed":787150,"internal_chunk_id":"0-0.12-0"},{"nsides":9,"feedback":"Correct! 5 <img src=./images/nonagon_symbol.png style=width:14px;height:14px> 5 = 1 because 5 steps clockwise on the nonagon from 5 brings us to 1","orientation_history":[0],"rt":1160,"trial_type":"polygon-arrow-feedback","trial_index":0,"trial_index_global":67,"time_elapsed":788314,"internal_chunk_id":"0-0.12-0"},{"nsides":9,"question":"What is 3 <img src=./images/nonagon_symbol.png style=width:14px;height:14px> 3?","response_type":"free","response_choices":[],"correct_response":"6","response":"6","explain":false,"explanation":"","explanation_history":[],"orientation_history":[[0]],"response_history":["6"],"rt":7804,"trial_type":"polygon-arrow-question","trial_index":0,"trial_index_global":68,"time_elapsed":796119,"internal_chunk_id":"0-0.12-0"},{"nsides":9,"question":"What is 7 <img src=./images/nonagon_symbol.png style=width:14px;height:14px> 4?","response_type":"free","response_choices":[],"correct_response":"2","response":"2","explain":false,"explanation":"","explanation_history":[],"orientation_history":[[0]],"response_history":["2"],"rt":6109,"trial_type":"polygon-arrow-question","trial_index":0,"trial_index_global":69,"time_elapsed":802231,"internal_chunk_id":"0-0.12-0"},{"nsides":9,"question":"What is 1 <img src=./images/nonagon_symbol.png style=width:14px;height:14px> 8?","response_type":"free","response_choices":[],"correct_response":"0","response":"2","explain":false,"explanation":"","explanation_history":[],"orientation_history":[[0]],"response_history":["2"],"rt":7733,"trial_type":"polygon-arrow-question","trial_index":0,"trial_index_global":70,"time_elapsed":809967,"internal_chunk_id":"0-0.12-0"},{"nsides":9,"question":"What is 5 <img src=./images/nonagon_symbol.png style=width:14px;hei ght:14px > 4?","response_type":"free","response_choices":[],"correct_response":"0","response":"8","explain":false,"explanation":"","explanation_history":[],"orientation_history":[[0]],"response_history":["8"],"rt":14302,"trial_type":"polygon-arrow-question","trial_index":0,"trial_index_global":71,"time_elapsed":824273,"internal_chunk_id":"0-0.12-0"},{"nsides":9,"question":"What is 6 <img src=./images/nonagon_symbol.png style=width:14px;height:14px> 6?","response_type":"free","response_choices":[],"correct_response":"3","response":"0","explain":false,"explanation":"","explanation_history":[],"orientation_history":[[0]],"response_history":["0"],"rt":9407,"trial_type":"polygon-arrow-question","trial_index":0,"trial_index_global":72,"time_elapsed":833694,"internal_chunk_id":"0-0.12-0"},{"nsides":9,"instructions":"On the following question, and several others later in the HIT, we will ask you to explain how you got your answer. On these questions, you will be given one box for y our answ er to the question, and a second for your explanation. Please explain your thought process in as much detail as possible (at least one sentence, and more if you can).","orientation_history":[0],"rt":10071,"trial_type":"polygon-arrow-instructions","trial_index":0,"trial_index_global":73,"time_elapsed":843772,"internal_chunk_id":"0-0.12-0"},{"nsides":9,"question":"What is 4 <img src=./images/nonagon_symbol.png style=width:14px;height:14px> 1? Please explain in words how you got your answer.","response_type":"free","response_choices":[],"correct_response":"5","response":"6","explain":true,"explanation":"I counted the space is going clockwise until I got to one","explanation_history":["I counted the space is going clockwise until I got t one","I counted the space is going clockwise until I got to one"],"orientation_history":[[0]],"response_history":["6"],"rt":68207,"trial_type":"polygon-arrow-question","trial_index":0,"trial_index_global":74,"time_elapsed":911986,"internal_chunk_id":"0-0.12-0"},{"nsides":9,"question":"What is 8 <img src=./images/nonagon_symbol.png style=width:14px;height:14px> 4? Please explain in words how you got your answer.","response_type":"free","response_choices":[],"correct_response":"3","response":"5","explain":true,"explanation":"I counted the space is going clockwise until I got you one","explanation_history":["I counted the space is going clockwise until I got you one"],"orientation_history":[[0]],"response_history":["6","5"],"rt":17574,"trial_type":"polygon-arrow-question","trial_index":0,"trial_index_global":75,"time_elapsed":929576,"internal_chunk_id":"0-0.12-0"},{"nsides":9,"question":"What is the identity under <img src=./images/nonagon_symbol.png style=width:14px;height:14px>? Please explain in words how you got your answer.","response_type":"free","response_choices":[],"correct_response":"0","response":"I can not remember this is the most confusing match I have ever seen","explain":true,"explanation":"I c an not remember this is the most confusing match I have ever seen","explanation_history":["I can not remember this is the mst confusing match I have ever seen","I can not remember this is the most confusing match I have ever seen"],"orientation_history":[[0]],"response_history":["I can not remember thei","I can not remember the","I can not remember this is the mist confusing match I g","I can not remember this is the mist confusing match I have ever seen","I can not remember this is the mst confusing match I have ever seen","I can not remember this is the most confusing match I have ever seen"],"rt":47557,"trial_type":"polygon-arrow-question","trial_index":0,"trial_index_global":76,"time_elapsed":977149,"internal_chunk_id":"0-0.12-0"},{"nsides":9,"question":"What is the inverse of 5 under <img src=./images/nonagon_symbol.png style=width:14px;height:14px>?","response_type":"free","response_choices":[],"correct_response":"4","response":"5","explain":false,"explanation":"","explanation_history":[],"orientation_history":[[0]],"response_history":["5"],"rt":16027,"trial_type":"polygon-arrow-question","trial_index":0,"trial_index_global":77,"time_elapsed":993192,"internal_chunk_id":"0-0.12-0"},{"nsides":9,"question":"What is the inverse of 2 under <img src=./images/nonagon_symbol.png style=width:14px;height:14px>?","response_type":"free","response_choices":[],"correct_response":"7","response":"0","explain":false,"explanation":"","explanation_history":[],"orientation_history":[[0]],"response_history":["0"],"rt":5085,"trial_type":"polygon-arrow-question","trial_index":0,"trial_index_global":78,"time_elapsed":998281,"internal_chunk_id":"0-0.12-0"},{"nsides":9,"question":"What is the inverse of 0 under <img src=./images/nonagon_symbol.png style=width:14px;height:14px>?","response_type":"free","response_choices":[],"correct_response":"0","response":"0","explain":false,"explanation":"","explanation_history":[],"orientation_history":[[0]],"response_history":["0"],"rt":3097,"trial_type":"polygon-arrow-question","trial_index":0,"trial_index_global":79,"time_elapsed":1001381,"internal_chunk_id":"0-0.12-0"},{"nsides":9,"question":"What is the inverse of 3 under <img src=./images/nonagon_symbol.png style=width:14px;height:14px>? Please explain in words how you got your answer.","response_type":"free","response_choices":[],"correct_response":"6","response":"3","explain":true,"explanation":"I went to the left until I got to 0","explanation_history":["I wenttit","I wentti","I wentt","I went to the left until I got to 0"],"orientation_history":[[0]],"response_history":["3"],"rt":24236,"trial_type":"polygon-arrow-question","trial_index":0,"trial_index_global":80,"time_elapsed":1025618,"internal_chunk_id":"0-0.12-0"},{"nsides":9,"question":"Is 2 a generator under <img src=./images/nonagon_symbol.png style=width:14px;height:14px>? Please explain in words how you got your answer.","response_type":"multi","response_choices":["Yes","No"],"correct_response":"Yes","response":"No","explain":true,"explanation":"because the other numbers will not go into 2","explanation_history":["because the other numbers will not go into 2"],"orientation_history":[[0]],"response_history":["No"],"rt":29311,"trial_type":"polygon-arrow-question","trial_index":0,"trial_index_global":81,"time_elapsed":1054943,"internal_chunk_id":"0-0.12-0"},{"nsides":9,"question":"Is 3 a generator under <img src=./images/nonagon_symbol.png style=width:14px;height:14px>? Please explain in words how you got your answer.","response_type":"multi","response_choices":["Yes","No"],"correct_response":"No","response":"No","explain":true,"explanation":"no because only 1 and 3 go into 3 ","explanation_history":["no becuase only 1 and 3 go into 3 ","no because only 1 and 3 go into 3 "],"orientation_history":[[0]],"response_history":["No"],"rt":21600,"trial_type":"polygon-arrow-question","trial_index":0,"trial_index_global":82,"time_elapsed":1076557,"internal_chunk_id":"0-0.12-0"},{"nsides":9,"question":"Is 5 a generator under <img src=./images/nonagon_symbol.png style=width:14px;height:14px>? Please explain in words how you got your answer.","response_type":"multi","response_choices":["Yes","No"],"correct_response":"Yes","response":"No","explain":true,"explanation":"because only 1 and 5 go into 5","explanation_history":["because only 1 and 5 go into 5"],"orientation_history":[[0]],"response_history":["No"],"rt":13783,"trial_type":"polygon-arrow-question","trial_index":0,"trial_index_global":83,"time_elapsed":1090353,"internal_chunk_id":"0-0.12-0"},{"nsides":9,"question":"Is 6 a generator under <img src=./images/nonagon_symbol.png style=width:14px;height:14px>? Please explain in words how you got your answer.","response_type":"multi","response_choices":["Yes","No"],"correct_response":"No","response":"No","explain":true,"explanation":"no because only 1,2 and 6 go into 6","explanation_history":["no because  only 1, 2 and 6 go into 6"],"orientation_history":[[0]],"response_history":["No"],"rt":24752,"trial_type":"polygon-arrow-question","trial_index":0,"trial_index_global":84,"time_elapsed":1115109,"internal_chunk_id":"0-0.12-0"},{"nsides":"n","instructions":"Now we'd like to ask you some questions about <img src=./images/ngon_symbol.png style=width:14px;height:14px>, where n could be any positive counting number. For example, n could be 3, and the polygon a triangle, or n could be any other counting number you can think of. If you need to write the operation, you can use (n), and your answers can include n to stand in for the arbitrary value if necessary. (You can use the polygon at the right to think, but it doesn't necessarily correspond to the real polygon, which is why we've left most of it dashed.)","orientation_history":[0],"rt":21562,"trial_type":"polygon-arrow-instructions","trial_index":0,"trial_index_global":85,"time_elapsed":1136686,"internal_chunk_id":"0-0"},{"nsides":" n","question":"What is the formula for the inverse of 1 under <img src=./images/ngon_symbol.png style=width:14px;height:14px>?","response_type":"free","response_choices":[],"correct_response":"n-1","response":"n = 2","explain":false,"explanation":"","explanation_history":[],"orientation_history":[[0]],"response_history":["n = 2"],"rt":13398,"trial_type":"polygon-arrow-question","trial_index":0,"trial_index_global":86,"time_elapsed":1150099,"internal_chunk_id":"0-0.14-0"},{"nsides":"n","question":"What is the formula for the inverse of an element x under <img src=./images/ngon_symbol.png style=width:14px;height:14px>? Please explain in words why your answer is correct.","response_type":"free","response_choices":[],"correct_response":"n-x","response":"no answer","explain":true,"explanation":"because we do not know what n or x is ","explanation_history":["because we do not know what n or x is "],"orientation_history":[[0]],"response_history":["no answer"],"rt":23929,"trial_type":"polygon-arrow-question","trial_index":0,"trial_index_global":87,"time_elapsed":1174034,"internal_chunk_id":"0-0.14-0"},{"nsides":"n","question":"Is there a pattern to which elements are generators? How can you know if an element x is a generator under <img src=./images/ngon_symbol.png style=width:14px;height:14px> without seeing whether it can make all the elements?.","response_type":"free","response_choices":[],"correct_response":"","response":"no clue","explain":false,"explanation":"","explanation_history":[],"orientation_history":[[0]],"response_history":["no clue"],"rt":31294,"trial_type":"polygon-arrow-question","trial_index":0,"trial_index_global":88,"time_elapsed":1205341,"internal_chunk_id":"0-0.14-0"},{"nsides":"n","question":"True or false: If x is an odd number, it must be a generator under <img src=./images/ngon_symbol.png style=width:14px;height:14px>.","response_type":"multi","response_choices":["True","False"],"correct_response":"Fal se","response":"False","explain":false,"explanation":"","explanation_history":[],"orientation_history":[[0]],"response_history":["False"],"rt":5987,"trial_type":"polygon-arrow-question","trial_index":0,"trial_index_global":89,"time_elapsed":1211343,"internal_chunk_id":"0-0.14-0"},{"nsides":"n","question":"True or false: If x is an even number, it must not be a generator under <img src=./images/ngon_symbol.png style=width:14px;height:14px>.","response_type":"multi","response_choices":["True","False"],"correct_response":"False","response":"False","explain":false,"explanation":"","explanation_history":[],"orientation_history":[[0]],"response_history":["False"],"rt":3191,"trial_type":"polygon-arrow-question","trial_index":0,"trial_index_global":90,"time_elapsed":1214537,"internal_chunk_id":"0-0.14-0"},{"nsides":"n","question":"True or false: If x is not a generator under <img src=./images/ngon_symbol.png style=width:14px;height:14px>, x must be a divisor of n, that is, x  must di vide n evenly, with no remainder.","response_type":"multi","response_choices":["True","False"],"correct_response":"False","response":"True","explain":false,"explanation":"","explanation_history":[],"orientation_history":[[0]],"response_history":["True"],"rt":2945,"trial_type":"polygon-arrow-question","trial_index":0,"trial_index_global":91,"time_elapsed":1217486,"internal_chunk_id":"0-0.14-0"},{"nsides":"n","question":"True or false: If x is not a generator under <img src=./images/ngon_symbol.png style=width:14px;height:14px>, x must be a multiple of a divisor of n. Please explain in words how you got your answer.","response_type":"multi","response_choices":["True","False"],"correct_response":"True","response":"True","explain":true,"explanation":"I can not remember this is the mist confusing match I have ever seen,but at random yes. You need to explain this better","explanation_history":["I can not remember this is the mist confusing match I have ever seen,but at ran dom yes.  You need to explain this better"],"orientation_history":[[0]],"response_history":["True"],"rt":34017,"trial_type":"polygon-arrow-question","trial_index":0,"trial_index_global":92,"time_elapsed":1251505,"internal_chunk_id":"0-0.14-0"},{"nsides":"n","question":"If an element x is a generator under <img src=./images/ngon_symbol.png style=width:14px;height:14px>, is its inverse a generator under <img src=./images/ngon_symbol.png style=width:14px;height:14px> always, sometimes, or never?","response_type":"multi","response_choices":["Always","Sometimes","Never"],"correct_response":"Always","response":"Sometimes","explain":false,"explanation":"","explanation_history":[],"orientation_history":[[0]],"response_history":["Sometimes"],"rt":2943,"trial_type":"polygon-arrow-question","trial_index":0,"trial_index_global":93,"time_elapsed":1254462,"internal_chunk_id":"0-0.14-0"},{"nsides":"n","question":"If an element x is a generator under <img src=./images/ngon_symbol.p ng sty le=width:14px;height:14px>, is x <img src=./images/ngon_symbol.png style=width:14px;height:14px> x a generator under <img src=./images/ngon_symbol.png style=width:14px;height:14px> always, sometimes, or never? Please explain in words how you got your answer.","response_type":"multi","response_choices":["Always","Sometimes","Never"],"correct_response":"Sometimes","response":"Sometimes","explain":true,"explanation":"I can not remember this is the mist confusing match I have ever seen,but at random sometimes. You need to explain this better","explanation_history":["I can not remember this is the mist confusing match I have ever seen,but at random s. You need to explain this better","I can not remember this is the mist confusing match I have ever seen,but at random so. You need to explain this better","I can not remember this is the mist confusing match I have ever seen,but at random some. You need to explain this better","I can not remember this is the mist  confusin g match I have ever seen,but at random somet. You need to explain this better","I can not remember this is the mist confusing match I have ever seen,but at random someti. You need to explain this better","I can not remember this is the mist confusing match I have ever seen,but at random sometim. You need to explain this better","I can not remember this is the mist confusing match I have ever seen,but at random sometime. You need to explain this better","I can not remember this is the mist confusing match I have ever seen,but at random sometimes. You need to explain this better"],"orientation_history":[[0]],"response_history":["Sometimes"],"rt":11739,"trial_type":"polygon-arrow-question","trial_index":0,"trial_index_global":94,"time_elapsed":1266203,"internal_chunk_id":"0-0.14-0"},{"nsides":"n","question":"If an element x is not a generator under <img src=./images/ngon_symbol.png style=width:14px;height:14px>, is x <img src=./images/ngon_symbol.png style=width:1 4px;heig ht:14px> x a generator under <img src=./images/ngon_symbol.png style=width:14px;height:14px> always, sometimes, or never?","response_type":"multi","response_choices":["Always","Sometimes","Never"],"correct_response":"Never","response":"Sometimes","explain":false,"explanation":"","explanation_history":[],"orientation_history":[[0]],"response_history":["Sometimes"],"rt":3690,"trial_type":"polygon-arrow-question","trial_index":0,"trial_index_global":95,"time_elapsed":1269896,"internal_chunk_id":"0-0.14-0"},{"instructions":"We would like to ask you some questions about your background. Please press Continue to continue.","rt":2624,"trial_type":"instructions","trial_index":0,"trial_index_global":96,"time_elapsed":1272524,"internal_chunk_id":"0-0.15-0"},{"question":"What is your age?","response_type":"free","response_choices":[],"correct_response":"","response":"31","explain":false,"explanation":"","explanation_history":[],"response_history":["31"],"rt":3852,"trial_type":"qu estion","trial_index":0,"trial_index_global":97,"time_elapsed":1276381,"internal_chunk_id":"0-0.15-0"},{"question":"What is your level of education?","response_type":"multi","response_choices":["Did not graduate high school","High school diploma","Some college, no degree","Associates Degree","Bachelors Degree","Some graduate school, no degree","Masters Degree","Doctorate, M.D., etc."],"correct_response":"","response":"Masters Degree","explain":false,"explanation":"","explanation_history":[],"response_history":["Masters Degree"],"rt":2711,"trial_type":"question","trial_index":0,"trial_index_global":98,"time_elapsed":1279096,"internal_chunk_id":"0-0.15-0"},{"question":"What is the most advanced math class you've completed? If you have multiple classes and you're not sure which one is most advanced, please list them.","response_type":"free","response_choices":[],"correct_response":"","response":"calculus","explain":false,"explanation":"","explanation_history":[],"response_history":["ca lculus"],"rt":89517,"trial_type":"question","trial_index":0,"trial_index_global":99,"time_elapsed":1368618,"internal_chunk_id":"0-0.15-0"},{"question":"How familiar are you with the concept of modular arithmetic?","response_type":"multi","response_choices":["1 - never heard of it","2 - heard of it but didn't know what it was","3 - seen it used or explained","4 - used it but not often or recently","5 - used it, remember and understand it"],"correct_response":"1","response":"1 - never heard of it","explain":false,"explanation":"","explanation_history":[],"response_history":["1 - never heard of it"],"rt":4664,"trial_type":"question","trial_index":0,"trial_index_global":100,"time_elapsed":1373295,"internal_chunk_id":"0-0.15-0"},{"question":"How familiar are you with the concept of a mathematical group?","response_type":"multi","response_choices":["1 - never heard of it","2 - heard of it but didn't know what it was","3 - seen it used or explained","4 - used it but not often or re cently","5 - used it, remember and understand it"],"correct_response":"1","response":"1 - never heard of it","explain":false,"explanation":"","explanation_history":[],"response_history":["1 - never heard of it"],"rt":3102,"trial_type":"question","trial_index":0,"trial_index_global":101,"time_elapsed":1376400,"internal_chunk_id":"0-0.15-0"},{"question":"Do you feel you learned something from this HIT?","response_type":"multi","response_choices":["1 - not at all","2 - somewhat","3 - definitely"],"correct_response":"1","response":"1 - not at all","explain":false,"explanation":"","explanation_history":[],"response_history":["1 - not at all"],"rt":3558,"trial_type":"question","trial_index":0,"trial_index_global":102,"time_elapsed":1379962,"internal_chunk_id":"0-0.15-0"},{"question":"Do you feel you understood the concepts in this HIT?","response_type":"multi","response_choices":["1 - not at all","2 - somewhat","3 - definitely"],"correct_response":"1","response":"1 - not at all","explain":false,"explanation":"","explanation_history":[],"response_history":["1 - not at all"],"rt":2832,"trial_type":"question","trial_index":0,"trial_index_global":103,"time_elapsed":1382795,"internal_chunk_id":"0-0.15-0"},{"question":"Did you enjoy this HIT?","response_type":"multi","response_choices":["1 - not at all","2 - somewhat","3 - definitely"],"correct_response":"1","response":"2 - somewhat","explain":false,"explanation":"","explanation_history":[],"response_history":["1 - not at all","2 - somewhat"],"rt":3630,"trial_type":"question","trial_index":0,"trial_index_global":104,"time_elapsed":1386427,"internal_chunk_id":"0-0.15-0"},{"question":"What is your gender?","response_type":"multi","response_choices":["Female","Male","Other"],"correct_response":"","response":"Male","explain":false,"explanation":"","explanation_history":[],"response_history":["Male"],"rt":2795,"trial_type":"question","trial_index":0,"trial_index_global":105,"time_elapsed":1389223,"internal_chunk_id":"0-0.15-0"},{"question":"What is/are your native language(s)? (The languages spoken in your household when you were a child.)","response_type":"free","response_choices":[],"correct_response":"","response":"english","explain":false,"explanation":"","explanation_history":[],"response_history":["english"],"rt":7968,"trial_type":"question","trial_index":0,"trial_index_global":106,"time_elapsed":1397193,"internal_chunk_id":"0-0.15-0"},{"question":"Did you use pen and paper at any point on this HIT?","response_type":"free","response_choices":[],"correct_response":"","response":"no","explain":false,"explanation":"","explanation_history":[],"response_history":["no"],"rt":4291,"trial_type":"question","trial_index":0,"trial_index_global":107,"time_elapsed":1401487,"internal_chunk_id":"0-0.15-0"},{"question":"Do you have any comments on this HIT?","response_type":"free","response_choices":[],"correct_response":"","response":"You need more clear directions ","explain":false,"explanation":"","explanation_history":[],"response_history":["You need more clear directions "],"rt":12045,"trial_type":"question","trial_index":0,"trial_index_global":108,"time_elapsed":1413534,"internal_chunk_id":"0-0.15-0"}]