[{"nsides":6,"instructions":"Let's define a new operation <img src=./images/hexagon_symbol.png style=width:14px;height:14px>. This operation will give us a way of combining two of the numbers 0, 1, 2, 3, 4, 5 to get another one of them back. To perform <img src=./images/hexagon_symbol.png style=width:14px;height:14px>, you can either use a method based on the hexagon at right, or a method based on arithmetic.<br /><b>Hexagon method:</b> you can use the interactive diagram on the right, or perform the operation in your mind. Point the arrow at the first number on the hexagon by clicking, then click (or click and drag) to move the arrow the second number of points clockwise around the hexagon. The number the arrow arrives at is your result. (The operation is called <img src=./images/hexagon_symbol.png style=width:14px;height:14px> because it uses the hexagon, which has 6 sides.) <br ><b>Arithmetic method:</b> you start with the first number, and then add  the sec ond one to it. If the sum is smaller than 6, that's your result. If the sum is 6 or bigger, you subtract 6 to get your result. <br /><br />For example, 3 <img src=./images/hexagon_symbol.png style=width:14px;height:14px> 5 = 2, because 5 steps clockwise from 3 on the hexagon brings us to 2. Equivalently, 3 + 5 = 8, and 8 is bigger than 6, so we subtract 6, and 8 - 6 = 2. So 3 <img src=./images/hexagon_symbol.png style=width:14px;height:14px> 5 = 2.<br /><br />Similarly, 1 <img src=./images/hexagon_symbol.png style=width:14px;height:14px> 4 = 5, because 1 + 4 = 5, and 5 is less than 6 so we leave it alone. Equivalently, 4 steps clockwise from 1 on the hexagon brings us to 5. <br /><br />Click Continue when you're ready to move on.","orientation_history":[0],"rt":141394,"trial_type":"polygon-arrow-instructions","trial_index":0,"trial_index_global":1,"time_elapsed":287877,"internal_chunk_id":"0-0"},{"nsides":6,"instructions":"Do you see how the diffe rent way s of performing <img src=./images/hexagon_symbol.png style=width:14px;height:14px> give the same result? By labeling the points of the hexagon with the numbers from 0 to 5, we ensure that when we combine two numbers using the hexagon, we only produce numbers between 0 and 5. When we use the arithmetic strategy, adding the second number to the first mimics counting around the hexagon, and subtracting 6 each time we get above 5 makes sure the results correspond to the numbers on the points of the hexagon. <br /><br />Click Continue when you're ready to move on.","orientation_history":[0],"rt":14182,"trial_type":"polygon-arrow-instructions","trial_index":0,"trial_index_global":2,"time_elapsed":302068,"internal_chunk_id":"0-0"},{"nsides":6,"question":"Now try one on your own! What is 4 <img src=./images/hexagon_symbol.png style=width:14px;height:14px> 5? <br /><br /> (Remember, to perform <img src=./images/hexagon_symbol.png style=width:14px;height:14px >, you  can either use a method based on the hexagon at right, or a method based on arithmetic.<br /><br /><b>Hexagon method:</b> you can use the interactive diagram on the right, or perform the operation in your mind. Point the arrow at the first number, then move the arrow the second number of points clockwise around the hexagon. The number the arrow arrives at is your result. <br /><br /><b>Arithmetic method:</b> you start with the first number, and then add the second one to it. If the sum is smaller than 6, that's your result. If the sum is 6 or bigger, you subtract 6 to get your result.)","response_type":"free","response_choices":[],"correct_response":"3","response":"3","explain":false,"explanation":"","explanation_history":[],"orientation_history":[[0],[4.194607121772004,4.194607121772004,4.194607121772004,4.194607121772004,4.194607121772004,4.194607121772004,4.194607121772004,4.194607121772004,4.1887902047863905],[5.2272737567889145,5.2272737567889145,5.2272737567889145,5.2272737567889145,5.2272737567889145,5.2272737567889145,5.2272737567889145,5.2272737567889145,5.235987755982988],[0,0,0,0,0,0,0,0,0],[1.0358412530088001,1.0358412530088001,1.0358412530088001,1.0358412530088001,1.0358412530088001,1.0358412530088001,1.0358412530088001,1.0358412530088001,1.0471975511965976],[2.0899424410414196,2.0899424410414196,2.0899424410414196,2.0899424410414196,2.0899424410414196,2.0899424410414196,2.0899424410414196,2.0943951023931953],[3.1089955084718404,3.1089955084718404,3.1089955084718404,3.1089955084718404,3.1089955084718404,3.1089955084718404,3.141592653589793]],"response_history":["3"],"rt":29401,"trial_type":"polygon-arrow-question","trial_index":0,"trial_index_global":3,"time_elapsed":331487,"internal_chunk_id":"0-0.3-0"},{"nsides":6,"feedback":"Correct! 4 <img src=./images/hexagon_symbol.png style=width:14px;height:14px> 5 = 3 because 5 steps clockwise on the hexagon from 4 brings us to 3. Equivalently, 4 + 5 = 9 and 9 - 6 = 3.","orientation_history":[0],"rt":3488,"trial_type":"polygon-arrow-feedback","trial_index":0,"trial_index_global":4,"time_elapsed":334987,"internal_chunk_id":"0-0.3-0"},{"nsides":6,"question":"What is 3 <img src=./images/hexagon_symbol.png style=width:14px;height:14px> 2? Try to solve this problem using the hexagon. <br /><br /> (Remember, to perform <img src=./images/hexagon_symbol.png style=width:14px;height:14px> on the hexagon, you can use the interactive diagram on the right, or perform the operation in your mind. Point the arrow at the first number on the hexagon, and then move the arrow the second number of points clockwise around the hexagon.)","response_type":"free","response_choices":[],"correct_response":"5","response":"5","explain":false,"explanation":"","explanation_history":[],"orientation_history":[[0],[3.18701593301137,3.18701593301137,3.18701593301137,3.18701593301137,3.18701593301137,3.18701593301137,3.141592653589793],[4.187593208734583,4.187593208734583,4.187593208734583,4.187593208734583,4.187593208734583,4.187593208734583,4.187593208734583,4.1887902047863905],[5.244711491617536,5.235987755982988]],"response_history":["5"],"rt":11743,"trial_type":"polygon-arrow-question","trial_index":0,"trial_index_global":5,"time_elapsed":346742,"internal_chunk_id":"0-0.3-0"},{"nsides":6,"feedback":"Correct! 3 <img src=./images/hexagon_symbol.png style=width:14px;height:14px> 2 = 5 because 2 steps clockwise on the hexagon from 3 brings us to 5. Equivalently, 3 + 2 = 5 and 5 is less than 6.","orientation_history":[0],"rt":2260,"trial_type":"polygon-arrow-feedback","trial_index":0,"trial_index_global":6,"time_elapsed":349007,"internal_chunk_id":"0-0.3-0"},{"nsides":6,"question":"What is 1 <img src=./images/hexagon_symbol.png style=width:14px;height:14px> 5? Try to solve this probem using the arithmetic technique. <br /><br /> (Remember, to perform <img src=./images/hexagon_symbol.png style=width:14px;height:14px> by arithmetic, you start  with th e first number, and then add the second one to it. If the sum is smaller than 6, that's your result. If the sum is 6 or bigger, you subtract 6 to get your result.)","response_type":"free","response_choices":[],"correct_response":"0","response":"0","explain":false,"explanation":"","explanation_history":[],"orientation_history":[[0]],"response_history":["6","0"],"rt":13507,"trial_type":"polygon-arrow-question","trial_index":0,"trial_index_global":7,"time_elapsed":362520,"internal_chunk_id":"0-0.3-0"},{"nsides":6,"feedback":"Correct! 1 <img src=./images/hexagon_symbol.png style=width:14px;height:14px> 5 = 0 because 1 + 5 = 6 and 6 - 6 = 0.  Equivalently, 5 steps clockwise on the hexagon from 1 brings us to 0.","orientation_history":[0],"rt":2083,"trial_type":"polygon-arrow-feedback","trial_index":0,"trial_index_global":8,"time_elapsed":364611,"internal_chunk_id":"0-0.3-0"},{"nsides":6,"question":"What is 1 <img src=./images/hexagon_symbol.png style=width:14px;heig ht:14px> 1? Try to solve this problem using the hexagon. <br /><br /> (Remember, to perform <img src=./images/hexagon_symbol.png style=width:14px;height:14px> on the hexagon, you can use the interactive diagram on the right, or perform the operation in your mind. Point the arrow at the first number on the hexagon, and then move the arrow the second number of points clockwise around the hexagon.)","response_type":"free","response_choices":[],"correct_response":"2","response":"2","explain":false,"explanation":"","explanation_history":[],"orientation_history":[[0],[1.0475180046629209,1.0475180046629209,1.0471975511965976],[2.091254776246046,2.091254776246046,2.091254776246046,2.091254776246046,2.091254776246046,2.091254776246046,2.091254776246046,2.091254776246046,2.0943951023931953]],"response_history":["2"],"rt":8623,"trial_type":"polygon-arrow-question","trial_index":0,"trial_index_global":9,"time_elapsed":373238,"internal_chunk_id":"0-0.3-0"},{"nsides":6,"feedback":"Corre ct! 1 <i mg src=./images/hexagon_symbol.png style=width:14px;height:14px> 1 = 2 because 1 step clockwise on the hexagon from 1 brings us to 2. Equivalently, 1 + 1 = 2 and 2 is less than 6.","orientation_history":[0],"rt":1679,"trial_type":"polygon-arrow-feedback","trial_index":0,"trial_index_global":10,"time_elapsed":374927,"internal_chunk_id":"0-0.3-0"},{"nsides":6,"question":"What is 3 <img src=./images/hexagon_symbol.png style=width:14px;height:14px> 0? Try to solve this problem using the arithmetic technique. <br /><br /> (Remember, to perform <img src=./images/hexagon_symbol.png style=width:14px;height:14px> using arithmetic, you start with the first number, and then add the second one to it. If the sum is smaller than 6, that's your result. If the sum is 6 or bigger, you subtract 6 to get your result.)","response_type":"free","response_choices":[],"correct_response":"3","response":"3","explain":false,"explanation":"","explanation_history":[],"orientation_history":[[0]],"response_history":["3"],"rt":5005,"trial_type":"polygon-arrow-question","trial_index":0,"trial_index_global":11,"time_elapsed":379937,"internal_chunk_id":"0-0.3-0"},{"nsides":6,"feedback":"Correct! 3 <img src=./images/hexagon_symbol.png style=width:14px;height:14px> 0 = 3 because 3 + 0 = 3 and 3 - 6 = 3.  Equivalently, 0 steps clockwise on the hexagon from 3 brings us to 3.","orientation_history":[0],"rt":1198,"trial_type":"polygon-arrow-feedback","trial_index":0,"trial_index_global":12,"time_elapsed":381144,"internal_chunk_id":"0-0.3-0"},{"nsides":6,"question":"What is 4 <img src=./images/hexagon_symbol.png style=width:14px;height:14px> 4? Try to solve this problem using the hexagon. <br /><br /> (Remember, to perform <img src=./images/hexagon_symbol.png style=width:14px;height:14px> on the hexagon, you can use the interactive diagram on the right, or perform the operation in your mind. Point the arrow at the first number on the hexagon, and  then mo ve the arrow the second number of points clockwise around the hexagon.)","response_type":"free","response_choices":[],"correct_response":"2","response":"2","explain":false,"explanation":"","explanation_history":[],"orientation_history":[[0],[4.19180814689303,4.19180814689303,4.19180814689303,4.19180814689303,4.19180814689303,4.19180814689303,4.19180814689303,4.1887902047863905],[5.3265484076767,5.3265484076767,5.3265484076767,5.3265484076767,5.3265484076767,5.3265484076767,5.3265484076767,5.3265484076767,5.3265484076767,5.3265484076767,5.3265484076767,5.3265484076767,5.3265484076767,5.3265484076767,5.235987755982988],[5.309214884370391,5.309214884370391,5.309214884370391,5.309214884370391,5.309214884370391,5.309214884370391,5.309214884370391,5.309214884370391,5.235987755982988],[0,0,0,0,0,0,0,0,0],[1.0216434241158858,1.0216434241158858,1.0216434241158858,1.0216434241158858,1.0216434241158858,1.0216434241158858,1.0216434241158858,1.0471975511965976],[2.0899424410414196,2.0899424410414196,2.0899424410414196,2.0899424410414196,2.0899424410414196,2.0899424410414196,2.0899424410414196,2.0899424410414196,2.0943951023931953]],"response_history":["2"],"rt":12769,"trial_type":"polygon-arrow-question","trial_index":0,"trial_index_global":13,"time_elapsed":393922,"internal_chunk_id":"0-0.3-0"},{"nsides":6,"feedback":"Correct! 4 <img src=./images/hexagon_symbol.png style=width:14px;height:14px> 4 = 2 because 4 steps clockwise on the hexagon from 4 brings us to 2. Equivalently, 4 + 4 = 8 and 8 - 6 = 2.","orientation_history":[0],"rt":1956,"trial_type":"polygon-arrow-feedback","trial_index":0,"trial_index_global":14,"time_elapsed":395887,"internal_chunk_id":"0-0.3-0"},{"nsides":6,"question":"What is 1 <img src=./images/hexagon_symbol.png style=width:14px;height:14px> 3? Try to solve this problem using the arithmetic technique. <br /><br /> (Remember, to perform <img src=./images/hexagon_symbol.png style=width:14px;height:14px> by arithmetic,  you star t with the first number, and then add the second one to it. If the sum is smaller than 6, that's your result. If the sum is 6 or bigger, you subtract 6 to get your result.)","response_type":"free","response_choices":[],"correct_response":"4","response":"4","explain":false,"explanation":"","explanation_history":[],"orientation_history":[[0],[1.0768549578753153,1.0768549578753153,1.0471975511965976],[2.1948193797716535,2.1948193797716535,2.1948193797716535,2.1948193797716535,2.1948193797716535,2.1948193797716535,2.1948193797716535,2.1948193797716535,2.0943951023931953],[3.172510633152836,3.172510633152836,3.172510633152836,3.172510633152836,3.172510633152836,3.172510633152836,3.172510633152836,3.141592653589793],[4.170199570457811,4.170199570457811,4.170199570457811,4.170199570457811,4.170199570457811,4.170199570457811,4.170199570457811,4.1887902047863905]],"response_history":["4"],"rt":10266,"trial_type":"polygon-arrow-question","trial_index":0,"trial_index_global":15,"time_elapsed":406167,"internal_chunk_id":"0-0.3-0"},{"nsides":6,"feedback":"Correct! 1 <img src=./images/hexagon_symbol.png style=width:14px;height:14px> 3 = 4 because 1 + 3 = 4 and 4 - 6 = 4.  Equivalently, 3 steps clockwise on the hexagon from 1 brings us to 4.","orientation_history":[0],"rt":1945,"trial_type":"polygon-arrow-feedback","trial_index":0,"trial_index_global":16,"time_elapsed":408120,"internal_chunk_id":"0-0.3-0"},{"nsides":6,"question":"What is 4 <img src=./images/hexagon_symbol.png style=width:14px;height:14px> 3? <br /><br /> (Remember, to perform <img src=./images/hexagon_symbol.png style=width:14px;height:14px>, you can either use a method based on the hexagon at right, or a method based on arithmetic.<br /><br /><b>Hexagon method:</b> you can use the interactive diagram on the right, or perform the operation in your mind. Point the arrow at the first number, then move the arrow the second number of points clockwise around the hexagon. The number  the arr ow arrives at is your result. <br /><br /><b>Arithmetic method:</b> you start with the first number, and then add the second one to it. If the sum is smaller than 6, that's your result. If the sum is 6 or bigger, you subtract 6 to get your result.)","response_type":"free","response_choices":[],"correct_response":"1","response":"1","explain":false,"explanation":"","explanation_history":[],"orientation_history":[[0],[3.141592653589793,3.141592653589793,3.141592653589793,3.141592653589793,3.141592653589793,3.141592653589793,3.141592653589793,3.141592653589793,3.141592653589793],[4.114419929430915,4.114419929430915,4.114419929430915,4.114419929430915,4.114419929430915,4.114419929430915,4.114419929430915,4.114419929430915,4.1887902047863905],[5.246983303825685,5.246983303825685,5.246983303825685,5.246983303825685,5.246983303825685,5.246983303825685,5.246983303825685,5.246983303825685,5.235987755982988],[0.06965457372856809,0.06965457372856809,0.06965457372856809,0.06965457372856809,0.06965457372856809,0.06965457372856809,0.06965457372856809,0],[1.0109994072334723,1.0109994072334723,1.0109994072334723,1.0109994072334723,1.0471975511965976]],"response_history":["1"],"rt":14546,"trial_type":"polygon-arrow-question","trial_index":0,"trial_index_global":17,"time_elapsed":422673,"internal_chunk_id":"0-0.3-0"},{"nsides":6,"feedback":"Correct! 4 <img src=./images/hexagon_symbol.png style=width:14px;height:14px> 3 = 1 because 3 steps clockwise on the hexagon from 4 brings us to 1. Equivalently, 4 + 3 = 7 and 7 - 6 = 1.","orientation_history":[0],"rt":2017,"trial_type":"polygon-arrow-feedback","trial_index":0,"trial_index_global":18,"time_elapsed":424703,"internal_chunk_id":"0-0.3-0"},{"nsides":6,"question":"What is 0 <img src=./images/hexagon_symbol.png style=width:14px;height:14px> 5? <br /><br /> (Remember, to perform <img src=./images/hexagon_symbol.png style=width:14px;height:14px>, you can either use a method based on the hexagon at righ t, or a  method based on arithmetic.<br /><br /><b>Hexagon method:</b> you can use the interactive diagram on the right, or perform the operation in your mind. Point the arrow at the first number, then move the arrow the second number of points clockwise around the hexagon. The number the arrow arrives at is your result. <br /><br /><b>Arithmetic method:</b> you start with the first number, and then add the second one to it. If the sum is smaller than 6, that's your result. If the sum is 6 or bigger, you subtract 6 to get your result.)","response_type":"free","response_choices":[],"correct_response":"5","response":"5","explain":false,"explanation":"","explanation_history":[],"orientation_history":[[0]],"response_history":["5"],"rt":6296,"trial_type":"polygon-arrow-question","trial_index":0,"trial_index_global":19,"time_elapsed":431008,"internal_chunk_id":"0-0.3-0"},{"nsides":6,"feedback":"Correct! 0 <img src=./images/hexagon_symbol.png style=width:14px;height:14px> 5 = 5 beca use 5 st eps clockwise on the hexagon from 0 brings us to 5. Equivalently, 0 + 5 = 5 and 5 is less than 6.","orientation_history":[0],"rt":1469,"trial_type":"polygon-arrow-feedback","trial_index":0,"trial_index_global":20,"time_elapsed":432481,"internal_chunk_id":"0-0.3-0"},{"nsides":6,"question":"What is 2 <img src=./images/hexagon_symbol.png style=width:14px;height:14px> 5? <br /><br /> (Remember, to perform <img src=./images/hexagon_symbol.png style=width:14px;height:14px>, you can either use a method based on the hexagon at right, or a method based on arithmetic.<br /><br /><b>Hexagon method:</b> you can use the interactive diagram on the right, or perform the operation in your mind. Point the arrow at the first number, then move the arrow the second number of points clockwise around the hexagon. The number the arrow arrives at is your result. <br /><br /><b>Arithmetic method:</b> you start with the first number, and then add the second one to it. If the sum is sm aller th an 6, that's your result. If the sum is 6 or bigger, you subtract 6 to get your result.)","response_type":"free","response_choices":[],"correct_response":"1","response":"1","explain":false,"explanation":"","explanation_history":[],"orientation_history":[[0]],"response_history":["1"],"rt":10685,"trial_type":"polygon-arrow-question","trial_index":0,"trial_index_global":21,"time_elapsed":443168,"internal_chunk_id":"0-0.3-0"},{"nsides":6,"feedback":"Correct! 2 <img src=./images/hexagon_symbol.png style=width:14px;height:14px> 5 = 1 because 5 steps clockwise on the hexagon from 2 brings us to 1. Equivalently, 2 + 5 = 7 and 7 - 6 = 1.","orientation_history":[0],"rt":1756,"trial_type":"polygon-arrow-feedback","trial_index":0,"trial_index_global":22,"time_elapsed":444930,"internal_chunk_id":"0-0.3-0"},{"nsides":6,"instructions":"Now we're going to discuss a couple special properties of this new operation, <img src=./images/hexagon_symbol.png style=width:14px;height:14p x> tha t we've learned. First, notice that the number 0 behaves in a special way under <img src=./images/hexagon_symbol.png style=width:14px;height:14px>. Whenever we combine 0 with anything else, we get that same thing back. We'll say that 0 is the <i>identity</i> under <img src=./images/hexagon_symbol.png style=width:14px;height:14px>, because when you combine it with something it gives you that identical thing back.","orientation_history":[0],"rt":10561,"trial_type":"polygon-arrow-instructions","trial_index":0,"trial_index_global":23,"time_elapsed":455503,"internal_chunk_id":"0-0"},{"nsides":6,"instructions":"Now that we know 0 is the identity under <img src=./images/hexagon_symbol.png style=width:14px;height:14px>, we're going to make a new definition. We'll say that the <i>inverse</i> of a number is the element that you combine with it to produce the identity. For example, 5 <img src=./images/hexagon_symbol.png style=width:14px;height:14px> 1 =  0, so we  say 1 is the inverse of 5 under <img src=./images/hexagon_symbol.png style=width:14px;height:14px>, (remember 0 is the identity under <img src=./images/hexagon_symbol.png style=width:14px;height:14px>). Similarly, 3 is its own inverse under <img src=./images/hexagon_symbol.png style=width:14px;height:14px>, because 3 <img src=./images/hexagon_symbol.png style=width:14px;height:14px> 3 = 0.","orientation_history":[0],"rt":20782,"trial_type":"polygon-arrow-instructions","trial_index":0,"trial_index_global":24,"time_elapsed":476295,"internal_chunk_id":"0-0"},{"nsides":6,"question":"Now you try! What is the inverse of 4 under <img src=./images/hexagon_symbol.png style=width:14px;height:14px>? <br /><br /> (Remember, the inverse of an element is the thing which you combine with it to produce the identity.)","response_type":"free","response_choices":[],"correct_response":"2","response":"2","explain":false,"explanation":"","explanation_history":[],"orientation_history":[[0]],"response_history":["2"],"rt":5116,"trial_type":"polygon-arrow-question","trial_index":0,"trial_index_global":25,"time_elapsed":481422,"internal_chunk_id":"0-0.7-0"},{"nsides":6,"feedback":"Correct! The inverse of 4 under <img src=./images/hexagon_symbol.png style=width:14px;height:14px> is 2 because 4 <img src=./images/hexagon_symbol.png style=width:14px;height:14px> 2 = 0, and 0 is the identity under <img src=./images/hexagon_symbol.png style=width:14px;height:14px>.","orientation_history":[0],"rt":1318,"trial_type":"polygon-arrow-feedback","trial_index":0,"trial_index_global":26,"time_elapsed":482746,"internal_chunk_id":"0-0.7-0"},{"nsides":6,"question":"What is the inverse of 1 under <img src=./images/hexagon_symbol.png style=width:14px;height:14px>? <br /><br /> (Remember, the inverse of an element is the thing which you combine with it to produce the identity.)","response_type":"free","response_choices":[],"correct_response":"5","response":"5","explain":false,"explanation":"","explanation_history":[],"orientation_history":[[0]],"response_history":["5"],"rt":3532,"trial_type":"polygon-arrow-question","trial_index":0,"trial_index_global":27,"time_elapsed":486281,"internal_chunk_id":"0-0.7-0"},{"nsides":6,"feedback":"Correct! The inverse of 1 under <img src=./images/hexagon_symbol.png style=width:14px;height:14px> is 5 because 1 <img src=./images/hexagon_symbol.png style=width:14px;height:14px> 5 = 0, and 0 is the identity under <img src=./images/hexagon_symbol.png style=width:14px;height:14px>.","orientation_history":[0],"rt":1105,"trial_type":"polygon-arrow-feedback","trial_index":0,"trial_index_global":28,"time_elapsed":487394,"internal_chunk_id":"0-0.7-0"},{"nsides":6,"question":"What is the inverse of 3 under <img src=./images/hexagon_symbol.png style=width:14px;height:14px>? <br /><br /> (Remember, the inverse of an element is the thing which you combine  with it  to produce the identity.)","response_type":"free","response_choices":[],"correct_response":"3","response":"3","explain":false,"explanation":"","explanation_history":[],"orientation_history":[[0]],"response_history":["3"],"rt":3158,"trial_type":"polygon-arrow-question","trial_index":0,"trial_index_global":29,"time_elapsed":490559,"internal_chunk_id":"0-0.7-0"},{"nsides":6,"feedback":"Correct! The inverse of 3 under <img src=./images/hexagon_symbol.png style=width:14px;height:14px> is 3 because 3 <img src=./images/hexagon_symbol.png style=width:14px;height:14px> 3 = 0, and 0 is the identity under <img src=./images/hexagon_symbol.png style=width:14px;height:14px>.","orientation_history":[0],"rt":1066,"trial_type":"polygon-arrow-feedback","trial_index":0,"trial_index_global":30,"time_elapsed":491628,"internal_chunk_id":"0-0.7-0"},{"nsides":6,"question":"What is the inverse of 2 under <img src=./images/hexagon_symbol.png style=width:14px;height:14px >? <br  /><br /> (Remember, the inverse of an element is the thing which you combine with it to produce the identity.)","response_type":"free","response_choices":[],"correct_response":"4","response":"4","explain":false,"explanation":"","explanation_history":[],"orientation_history":[[0]],"response_history":["4"],"rt":3759,"trial_type":"polygon-arrow-question","trial_index":0,"trial_index_global":31,"time_elapsed":495391,"internal_chunk_id":"0-0.7-0"},{"nsides":6,"feedback":"Correct! The inverse of 2 under <img src=./images/hexagon_symbol.png style=width:14px;height:14px> is 4 because 2 <img src=./images/hexagon_symbol.png style=width:14px;height:14px> 4 = 0, and 0 is the identity under <img src=./images/hexagon_symbol.png style=width:14px;height:14px>.","orientation_history":[0],"rt":1163,"trial_type":"polygon-arrow-feedback","trial_index":0,"trial_index_global":32,"time_elapsed":496558,"internal_chunk_id":"0-0.7-0"},{"nsides":6,"question":"What is the inver se of 0  under <img src=./images/hexagon_symbol.png style=width:14px;height:14px>? <br /><br /> (Remember, the inverse of an element is the thing which you combine with it to produce the identity.)","response_type":"free","response_choices":[],"correct_response":"0","response":"0","explain":false,"explanation":"","explanation_history":[],"orientation_history":[[0]],"response_history":["0"],"rt":4570,"trial_type":"polygon-arrow-question","trial_index":0,"trial_index_global":33,"time_elapsed":501140,"internal_chunk_id":"0-0.7-0"},{"nsides":6,"feedback":"Correct! The inverse of 0 under <img src=./images/hexagon_symbol.png style=width:14px;height:14px> is 0 because 0 <img src=./images/hexagon_symbol.png style=width:14px;height:14px> 0 = 0, and 0 is the identity under <img src=./images/hexagon_symbol.png style=width:14px;height:14px>.","orientation_history":[0],"rt":1207,"trial_type":"polygon-arrow-feedback","trial_index":0,"trial_index_global":34,"time_elapsed":502350,"internal_chunk_id":"0-0.7-0"},{"nsides":6,"instructions":"It is also possible to successively apply <img src=./images/hexagon_symbol.png style=width:14px;height:14px>, and the operation can simply be performed starting with the left-most pair. For example, 2 <img src=./images/hexagon_symbol.png style=width:14px;height:14px> 3 <img src=./images/hexagon_symbol.png style=width:14px;height:14px> 4 = 5 <img src=./images/hexagon_symbol.png style=width:14px;height:14px> 4 = 3.","orientation_history":[0],"rt":15658,"trial_type":"polygon-arrow-instructions","trial_index":0,"trial_index_global":35,"time_elapsed":518012,"internal_chunk_id":"0-0"},{"nsides":6,"instructions":"We have one last definition to learn today, using the successive operations we just learned. Let's start with an example. Under our operation <img src=./images/hexagon_symbol.png style=width:14px;height:14px> we can make every other number using just 1: 2 = 1 <img src= ./images /hexagon_symbol.png style=width:14px;height:14px> 1, 3 = 1 <img src=./images/hexagon_symbol.png style=width:14px;height:14px> 1 <img src=./images/hexagon_symbol.png style=width:14px;height:14px> 1, 4 = 1 <img src=./images/hexagon_symbol.png style=width:14px;height:14px> 1 <img src=./images/hexagon_symbol.png style=width:14px;height:14px> 1 <img src=./images/hexagon_symbol.png style=width:14px;height:14px> 1, 5 = 1 <img src=./images/hexagon_symbol.png style=width:14px;height:14px> 1 <img src=./images/hexagon_symbol.png style=width:14px;height:14px> 1 <img src=./images/hexagon_symbol.png style=width:14px;height:14px> 1 <img src=./images/hexagon_symbol.png style=width:14px;height:14px> 1, and 0 = 1 <img src=./images/hexagon_symbol.png style=width:14px;height:14px> 1 <img src=./images/hexagon_symbol.png style=width:14px;height:14px> 1 <img src=./images/hexagon_symbol.png style=wid th:14px; height:14px> 1 <img src=./images/hexagon_symbol.png style=width:14px;height:14px> 1 <img src=./images/hexagon_symbol.png style=width:14px;height:14px> 1. Because 1 can make every other element under <img src=./images/hexagon_symbol.png style=width:14px;height:14px>, we say that 1 is a <i>generator</i> under <img src=./images/hexagon_symbol.png style=width:14px;height:14px>. <br /><br /> However, 2 is not a generator under <img src=./images/hexagon_symbol.png style=width:14px;height:14px>, because 4 = 2 <img src=./images/hexagon_symbol.png style=width:14px;height:14px> 2, and 0 = 2 <img src=./images/hexagon_symbol.png style=width:14px;height:14px> 2 <img src=./images/hexagon_symbol.png style=width:14px;height:14px> 2, but there is no way to make 1, 3, or 5 using just 2.","orientation_history":[0],"rt":38315,"trial_type":"polygon-arrow-instructions","trial_index":0,"trial_index_global":36,"time_elapsed":556338,"internal_chunk_id":"0-0"},{"nsides":6,"question":"Now you try! Is 3 a generator under <img src=./images/hexagon_symbol.png style=width:14px;height:14px>? <br /><br /> (Remember, a generator is an element which can make every other element.)","response_type":"multi","response_choices":["Yes","No"],"correct_response":"No","response":"No","explain":false,"explanation":"","explanation_history":[],"orientation_history":[[0]],"response_history":["No"],"rt":7644,"trial_type":"polygon-arrow-question","trial_index":0,"trial_index_global":37,"time_elapsed":564005,"internal_chunk_id":"0-0.10-0"},{"nsides":6,"feedback":"Correct! 3 is not a generator under <img src=./images/hexagon_symbol.png style=width:14px;height:14px>, because 3 = 3, 0 = 3 <img src=./images/hexagon_symbol.png style=width:14px;height:14px> 3, but there is no way to make 1, 2, 4, or 5 using just 3.","orientation_history":[0],"rt":1513,"trial_type":"polygon-arrow-feedback","trial_index":0,"trial_index_global":38,"time_elapsed":565523,"internal_chunk_id":"0-0.10-0"},{"nsides":6,"question":"Is 5 a generator under <img src=./images/hexagon_symbol.png style=width:14px;height:14px>? <br /><br /> (Remember, a generator is an element which can make every other element.)","response_type":"multi","response_choices":["Yes","No"],"correct_response":"Yes","response":"No","explain":false,"explanation":"","explanation_history":[],"orientation_history":[[0]],"response_history":["No"],"rt":2364,"trial_type":"polygon-arrow-question","trial_index":0,"trial_index_global":39,"time_elapsed":567901,"internal_chunk_id":"0-0.10-0"},{"nsides":6,"feedback":"Sorry, that's incorrect. 5 is a generator under <img src=./images/hexagon_symbol.png style=width:14px;height:14px>, because 5 = 5, 4 = 5 <img src=./images/hexagon_symbol.png style=width:14px;height:14px> 5, 3 = 5 <img src=./images/hexagon_symbol.png style=width:14px;height:14px> 5 <img src=./images/hexagon_symbol.png s tyle=w idth:14px;height:14px> 5, 2 = 5 <img src=./images/hexagon_symbol.png style=width:14px;height:14px> 5 <img src=./images/hexagon_symbol.png style=width:14px;height:14px> 5 <img src=./images/hexagon_symbol.png style=width:14px;height:14px> 5, 1 = 5 <img src=./images/hexagon_symbol.png style=width:14px;height:14px> 5 <img src=./images/hexagon_symbol.png style=width:14px;height:14px> 5 <img src=./images/hexagon_symbol.png style=width:14px;height:14px> 5 <img src=./images/hexagon_symbol.png style=width:14px;height:14px> 5, and 0 = 5 <img src=./images/hexagon_symbol.png style=width:14px;height:14px> 5 <img src=./images/hexagon_symbol.png style=width:14px;height:14px> 5 <img src=./images/hexagon_symbol.png style=width:14px;height:14px> 5 <img src=./images/hexagon_symbol.png style=width:14px;height:14px> 5 <img src=./images/hexagon_symbol.png style=width:14px;height:14px> 5, so you can m ake all  of the numbers under <img src=./images/hexagon_symbol.png style=width:14px;height:14px> using 5","orientation_history":[0],"rt":8000,"trial_type":"polygon-arrow-feedback","trial_index":0,"trial_index_global":40,"time_elapsed":575910,"internal_chunk_id":"0-0.10-0"},{"nsides":6,"question":"Is 4 a generator under <img src=./images/hexagon_symbol.png style=width:14px;height:14px>? <br /><br /> (Remember, a generator is an element which can make every other element.)","response_type":"multi","response_choices":["Yes","No"],"correct_response":"No","response":"No","explain":false,"explanation":"","explanation_history":[],"orientation_history":[[0]],"response_history":["No"],"rt":2709,"trial_type":"polygon-arrow-question","trial_index":0,"trial_index_global":41,"time_elapsed":578633,"internal_chunk_id":"0-0.10-0"},{"nsides":6,"feedback":"Correct! 4 is not a generator under <img src=./images/hexagon_symbol.png style=width:14px;height:14px>, because 4 = 4, 2 =  4 <img s rc=./images/hexagon_symbol.png style=width:14px;height:14px> 4, and 0 = 4 <img src=./images/hexagon_symbol.png style=width:14px;height:14px> 4 <img src=./images/hexagon_symbol.png style=width:14px;height:14px> 4, but there is no way to make 1, 3, or 5 using just 4.","orientation_history":[0],"rt":1104,"trial_type":"polygon-arrow-feedback","trial_index":0,"trial_index_global":42,"time_elapsed":579740,"internal_chunk_id":"0-0.10-0"},{"nsides":6,"question":"Is 0 a generator under <img src=./images/hexagon_symbol.png style=width:14px;height:14px>? <br /><br /> (Remember, a generator is an element which can make every other element.)","response_type":"multi","response_choices":["Yes","No"],"correct_response":"No","response":"No","explain":false,"explanation":"","explanation_history":[],"orientation_history":[[0]],"response_history":["No"],"rt":2888,"trial_type":"polygon-arrow-question","trial_index":0,"trial_index_global":43,"time_elapsed":582632,"internal_chunk_id":"0-0.10-0"},{"nsides":6,"feedback":"Correct! 0 is not a generator under <img src=./images/hexagon_symbol.png style=width:14px;height:14px>, because 0 = 0, but there is no way to make 1, 2, 3, 4, or 5 using just 0.","orientation_history":[0],"rt":1039,"trial_type":"polygon-arrow-feedback","trial_index":0,"trial_index_global":44,"time_elapsed":583675,"internal_chunk_id":"0-0.10-0"},{"nsides":9,"instructions":"Now we are going to ask you some questions about a new operation, <img src=./images/nonagon_symbol.png style=width:14px;height:14px>, on the numbers 0, 1, 2, 3, 4, 5, 6, 7, 8. It works exactly like <img src=./images/hexagon_symbol.png style=width:14px;height:14px>, except now you use the nonagon shown at the right. Equivalently, after adding the two numbers you subtract 9 if your result is 9 or greater.<br /><br />Do you see how the different ways of performing <img src=./images/nonagon_symbol.png style=width:14px;height:14px> gi ve the s ame result, just like with <img src=./images/hexagon_symbol.png style=width:14px;height:14px>? By labeling the points of the nonagon with the numbers from 0 to 8, we ensure that when we combine two numbers under <img src=./images/nonagon_symbol.png style=width:14px;height:14px>, we only produce numbers between 0 and 8. When we use the arithmetic strategy, adding the second number to the first mimics counting around the nonagon, and subtracting 9 each time we get above 8 makes sure the results correspond to the numbers on the points of the nonagon.<br /><br />We'll give you one practice question with feedback to make sure you understand the new operation. After that, try to complete the remaining questions as accurately as possible.","orientation_history":[0],"rt":39057,"trial_type":"polygon-arrow-instructions","trial_index":0,"trial_index_global":45,"time_elapsed":622738,"internal_chunk_id":"0-0"},{"nsides":9,"question":"Practice: What is 5 <img src=./image s/nonago n_symbol.png style=width:14px;height:14px> 5?","response_type":"free","response_choices":[],"correct_response":"1","response":"1","explain":false,"explanation":"","explanation_history":[],"orientation_history":[[0],[3.510288556247843,3.510288556247843,3.510288556247843,3.510288556247843,3.510288556247843,3.510288556247843,3.510288556247843,3.490658503988659],[4.203087836382678,4.203087836382678,4.203087836382678,4.203087836382678,4.203087836382678,4.203087836382678,4.203087836382678,4.1887902047863905],[4.814307347865563,4.814307347865563,4.814307347865563,4.814307347865563,4.814307347865563,4.814307347865563,4.886921905584122],[5.497787143782138,5.497787143782138,5.497787143782138,5.497787143782138,5.497787143782138,5.585053606381854],[6.221535136540327,6.221535136540327,6.221535136540327,6.221535136540327,6.221535136540327,6.283185307179586],[0.821745784416469,0.821745784416469,0.821745784416469,0.821745784416469,0.821745784416469,0.821745784416469,0.6981317007977318]],"response_history":["1"],"rt":12818,"trial_type":"polygon-arrow-question","trial_index":0,"trial_index_global":46,"time_elapsed":635573,"internal_chunk_id":"0-0.12-0"},{"nsides":9,"feedback":"Correct! 5 <img src=./images/nonagon_symbol.png style=width:14px;height:14px> 5 = 1 because 5 steps clockwise on the nonagon from 5 brings us to 1. Equivalently, 5 + 5 = 10 and 10 - 9 = 1.","orientation_history":[0],"rt":1605,"trial_type":"polygon-arrow-feedback","trial_index":0,"trial_index_global":47,"time_elapsed":637183,"internal_chunk_id":"0-0.12-0"},{"nsides":9,"question":"What is 3 <img src=./images/nonagon_symbol.png style=width:14px;height:14px> 3?","response_type":"free","response_choices":[],"correct_response":"6","response":"6","explain":false,"explanation":"","explanation_history":[],"orientation_history":[[0],[2.039251591062394,2.039251591062394,2.039251591062394,2.039251591062394,2.039251591062394,2.039251591062394,2.039251591062394,2.0943951023931953],[2.7477240428534317,2.7477240428534317,2.7477240428534317,2.7477240428534317,2.7477240428534317,2.7477240428534317,2.7477240428534317,2.792526803190927]],"response_history":["6"],"rt":7960,"trial_type":"polygon-arrow-question","trial_index":0,"trial_index_global":48,"time_elapsed":645149,"internal_chunk_id":"0-0.12-0"},{"nsides":9,"question":"What is 7 <img src=./images/nonagon_symbol.png style=width:14px;height:14px> 4?","response_type":"free","response_choices":[],"correct_response":"2","response":"2","explain":false,"explanation":"","explanation_history":[],"orientation_history":[[0]],"response_history":["2"],"rt":6764,"trial_type":"polygon-arrow-question","trial_index":0,"trial_index_global":49,"time_elapsed":651925,"internal_chunk_id":"0-0.12-0"},{"nsides":9,"question":"What is 1 <img src=./images/nonagon_symbol.png style=width:14px;height:14px> 8?","response_type":"free","response_choices":[],"correct_response":"0","response":"0","explain":false,"explanation":"","explanation_history":[],"orientation_history":[[0]],"response_history":["0"],"rt":6149,"trial_type":"polygon-arrow-question","trial_index":0,"trial_index_global":50,"time_elapsed":658083,"internal_chunk_id":"0-0.12-0"},{"nsides":9,"question":"What is 5 <img src=./images/nonagon_symbol.png style=width:14px;height:14px> 4?","response_type":"free","response_choices":[],"correct_response":"0","response":"0","explain":false,"explanation":"","explanation_history":[],"orientation_history":[[0]],"response_history":["0"],"rt":5755,"trial_type":"polygon-arrow-question","trial_index":0,"trial_index_global":51,"time_elapsed":663843,"internal_chunk_id":"0-0.12-0"},{"nsides":9,"question":"What is 6 <img src=./images/nonagon_symbol.png style=width:14px;height:14px> 6?","response_type":"free","response_choices":[],"correct_response":"3","response":"3","explain":false,"explanation":"","explanation_history":[],"orientation_history":[[0]],"response_history":["3"],"rt":8909,"trial_type":"pol ygon-arr ow-question","trial_index":0,"trial_index_global":52,"time_elapsed":672760,"internal_chunk_id":"0-0.12-0"},{"nsides":9,"instructions":"On the following question, and several others later in the HIT, we will ask you to explain how you got your answer. On these questions, you will be given one box for your answer to the question, and a second for your explanation. Please explain your thought process in as much detail as possible (at least one sentence, and more if you can).","orientation_history":[0],"rt":9171,"trial_type":"polygon-arrow-instructions","trial_index":0,"trial_index_global":53,"time_elapsed":681934,"internal_chunk_id":"0-0.12-0"},{"nsides":9,"question":"What is 4 <img src=./images/nonagon_symbol.png style=width:14px;height:14px> 1? Please explain in words how you got your answer.","response_type":"free","response_choices":[],"correct_response":"5","response":"5","explain":true,"explanation":"I counted 4 up from 1.","explanation_history":["Counted 4 up fro m 1","ou nted 4 up from 1","Iounted 4 up from 1","I ounted 4 up from 1","I counted 4 up from 1."],"orientation_history":[[0]],"response_history":["5"],"rt":24510,"trial_type":"polygon-arrow-question","trial_index":0,"trial_index_global":54,"time_elapsed":706452,"internal_chunk_id":"0-0.12-0"},{"nsides":9,"question":"What is 8 <img src=./images/nonagon_symbol.png style=width:14px;height:14px> 4? Please explain in words how you got your answer.","response_type":"free","response_choices":[],"correct_response":"3","response":"3","explain":true,"explanation":"I counted 8 up from 4.","explanation_history":["I counted 8 up from 4."],"orientation_history":[[0]],"response_history":["3"],"rt":28458,"trial_type":"polygon-arrow-question","trial_index":0,"trial_index_global":55,"time_elapsed":734919,"internal_chunk_id":"0-0.12-0"},{"nsides":9,"question":"What is the identity under <img src=./images/nonagon_symbol.png style=width:14px;height:14px>? Please explain in words how you g ot your  answer.","response_type":"free","response_choices":[],"correct_response":"0","response":"0","explain":true,"explanation":"0 is always the identity because anything greater than 9 has 9 subtracted from it.","explanation_history":["T","9 ","9","0 IS ALW","0 IS AL","0 IS A","0 IS ","0 IS","0 I","0 is always the identif","0 is always the identity because anything greatr ","0 is always the identity because anything greatr","0 is always the identity because anything greater than 9 is sub","0 is always the identity because anything greater than 9 is su","0 is always the identity because anything greater than 9 is s","0 is always the identity because anything greater than 9 is ","0 is always the identity because anything greater than 9 is","0 is always the identity because anything greater than 9 i","0 is always the identity because anything greater than 9 has 9 subtracted from it."],"orientation_history":[[0]],"response_history":["1","0"],"rt":62216,"trial_type":"polygon-arrow-ques tion","trial_index":0,"trial_index_global":56,"time_elapsed":797145,"internal_chunk_id":"0-0.12-0"},{"nsides":9,"question":"What is the inverse of 5 under <img src=./images/nonagon_symbol.png style=width:14px;height:14px>?","response_type":"free","response_choices":[],"correct_response":"4","response":"4","explain":false,"explanation":"","explanation_history":[],"orientation_history":[[0]],"response_history":["4"],"rt":9856,"trial_type":"polygon-arrow-question","trial_index":0,"trial_index_global":57,"time_elapsed":807008,"internal_chunk_id":"0-0.12-0"},{"nsides":9,"question":"What is the inverse of 2 under <img src=./images/nonagon_symbol.png style=width:14px;height:14px>?","response_type":"free","response_choices":[],"correct_response":"7","response":"7","explain":false,"explanation":"","explanation_history":[],"orientation_history":[[0]],"response_history":["7"],"rt":4254,"trial_type":"polygon-arrow-question","trial_index":0,"trial_index_global":58,"time_elapsed":811268,"internal_chunk_id":"0-0.12-0"},{"nsides":9,"question":"What is the inverse of 0 under <img src=./images/nonagon_symbol.png style=width:14px;height:14px>?","response_type":"free","response_choices":[],"correct_response":"0","response":"0","explain":false,"explanation":"","explanation_history":[],"orientation_history":[[0]],"response_history":["0"],"rt":10302,"trial_type":"polygon-arrow-question","trial_index":0,"trial_index_global":59,"time_elapsed":821573,"internal_chunk_id":"0-0.12-0"},{"nsides":9,"question":"What is the inverse of 3 under <img src=./images/nonagon_symbol.png style=width:14px;height:14px>? Please explain in words how you got your answer.","response_type":"free","response_choices":[],"correct_response":"6","response":"6","explain":true,"explanation":"I need 6 to make 9 with 3.","explanation_history":["I need 6 to make 9 with 3."],"orientation_history":[[0]],"response_history":["6"],"rt":17936,"trial_type":"polygon-arrow-question","trial_index":0,"trial_index_global":60,"time_elapsed":839516,"internal_chunk_id":"0-0.12-0"},{"nsides":9,"question":"Is 2 a generator under <img src=./images/nonagon_symbol.png style=width:14px;height:14px>? Please explain in words how you got your answer.","response_type":"multi","response_choices":["Yes","No"],"correct_response":"Yes","response":"No","explain":true,"explanation":"It cannot make every number on the nonagon.","explanation_history":["It cannot make every number on the timeline.","It cannot make every number on the ti","It cannot make every number on the t","It cannot make every number on the nonagon."],"orientation_history":[[0]],"response_history":["No"],"rt":22496,"trial_type":"polygon-arrow-question","trial_index":0,"trial_index_global":61,"time_elapsed":862018,"internal_chunk_id":"0-0.12-0"},{"nsides":9,"question":"Is 3 a generator under <img src=./images/nonagon_symbol.png style=width:14px;height:14px>? Please explain in words how you got your answer.","response_type":"multi","response_choices":["Yes","No"],"correct_response":"No","response":"No","explain":true,"explanation":"It cannot make every number on the nonagon.","explanation_history":["It cannot make every number on the nonagon."],"orientation_history":[[0]],"response_history":["No"],"rt":20749,"trial_type":"polygon-arrow-question","trial_index":0,"trial_index_global":62,"time_elapsed":882783,"internal_chunk_id":"0-0.12-0"},{"nsides":9,"question":"Is 5 a generator under <img src=./images/nonagon_symbol.png style=width:14px;height:14px>? Please explain in words how you got your answer.","response_type":"multi","response_choices":["Yes","No"],"correct_response":"Yes","response":"No","explain":true,"explanation":"It cannot make every number on the nonagon.","explanation_history":["It cannot make every number on the nonagon."],"orientation_history":[[0]],"response_history":["No"],"rt":13508,"trial_type":"polygon-arrow-question","trial_index":0,"trial_index_global":63,"time_elapsed":896307,"internal_chunk_id":"0-0.12-0"},{"nsides":9,"question":"Is 6 a generator under <img src=./images/nonagon_symbol.png style=width:14px;height:14px>? Please explain in words how you got your answer.","response_type":"multi","response_choices":["Yes","No"],"correct_response":"No","response":"No","explain":true,"explanation":"It cannot make every number on the nonagon.","explanation_history":["It cannot make every number on the nonagon."],"orientation_history":[[0]],"response_history":["No"],"rt":10767,"trial_type":"polygon-arrow-question","trial_index":0,"trial_index_global":64,"time_elapsed":907083,"internal_chunk_id":"0-0.12-0"},{"nsides":"n","instructions":"Now we'd like to ask you some questions about <img src=./images/ngon_symbol.png style=width:14px;height:14px>, where n could be any postive counting number. For example, n could be 3, and the polygon a triangle, or n could be any other counting number you can think of, in which case the correspondi ng polyg on would have n sides. Just as before, you can use either the polygon or arithmetic methods. If you need to write the operation, you can use (n), and your answers can include n to stand in for the arbitrary value if necessary. (You can use the polygon at the right to think, but it doesn't necessarily correspond to the real polygon, which is why we've left most of it dashed.)","orientation_history":[0],"rt":21746,"trial_type":"polygon-arrow-instructions","trial_index":0,"trial_index_global":65,"time_elapsed":928839,"internal_chunk_id":"0-0"},{"nsides":"n","question":"What is the formula for the inverse of 1 under <img src=./images/ngon_symbol.png style=width:14px;height:14px>?","response_type":"free","response_choices":[],"correct_response":"n-1","response":"1 + x = n","explain":false,"explanation":"","explanation_history":[],"orientation_history":[[0]],"response_history":["1 + x = n"],"rt":36483,"trial_type":"polygon-arrow-question","trial_index":0,"trial_index_global":66,"time_elapsed":965334,"internal_chunk_id":"0-0.14-0"},{"nsides":"n","question":"What is the formula for the inverse of an element x under <img src=./images/ngon_symbol.png style=width:14px;height:14px>? Please explain in words how you got your answer.","response_type":"free","response_choices":[],"correct_response":"n-x","response":"n - x = inverse","explain":true,"explanation":"The inverse is the number that x needs to make n.","explanation_history":["The inverse is the number that x needs to make n."],"orientation_history":[[0]],"response_history":["x + ","n - x -","n - x = inverse"],"rt":54174,"trial_type":"polygon-arrow-question","trial_index":0,"trial_index_global":67,"time_elapsed":1019518,"internal_chunk_id":"0-0.14-0"},{"nsides":"n","question":"Is there a pattern to which elements are generators? How can you know if an element x is a generator under <img src=./images/ngon_symbol.png style=width:14px;height:14px> without seeing whether it can make al l the el ements?.","response_type":"free","response_choices":[],"correct_response":"","response":"I am not sure.","explain":false,"explanation":"","explanation_history":[],"orientation_history":[[0]],"response_history":["I am not sure."],"rt":12781,"trial_type":"polygon-arrow-question","trial_index":0,"trial_index_global":68,"time_elapsed":1032315,"internal_chunk_id":"0-0.14-0"},{"nsides":"n","question":"True or false: If x is an odd number, it must be a generator under <img src=./images/ngon_symbol.png style=width:14px;height:14px>.","response_type":"multi","response_choices":["True","False"],"correct_response":"False","response":"True","explain":false,"explanation":"","explanation_history":[],"orientation_history":[[0]],"response_history":["True"],"rt":12761,"trial_type":"polygon-arrow-question","trial_index":0,"trial_index_global":69,"time_elapsed":1045084,"internal_chunk_id":"0-0.14-0"},{"nsides":"n","question":"True or false: If x is an even number, it must not be a gene rator un der <img src=./images/ngon_symbol.png style=width:14px;height:14px>.","response_type":"multi","response_choices":["True","False"],"correct_response":"False","response":"True","explain":false,"explanation":"","explanation_history":[],"orientation_history":[[0]],"response_history":["True"],"rt":4777,"trial_type":"polygon-arrow-question","trial_index":0,"trial_index_global":70,"time_elapsed":1049869,"internal_chunk_id":"0-0.14-0"},{"nsides":"n","question":"True or false: If x is not a generator under <img src=./images/ngon_symbol.png style=width:14px;height:14px>, x must be a divisor of n, that is, x must divide n evenly, with no remainder.","response_type":"multi","response_choices":["True","False"],"correct_response":"False","response":"True","explain":false,"explanation":"","explanation_history":[],"orientation_history":[[0]],"response_history":["True"],"rt":14697,"trial_type":"polygon-arrow-question","trial_index":0,"trial_index_global":71,"time_elapsed":1064570,"internal_chunk_id":"0-0.14-0"},{"nsides":"n","question":"True or false: If x is not a generator under <img src=./images/ngon_symbol.png style=width:14px;height:14px>, x must be a multiple of a divisor of n. Please explain in words how you got your answer.","response_type":"multi","response_choices":["True","False"],"correct_response":"True","response":"False","explain":true,"explanation":"If x is not a generator it cannot be a multiple of a divisor either. ","explanation_history":["If x is not a gent","If x is not a generator it cannot be a multiple of a divisor either. "],"orientation_history":[[0]],"response_history":["False"],"rt":37609,"trial_type":"polygon-arrow-question","trial_index":0,"trial_index_global":72,"time_elapsed":1102183,"internal_chunk_id":"0-0.14-0"},{"nsides":"n","question":"If an element x is a generator under <img src=./images/ngon_symbol.png style=width:14px;height:14px>, is its inverse a generator under <img src=./images/ngon_symbol.p ng sty le=width:14px;height:14px> always, sometimes, or never?","response_type":"multi","response_choices":["Always","Sometimes","Never"],"correct_response":"Always","response":"Sometimes","explain":false,"explanation":"","explanation_history":[],"orientation_history":[[0]],"response_history":["Sometimes"],"rt":12366,"trial_type":"polygon-arrow-question","trial_index":0,"trial_index_global":73,"time_elapsed":1114557,"internal_chunk_id":"0-0.14-0"},{"nsides":"n","question":"if an element x is a generator under <img src=./images/ngon_symbol.png style=width:14px;height:14px>, is x <img src=./images/ngon_symbol.png style=width:14px;height:14px> x a generator under <img src=./images/ngon_symbol.png style=width:14px;height:14px> always, sometimes, or never? Please explain in words how you got your answer.","response_type":"multi","response_choices":["Always","Sometimes","Never"],"correct_response":"Sometimes","response":"Never","explain":true,"explanation":"It  can't b e a generator because it is not the original form.","explanation_history":["It can be a generator ","It can b","It can ","It can't be a generator because it is not the original form."],"orientation_history":[[0]],"response_history":["Sometimes","Never"],"rt":57574,"trial_type":"polygon-arrow-question","trial_index":0,"trial_index_global":74,"time_elapsed":1172140,"internal_chunk_id":"0-0.14-0"},{"nsides":"n","question":"If an element x is not a generator under <img src=./images/ngon_symbol.png style=width:14px;height:14px>, is x <img src=./images/ngon_symbol.png style=width:14px;height:14px> x a generator under <img src=./images/ngon_symbol.png style=width:14px;height:14px> always, sometimes, or never?","response_type":"multi","response_choices":["Always","Sometimes","Never"],"correct_response":"Never","response":"Never","explain":false,"explanation":"","explanation_history":[],"orientation_history":[[0]],"response_history":["Never"],"rt":13504,"trial_type":" polygon-arrow-question","trial_index":0,"trial_index_global":75,"time_elapsed":1185653,"internal_chunk_id":"0-0.14-0"},{"instructions":"Now we'd like you to do a few of the questions and tell us how much you're using the arithmetic and polygon methods to solve them. We'll give you a demonstration of the response screen first.<br /><br />Press continue when you're ready to begin.","rt":9068,"trial_type":"instructions","trial_index":0,"trial_index_global":76,"time_elapsed":1194729,"internal_chunk_id":"0-0.15-0"},{"nsides":9,"added_prompt":"<i>This is a demo response screen. You can respond independently to both questions, so it's okay to say you used both methods.</i><br /><br />","polygon_response":"2","modular_response":"2","rt":15956,"trial_type":"polygon-arrow-which-representation","trial_index":0,"trial_index_global":77,"time_elapsed":1210695,"internal_chunk_id":"0-0.15-0"},{"question":"<i>This is a demo response screen.</i><br /><br />Please describe in as much detail as  possibl e how you used the arithmetic method, polygon method, or both for the problem.","response_type":"free","response_choices":[],"correct_response":"","response":"I sometimes add while I sometimes move the arrow on the polygon.","explain":false,"explanation":"","explanation_history":[],"response_history":["I sometimes add while I sometimes move the arrow on the poy","I sometimes add while I sometimes move the arrow on the polygon."],"rt":20414,"trial_type":"question","trial_index":0,"trial_index_global":78,"time_elapsed":1231119,"internal_chunk_id":"0-0.15-0"},{"instructions":"Great! Now we have a few questions for you to do (some of which you may have seen earlier), and after each question you will tell us how much you used the polygon and arithmetic methods.<br /><br />Press continue when you're ready to begin.","rt":4189,"trial_type":"instructions","trial_index":0,"trial_index_global":79,"time_elapsed":1235316,"internal_chunk_id":"0-0.15-0"},{"nsides":9,"question":"Please ans wer the  following question:<br /><br />What is the inverse of 4 under <img src=./images/nonagon_symbol.png style=width:14px;height:14px>?","response_type":"free","response_choices":[],"correct_response":"5","response":"5","explain":false,"explanation":"","explanation_history":[],"orientation_history":[[0]],"response_history":["5"],"rt":9813,"trial_type":"polygon-arrow-question","trial_index":0,"trial_index_global":80,"time_elapsed":1245135,"internal_chunk_id":"0-0.15-0"},{"nsides":9,"question":"Please answer the following question:<br /><br />What is the inverse of 4 under <img src=./images/nonagon_symbol.png style=width:14px;height:14px>?","added_prompt":"","polygon_response":"1","modular_response":"4","rt":5717,"trial_type":"polygon-arrow-which-representation","trial_index":0,"trial_index_global":81,"time_elapsed":1250857,"internal_chunk_id":"0-0.15-0"},{"question":"Please describe in as much detail as possible how you used the arithmetic method, polygon method, or  both fo r the problem.","response_type":"free","response_choices":[],"correct_response":"","response":"I added the numbers in my head but looked at the polygon as I did it.","explain":false,"explanation":"","explanation_history":[],"response_history":["I added the numbers in my head but looked at the polygon as I did it."],"rt":12694,"trial_type":"question","trial_index":0,"trial_index_global":82,"time_elapsed":1263557,"internal_chunk_id":"0-0.15-0"},{"nsides":9,"question":"Please answer the following question:<br /><br />What is the inverse of 0 under <img src=./images/nonagon_symbol.png style=width:14px;height:14px>?","response_type":"free","response_choices":[],"correct_response":"0","response":"0","explain":false,"explanation":"","explanation_history":[],"orientation_history":[[0]],"response_history":["0"],"rt":6100,"trial_type":"polygon-arrow-question","trial_index":0,"trial_index_global":83,"time_elapsed":1269664,"internal_chunk_id":"0-0.15-0"},{"nsides":9,"question":" Please a nswer the following question:<br /><br />What is the inverse of 0 under <img src=./images/nonagon_symbol.png style=width:14px;height:14px>?","added_prompt":"","polygon_response":"0","modular_response":"4","rt":5952,"trial_type":"polygon-arrow-which-representation","trial_index":0,"trial_index_global":84,"time_elapsed":1275623,"internal_chunk_id":"0-0.15-0"},{"question":"Please describe in as much detail as possible how you used the arithmetic method, polygon method, or both for the problem.","response_type":"free","response_choices":[],"correct_response":"","response":"I remembered the rule that the inverse of 0 is 0.","explain":false,"explanation":"","explanation_history":[],"response_history":["I remembered the rule that the inf","I remembered the rule that the inverse of 0 is 0."],"rt":13944,"trial_type":"question","trial_index":0,"trial_index_global":85,"time_elapsed":1289573,"internal_chunk_id":"0-0.15-0"},{"nsides":9,"question":"Please answer the following ques tion:<br  /><br />Is 4 a generator under <img src=./images/nonagon_symbol.png style=width:14px;height:14px>?","response_type":"Multi","response_choices":["Yes","No"],"correct_response":"Yes","response":"No","explain":false,"explanation":"","explanation_history":[],"orientation_history":[[0]],"response_history":["No"],"rt":5961,"trial_type":"polygon-arrow-question","trial_index":0,"trial_index_global":86,"time_elapsed":1295540,"internal_chunk_id":"0-0.15-0"},{"nsides":9,"question":"Please answer the following question:<br /><br />Is 4 a generator under <img src=./images/nonagon_symbol.png style=width:14px;height:14px>?","added_prompt":"","polygon_response":"4","modular_response":"0","rt":6298,"trial_type":"polygon-arrow-which-representation","trial_index":0,"trial_index_global":87,"time_elapsed":1301843,"internal_chunk_id":"0-0.15-0"},{"question":"Please describe in as much detail as possible how you used the arithmetic method, polygon method, or both for the problem.","response_type":"free","response_choices":[],"correct_response":"","response":"I looked at the polygon to see if 4 was a generator.","explain":false,"explanation":"","explanation_history":[],"response_history":["I looked at the polygon to see if 4 was a generator."],"rt":11999,"trial_type":"question","trial_index":0,"trial_index_global":88,"time_elapsed":1313851,"internal_chunk_id":"0-0.15-0"},{"nsides":"n","question":"Please answer the following question:<br /><br />True or false: If x divides n, it must not be a generator under <img src=./images/ngon_symbol.png style=width:14px;height:14px>.","response_type":"multi","response_choices":["True","False"],"correct_response":"True","response":"False","explain":false,"explanation":"","explanation_history":[],"orientation_history":[[0]],"response_history":["False"],"rt":15976,"trial_type":"polygon-arrow-question","trial_index":0,"trial_index_global":89,"time_elapsed":1329834,"internal_chunk_id":"0-0.15-0"},{"nsides":"n","question":"Plea se answer the following question:<br /><br />True or false: If x divides n, it must not be a generator under <img src=./images/ngon_symbol.png style=width:14px;height:14px>.","added_prompt":"","polygon_response":"0","modular_response":"3","rt":5749,"trial_type":"polygon-arrow-which-representation","trial_index":0,"trial_index_global":90,"time_elapsed":1335590,"internal_chunk_id":"0-0.15-0"},{"question":"Please describe in as much detail as possible how you used the arithmetic method, polygon method, or both for the problem.","response_type":"free","response_choices":[],"correct_response":"","response":"I mostly tried to remember the rule and did not use the polygon to think of the problem.","explain":false,"explanation":"","explanation_history":[],"response_history":["I mostly tried to remember the rule and did not use the polygon to think of the problem."],"rt":14421,"trial_type":"question","trial_index":0,"trial_index_global":91,"time_elapsed":1350017,"internal_chunk_id":" 0-0.15-0"},{"instructions":"We would like to ask you some questions about your background. Please press Continue to continue.","rt":1581,"trial_type":"instructions","trial_index":0,"trial_index_global":92,"time_elapsed":1351604,"internal_chunk_id":"0-0.16-0"},{"question":"What is your age?","response_type":"free","response_choices":[],"correct_response":"","response":"28","explain":false,"explanation":"","explanation_history":[],"response_history":["28"],"rt":3385,"trial_type":"question","trial_index":0,"trial_index_global":93,"time_elapsed":1354993,"internal_chunk_id":"0-0.16-0"},{"question":"What is your level of education?","response_type":"multi","response_choices":["Did not graduate high school","High school diploma","Some college, no degree","Associates Degree","Bachelors Degree","Some graduate school, no degree","Masters Degree","Doctorate, M.D., etc."],"correct_response":"","response":"Associates Degree","explain":false,"explanation":"","explanation_history":[],"response_history":["Associates Degree"],"rt":3154,"trial_type":"question","trial_index":0,"trial_index_global":94,"time_elapsed":1358157,"internal_chunk_id":"0-0.16-0"},{"question":"What is the most advanced math class you've completed? If you have multiple classes and you're not sure which one is most advanced, please list them.","response_type":"free","response_choices":[],"correct_response":"","response":"College Statistics, college astronomy with physics","explain":false,"explanation":"","explanation_history":[],"response_history":["S","College Statistics, college astroon","College Statistics, college astroo","College Statistics, college astro","College Statistics, college astr","College Statistics, college ast","College Statistics, college as","College Statistics, college astronomy with physics"],"rt":28489,"trial_type":"question","trial_index":0,"trial_index_global":95,"time_elapsed":1386651,"internal_chunk_id":"0-0.16-0"},{"question":"How familiar are you with the concept of  modular  arithmetic?","response_type":"multi","response_choices":["1 - never heard of it","2 - heard of it but didn't know what it was","3 - seen it used or explained","4 - used it but not often or recently","5 - used it, remember and understand it"],"correct_response":"1","response":"1 - never heard of it","explain":false,"explanation":"","explanation_history":[],"response_history":["1 - never heard of it"],"rt":12355,"trial_type":"question","trial_index":0,"trial_index_global":96,"time_elapsed":1399016,"internal_chunk_id":"0-0.16-0"},{"question":"How familiar are you with the concept of a mathematical group?","response_type":"multi","response_choices":["1 - never heard of it","2 - heard of it but didn't know what it was","3 - seen it used or explained","4 - used it but not often or recently","5 - used it, remember and understand it"],"correct_response":"1","response":"4 - used it but not often or recently","explain":false,"explanation":"","explanation_history":[],"response_history":["3 - s een it used or explained","4 - used it but not often or recently"],"rt":6874,"trial_type":"question","trial_index":0,"trial_index_global":97,"time_elapsed":1405898,"internal_chunk_id":"0-0.16-0"},{"question":"Do you feel you learned something from this HIT?","response_type":"multi","response_choices":["1 - not at all","2 - somewhat","3 - definitely"],"correct_response":"1","response":"2 - somewhat","explain":false,"explanation":"","explanation_history":[],"response_history":["2 - somewhat"],"rt":3835,"trial_type":"question","trial_index":0,"trial_index_global":98,"time_elapsed":1409741,"internal_chunk_id":"0-0.16-0"},{"question":"Do you feel you understood the concepts in this HIT?","response_type":"multi","response_choices":["1 - not at all","2 - somewhat","3 - definitely"],"correct_response":"1","response":"2 - somewhat","explain":false,"explanation":"","explanation_history":[],"response_history":["2 - somewhat"],"rt":4336,"trial_type":"question","trial_index":0,"trial_index_global":99,"time_elapsed":1414080,"internal_chunk_id":"0-0.16-0"},{"question":"Did you enjoy this HIT?","response_type":"multi","response_choices":["1 - not at all","2 - somewhat","3 - definitely"],"correct_response":"1","response":"2 - somewhat","explain":false,"explanation":"","explanation_history":[],"response_history":["2 - somewhat"],"rt":2698,"trial_type":"question","trial_index":0,"trial_index_global":100,"time_elapsed":1416786,"internal_chunk_id":"0-0.16-0"},{"question":"What is your gender?","response_type":"multi","response_choices":["Female","Male","Other"],"correct_response":"","response":"Female","explain":false,"explanation":"","explanation_history":[],"response_history":["Female"],"rt":2604,"trial_type":"question","trial_index":0,"trial_index_global":101,"time_elapsed":1419395,"internal_chunk_id":"0-0.16-0"},{"question":"What is/are your native language(s)? (The languages spoken in your household when you were a child.)","response_type":"free","response_choices":[],"correct_response":"","response":"English","explain":false,"explanation":"","explanation_history":[],"response_history":["English"],"rt":4032,"trial_type":"question","trial_index":0,"trial_index_global":102,"time_elapsed":1423431,"internal_chunk_id":"0-0.16-0"},{"question":"Did you use pen and paper at any point on this HIT?","response_type":"free","response_choices":[],"correct_response":"","response":"no","explain":false,"explanation":"","explanation_history":[],"response_history":["no"],"rt":3356,"trial_type":"question","trial_index":0,"trial_index_global":103,"time_elapsed":1426792,"internal_chunk_id":"0-0.16-0"},{"question":"Do you have any comments on this HIT?","response_type":"free","response_choices":[],"correct_response":"","response":"none","explain":false,"explanation":"","explanation_history":[],"response_history":["none"],"rt":3293,"trial_type":"question","trial_index":0,"trial_index_global":104,"time_elapsed":1430090,"internal_chunk_id":"0-0.16-0"}]