[{"nsides":6,"instructions":"Let's define a new operation <img src=./images/hexagon_symbol.png style=width:14px;height:14px>. This operation will give us a way of combining two of the numbers 0, 1, 2, 3, 4, 5 to get another one of them back. Consider the hexagon at the right, where I've labeled each point with one of the numbers. To perform <img src=./images/hexagon_symbol.png style=width:14px;height:14px>, you can use the interactive diagram on the right, or perform the operation in your mind. Point the arrow at the first number on the hexagon by clicking, then click (or click and drag) to move the arrow the second number of points clockwise around the hexagon. The number the arrow arrives at is your result. (The operation is called <img src=./images/hexagon_symbol.png style=width:14px;height:14px> because it uses the hexagon, which has 6 sides.) <br /><br />For example, 3 <img src=./images/hexagon_symbol.png style=width:14px;height:14px> 5 =  2, becau se 5 steps clockwise from 3 on the hexagon brings us to 2. So 3 <img src=./images/hexagon_symbol.png style=width:14px;height:14px> 5 = 2.<br /><br />Similarly, 1 <img src=./images/hexagon_symbol.png style=width:14px;height:14px> 4 = 5, because 4 steps clockwise from 1 brings us to 5. <br /><br />Click Continue when you're ready to move on.","orientation_history":[0],"rt":4481,"trial_type":"polygon-arrow-instructions","trial_index":0,"trial_index_global":1,"time_elapsed":9899,"internal_chunk_id":"0-0"},{"nsides":6,"instructions":"Do you see how <img src=./images/hexagon_symbol.png style=width:14px;height:14px> works? By labeling the points of the hexagon with the numbers from 0 to 5, we ensure that when we combine two numbers under <img src=./images/hexagon_symbol.png style=width:14px;height:14px>, we only produce numbers between 0 and 5.<br /><br />Click Continue when you are ready to move on.","orientation_history":[0],"rt":7878,"trial_type":"polygon-arrow-instructions","trial_index":0,"trial_index_global":2,"time_elapsed":17778,"internal_chunk_id":"0-0"},{"nsides":6,"question":"Now try one on your own! What is 4 <img src=./images/hexagon_symbol.png style=width:14px;height:14px> 5? <br /><br /> (Remember, to perform <img src=./images/hexagon_symbol.png style=width:14px;height:14px>, you can use the interactive diagram on the right, or perform the operation in your mind. Point the arrow at the first number on the hexagon, then move the arrow the second number of points clockwise around the hexagon. The number the arrow arrives at is your result.)","response_type":"free","response_choices":[],"correct_response":"3","response":"3","explain":false,"explanation":"","explanation_history":[],"orientation_history":[[0],[-6.265005492106608,-6.265005492106608,-6.265005492106608,-6.265005492106608,-6.265005492106608,-6.246489090038599,-6.246489090038599,-6.246139806084938,-6.227287539639744,-6.227287539639744,-6.1896766012782685,-6.18823360083683,-6.18823360083683,-6.169146344996595,-6.150128886689709,-6.150128886689709,-6.131194514632018,-6.131194514632018,-6.1094106641295784,-6.1094106641295784,-6.106350229920207,-6.086912553875411,-6.067609932256728,-6.0441767223772604,-6.024834484246435,-6.000517109557376,-5.962120623731637,-5.936885597091303,-5.917943888567118,-5.8920177703065475,-5.873305552669184,-5.873305552669184,-5.873305552669184,-5.854878151565117,-5.846781162527379,-5.819704448218922,-5.783341814551747,-5.7738418938203475,-5.745859377860086,-5.706406176763046,-5.688630271515425,-5.659460828501638,-5.629978756716294,-5.6002309972892625,-5.570267215909905,-5.524353560163775,-5.47960732870916,-5.449313568790385,-5.434861097254545,-5.4051185384952785,-5.3755073905995605,-5.3589836601290575,-5.329235900702026,-5.316879954068779,-5.270584385902896,-5.270584385902896,-5.252808480655274,-5.252808480655274,-5.252808480655274,-5.252808480655274,-5.252808480655274,-5.252808480655274,-5.252808480655274,-5.252808480655274,-5.252808480655274,-5.252808480655274,-5.252808480655274,-5.252808480655274,-5.252808480655274,-5.252808480655274,-5.252808480655274,-5.252808480655274,-5.252808480655274,-5.252808480655274,-5.252808480655274,-5.252808480655274,-5.252808480655274,-5.252808480655274,-5.252808480655274,-5.252808480655274,-5.252808480655274,-5.252808480655274,-5.252808480655274,-5.252808480655274,1.0471975511965976],[1.0471975511965976,1.0471975511965976,1.0471975511965976,1.0471975511965976,1.0471975511965976,1.0471975511965976,1.065377366269576,1.113311100668235,1.1809647036208177,1.2211921517179465,1.162348530120422,1.1829429404072194,1.2039262190997035,1.1829429404072194,1.2252904894277952,1.2915649674558218,1.3608182034132958,1.3844824241923688,1.4084013066902794,1.456906918930663,1.506128214048998,1.5558384708182174,1.60579686654016,1.6307916601590802,1.7054655190313222,1.7301518610869215,1.8031924263900407,1.874163077446067,1.9200287656244983,1.986303243652525,2.099738235459741,2.1386407541595487,2.1691131280321283,2.236198288013667,2.283916174289206,2.300535142736863,2.300535142736863,2.300535142736863,2.300535142736863,2.300535142736863,2.300535142736863,2.300535142736863,2.300535142736863,2.300535142736863,2.0943951023931953],[2.0943951023931953,2.0943951023931953,2.1087481836670157,2.1087481836670157,2.12358389038599,2.12358389038599,2.139927160232705,2.155295310671183,2.187038676654763,2.2529513742809693,2.368562553512854,2.4610134835745927,2.5337112309274805,2.5760587799480565,2.5760587799480565,2.5760587799480565,2.5760587799480565,2.5760587799480565,2.5760587799480565,2.5844973982023007,2.5844973982023007,2.5844973982023007,2.5844973982023007,2.6003455016642714,2.648512376036645,2.6692837036632873,2.6692837036632873,2.6959627653130807,2.6959627653130807,2.6959627653130807,2.701382766439603,2.721842544575224,2.746925311186209,2.767366134960453,2.7712172070647267,2.7914164796457945,2.7914164796457945,2.7914164796457945,2.7914164796457945,2.8117526588214825,2.8117526588214825,2.8146681024562574,2.8347227200405043,2.8347227200405043,2.8347227200405043,2.876735171348184,2.876735171348184,2.896637001939214,2.9165864699371316,2.936567823087271,2.9565651570604214,2.9565651570604214,2.9761704879176265,2.995760758987476,2.995760758987476,3.015320979776144,3.015320979776144,3.0333370483301993,3.0333370483301993,3.0333370483301993,3.0333370483301993,3.0333370483301993,3.0333370483301993,3.0333370483301993,3.0333370483301993,3.0333370483301993,3.0333370483301993,3.0333370483301993,3.141592653589793],[3.141592653589793,3.1793653765681587,3.2132029498401105,3.2493769888092587,3.2849682679839325,3.2849682679839325,3.319902944730776,3.319902944730776,3.3875528312059844,3.4503849700504094,3.5372043700896696,3.66680420093464,3.8006204648553115,3.8786823753461657,3.908587986752929,3.918098569559942,3.9298467863744353,3.9298467863744353,3.9298467863744353,3.9418167487262536,3.9509992270905556,3.9599635768290975,3.9599635768290975,3.972027334728561,3.992913784874313,3.992913784874313,4.00131323367031,4.0136419793056755,4.026174895134163,4.034196113475822,4.034196113475822,4.046836824055539,4.054561234536197,4.06729660219116,4.09466916403993,4.09466916403993,4.09466916403993,4.107555048714062,4.107555048714062,4.107555048714062,4.114386710150457,4.114386710150457,4.114386710150457,4.114386710150457,4.1887902047863905],[4.1887902047863905,4.1887902047863905,4.1887902047863905,4.1887902047863905,4.1887902047863905,4.195369057239407,4.208655141037555,4.208655141037555,4.235735553047798,4.277597098431599,4.350486651956947,4.471118039385706,4.585869650011373,4.669102937501137,4.768579440667187,4.849833373637077,4.9130402055345375,4.954388975617446,4.983991975663135,5.007668675833878,5.021771471460822,5.016416770296841,5.030204471727018,5.043842941912407,5.043842941912407,5.043842941912407,5.043842941912407,5.043842941912407,5.043842941912407,5.043842941912407,5.043842941912407,5.043842941912407,5.043842941912407,5.043842941912407,5.235987755982988],[5.235987755982988,5.235987755982988,5.235987755982988,5.255546740413324,5.262125592866341,5.282257100996743,5.289329764263554,5.3176240981120575,5.352159306072533,5.4225010368422915,5.49111982707484,5.560071121077913,5.656916712566103,5.7222271174401085,5.795833784505602,5.9368665350898935,5.95283569346884,6.014568658649491,6.081218863609806,6.158180977437684,6.181845198216758,6.220384363050934,6.26960565816927,6.303794285736966,6.320924924008528,6.3534026276686415,0.10171273210132203,0.13292971639681483,0.14850781347680253,0.14850781347680253,0.14850781347680253,0.14850781347680253,0.14850781347680253,0.14850781347680253,0.14850781347680253,0.14850781347680253,0],[0.015547823835585062,0.03253289634679901,0.05000832083423279,0.07013272230071665,0.10272986741866941,0.14159916959659125,0.1618159411131388,0.18255985313090672,0.22067697530353825,0.25933174440068485,0.32139881329261155,0.3774237728197789,0.46565563843040225,0.5056859224784698,0.5453831861180031,0.5703300250062258,0.6233107009103289,0.6346025672566422,0.6979845597825708,0.7479741470204111,0.8091849270772699,0.892080579402868,0.9622109533651515,1.037483657818236,1.0591174041870588,1.1673985633025898,1.1866269624022971,1.20987858521276,1.245918116972663,1.245918116972663,1.245918116972663,1.245918116972663,1.245918116972663,1.245918116972663,1.245918116972663,1.245918116972663,1.0471975511965976],[1.3149877621795247,1.3258176636680323,1.370397772969018,1.4403930189057632,1.5042281630190728,1.5707963267948966,1.6582916675972879,1.7475051828649333,1.8370483759458218,1.8925468811915387,1.9379701606131157,1.9546139500834654,2.0032041023654346,2.0106389096106327,2.0503156187874927,2.0659295902633006,2.0659295902633006,2.0659295902633006,2.0659295902633006,2.0899424410414196,2.0899424410414196,2.0899424410414196,2.0899424410414196,2.0899424410414196,2.1051918035493102,2.129395642138459,2.129395642138459,2.129395642138459,2.129395642138459,2.129395642138459,2.129395642138459,2.129395642138459,2.129395642138459,2.0943951023931953],[2.119534872573222,2.119534872573222,2.133609438981244,2.1586676446436113,2.1702725395186824,2.234386878954408,2.272679839310138,2.363399595995335,2.3889414853926243,2.454540657223663,2.5043681457595492,2.5926000113701724,2.671605811152818,2.754142935180797,2.8317897168660218,2.8672939167712816,2.9020392862967754,2.9374908878431523,2.954475960354366,2.970023784189951,2.970023784189951,2.970023784189951,2.985601881269939,2.985601881269939,2.985601881269939,2.9863214781713974,2.9863214781713974,2.9863214781713974,2.9863214781713974,2.9863214781713974,3.0016830681154394,3.141592653589793],[3.141592653589793]],"response_history":["3"],"rt":30151,"trial_type":"polygon-arrow-question","trial_index":0,"trial_index_global":3,"time_elapsed":47931,"internal_chunk_id":"0-0.3-0"},{"nsides":6,"feedback":"Correct! 4 <img src=./images/hexagon_symbol.png style=width:14px;height:14px> 5 = 3 because 5 steps clockwise on the hexa gon from  4 brings us to 3","orientation_history":[0],"rt":18150,"trial_type":"polygon-arrow-feedback","trial_index":0,"trial_index_global":4,"time_elapsed":66082,"internal_chunk_id":"0-0.3-0"},{"nsides":6,"question":"What is 3 <img src=./images/hexagon_symbol.png style=width:14px;height:14px> 2? <br /><br /> (Remember, to perform <img src=./images/hexagon_symbol.png style=width:14px;height:14px>, you can use the interactive diagram on the right, or perform the operation in your mind. Point the arrow at the first number on the hexagon, then move the arrow the second number of points clockwise around the hexagon. The number the arrow arrives at is your result.)","response_type":"free","response_choices":[],"correct_response":"5","response":"5","explain":false,"explanation":"","explanation_history":[],"orientation_history":[[0],[0.0005534033746070754,0.0005534033746070754,0.0011337863622555844,0.0011337863622555844,0.0017431708084572062,0.029331438800478837,0.059889609077978356,0.059889609077978356,0.09737204576963987,0.17414393703941777,0.25504803619464833,0.3912552517743231,0.5235372180787843,0.6278250986340168,0.6812424414317547,0.6812424414317547,0.7351260913997205,0.8176450458327021,0.9040435951911493,1.0481979823043035,1.212807866667619,1.3823960265698068,1.5475447039844337,1.700194032379699,1.890568644405137,2.1275474781921146,2.259003829723942,2.4121419383513336,2.5076150663901218,2.5846328391400686,2.654693421778524,2.747449741966668,2.8378042390410085,2.89625912887385,2.9329930807836355,2.9786321564901668,2.9958799733619887,3.0438522405654487,3.103636208401479,3.13283276984483,3.1762472360274376,3.175421813185595,3.1896484955646205,3.1896484955646205,3.1896484955646205,3.1896484955646205,3.1896484955646205,3.1896484955646205,3.1896484955646205,3.1896484955646205,3.1896484955646205,3.1896484955646205,3.1896484955646205,3.1896484955646205,3.1896484955646205,3.1896484955646205,3.1896484955646205,3.1896484955646205,3.1896484955646205,3.1896484955646205,3.175421813185595,3.175421813185595,3.175421813185595,3.1611719634480577,3.1611719634480577,3.1611719634480577,3.161791926170861,3.161791926170861,3.161791926170861,3.161791926170861,3.141592653589793],[3.141592653589793,3.141592653589793,3.141592653589793,3.141592653589793,3.156259418907444,3.157134309322891,3.171992386405603,3.186817589184944,3.201603534301321,3.218127264771824,3.233031310177222,3.280063449322628,3.282851546187416,3.3277231834685654,3.357133225599979,3.375803255196833,3.404901069314543,3.4095457177542547,3.4341784155784487,3.5044743815604926,3.5683974551724247,3.662987484346546,3.7671425418683593,3.82549364495237,3.8941372418471327,3.915856857203468,3.9494699233649935,3.9596736508589476,3.9715576414566076,4.003197236517124,4.003197236517124,4.0126042967450815,4.0126042967450815,4.0126042967450815,4.0126042967450815,4.0126042967450815,4.0126042967450815,4.0126042967450815,4.0126042967450815,4.0126042967450815,4.0126042967450815,4.0126042967450815,4.0126042967450815,4.042814882747389,4.042814882747389,4.042814882747389,4.067586139675624,4.088735937693295,4.109700607643056,4.149153808740095,4.162718868112413,4.233629707837373,4.325275982565914,4.460803696551416,4.6157168613756765,4.737156412287662,4.8390351344619,4.92137557515122,4.969220157347043,4.984869176599021,5.000359390529503,5.000359390529503,5.000359390529503,5.000359390529503,5.000359390529503,5.000359390529503,5.000359390529503,5.000359390529503,5.000359390529503,5.015685885904937,5.05182743894361,5.066822368653038,5.066822368653038,5.066822368653038,5.102970138135863,5.1175600355984985,5.146130977978732,5.181552195852879,5.195243150176047,5.2168493254371455,5.23868320463656,5.23868320463656,5.251935742063779,5.235987755982988]],"response_history":["5"],"rt":18535,"trial_type":"polygon-arrow-question","trial_index":0,"trial_index_global":5,"time_elapsed":84618,"internal_chunk_id":"0-0.3-0"},{"nsides":6,"feedback":"Correct! 3 <img src=./images/hexagon_symbol.png style= width: 14px;height:14px> 2 = 5 because 2 steps clockwise on the hexagon from 3 brings us to 5","orientation_history":[0],"rt":3855,"trial_type":"polygon-arrow-feedback","trial_index":0,"trial_index_global":6,"time_elapsed":88475,"internal_chunk_id":"0-0.3-0"},{"nsides":6,"question":"What is 1 <img src=./images/hexagon_symbol.png style=width:14px;height:14px> 5? <br /><br /> (Remember, to perform <img src=./images/hexagon_symbol.png style=width:14px;height:14px>, you can use the interactive diagram on the right, or perform the operation in your mind. Point the arrow at the first number on the hexagon, then move the arrow the second number of points clockwise around the hexagon. The number the arrow arrives at is your result.)","response_type":"free","response_choices":[],"correct_response":"0","response":"0","explain":false,"explanation":"","explanation_history":[],"orientation_history":[[0],[0,0,0,0,0,0,0,0,0.0006724948549095,0.020195815925796667,0.040424270250757344,0.061379286339698025,0.10554943358514324,0.12880105639560613,0.16904776817074674,0.21363100044180183,0.21363100044180183,0.2590932161246995,0.3052678696287865,0.3990056541332818,0.47488309125876893,0.5222516943245419,0.5574020456917506,0.574378343370188,0.6030382846671523,0.663545248700223,0.691969759972163,0.7212799057850067,0.7490505423784277,0.7490505423784277,0.7490505423784277,0.7490505423784277,0.7490505423784277,0.7490505423784277,0.7490505423784277,0.7490505423784277,0.7490505423784277,0.7490505423784277,0.7490505423784277,0.7901233209688817,0.8174368859689312,0.8299546415336583,0.8597077635523234,0.8717191978828844,0.9252852401151035,0.9677194882523696,0.9778493877656533,0.9876598648866286,1.0291585176764815,1.038025952370994,1.0708010967750698,1.0708010967750698,1.0786749497991706,1.0786749497991706,1.0786749497991706,1.0786749497991706,1.0786749497991706,1.0786749497991706,1.0786749497991706,1.0786749497991706,1.0786749497991706,1.0786749497991706,1.0786749497991706,1.0471975511965976],[1.0471975511965976,1.0548263320975133,1.0548263320975133,1.0548263320975133,1.0705635316027653,1.0865326899817112,1.1697270060616305,1.2579926440464388,1.3503219787780378,1.426199415903525,1.502971307173303,1.5797431984430812,1.6556206355685683,1.729770155227189,1.7659660388542227,1.8014702387594823,1.8189415791262835,1.8362156082849757,1.8532855194087052,1.8701451409915222,1.8701451409915222,1.9032119642072771,1.9428138899890393,1.9744312572342102,1.9898705389845721,1.9898705389845721,2.0050615061952977,2.0050615061952977,2.0050615061952977,2.0050615061952977,2.0050615061952977,2.0050615061952977,2.0050615061952977,2.0050615061952977,2.0050615061952977,2.0943951023931953],[2.267817704047496,2.267817704047496,2.356194490192345,2.4178446608316038,2.4558631426835067,2.4879567566702714,2.525295716193722,2.5488952488547305,2.558219646595937,2.58123277668495,2.6328628292742398,2.677945044588987,2.7518840822469275,2.830045826687105,2.915991409753769,2.9865959116658525,3.0343137979413903,3.0819619404586236,3.112189365385788,3.141592653589793,3.141592653589793,3.141592653589793,3.141592653589793,3.141592653589793,3.141592653589793,3.141592653589793,3.141592653589793,3.141592653589793,3.141592653589793,3.141592653589793,3.141592653589793,3.141592653589793],[3.141592653589793,3.141592653589793,3.141592653589793,3.141592653589793,3.1572163822102697,3.2558469815512328,3.345610633182342,3.4525909341953342,3.5598169831690223,3.619945084968451,3.707076541744618,3.734020007021672,3.7471373171947633,3.7692220793912874,3.838334935119804,3.8835399215957107,3.9057174309631804,3.9057174309631804,3.9162385431961404,3.9162385431961404,3.9162385431961404,3.9269908169872414,3.9269908169872414,3.9269908169872414,3.9269908169872414,3.9269908169872414,3.937979385669975,3.937979385669975,3.937979385669975,3.9492093823139607,3.9492093823139607,3.9492093823139607,3.9606859243332577,3.9606859243332577,3.9724140964088184,3.9724140964088184,3.9724140964088184,3.9724140964088184,3.9724140964088184,3.984398931624041,3.984398931624041,3.984398931624041,3.984398931624041,3.984398931624041,3.984398931624041,4.1887902047863905],[4.009158339348941,4.009158339348941,4.021942523329997,4.0350025416872874,4.048342817558005,4.079640145382507,4.139929166566638,4.3022616398431985,4.530740150384678,4.71238898038469,4.849455154694877,4.913041857704576,4.941620913661685,4.9729913721320305,4.9729913721320305,4.9729913721320305,4.9729913721320305,4.988485999780126,5.034139534781332,5.092895357497055,5.149016140198231,5.202346306638418,5.227937987843669,5.252808480655274,5.264973330675403,5.264973330675403,5.264973330675403,5.264973330675403,5.264973330675403,5.264973330675403,5.264973330675403,5.264973330675403,5.264973330675403,5.264973330675403,5.264973330675403,5.264973330675403,5.264973330675403,5.264973330675403,5.264973330675403,5.264973330675403,5.264973330675403,5.264973330675403,5.235987755982988],[5.235987755982988,5.243524789875668,5.243524789875668,5.263406179899956,5.271406009239842,5.2796025469897545,5.339099031933811,5.399146995361155,5.530451739728981,5.666197128939604,5.799098923918976,5.913817793845264,6.023109065291274,6.0828206060976635,6.160138497859185,6.19970827624644,6.217852111468151,-0.028985574692415028,-0.028985574692415028,-0.011130329552862639,0.006087755840810338,0.0235974869185267,0.0235974869185267,0.0235974869185267,0.0235974869185267,0.0235974869185267,0.0235974869185267,0.0235974869185267,0.022692509790014803,0.022692509790014803,0.022692509790014803,0.022692509790014803,0.022692509790014803,0.022692509790014803,0.005483526307092923,0]],"response_history":["0"],"rt":9296,"trial_type":"polygon-arrow-question","trial_index":0,"trial_index_global":7,"time_elapsed":97771,"internal_chunk_id":"0-0.3-0"},{"nsides":6,"feedback":"Correct! 1 <img src=./images/hexagon_symbol.png style=width:14px;height:14px> 5 = 0 because 5 steps clockwise on the hexagon from 1 brings us to 0","orientation_history":[0],"rt":1439,"trial_type":"polygon-arrow-feedback","trial_index":0,"trial_index_global":8,"time_elapsed":99211,"internal_chunk_id":"0-0.3-0"},{"nsides":6,"question":"What is 1 <img src=./images/hexagon_symbol.png style=width:14px;height:14px> 1? <br /><br /> (Remember, to perform <img src=./images/hexagon_symbol.png style=width:14px;height:14px>, you can use the interactive diagram on the right, or perform the operation in your mind. Point the arrow at the first number on the hexagon, then move the arrow the second number of points clockwise around the hexagon. The number the arrow arrives at is your result.)","response_type":"free","response_choices":[],"correct_response":"2","response":"2","explain":false,"explanation":"","explanation_history":[],"orientation_history":[[0]],"response_history":["2"],"rt":3475,"trial_type":"polygon-arrow-question","trial_index":0,"trial_index_global":9,"time_elapsed":102687,"internal_chunk_id":"0-0.3-0"},{"nsides":6,"feedback":"Correct! 1 <img src= ./imag es/hexagon_symbol.png style=width:14px;height:14px> 1 = 2 because 1 step clockwise on the hexagon from 1 brings us to 2","orientation_history":[0],"rt":1383,"trial_type":"polygon-arrow-feedback","trial_index":0,"trial_index_global":10,"time_elapsed":104075,"internal_chunk_id":"0-0.3-0"},{"nsides":6,"question":"What is 3 <img src=./images/hexagon_symbol.png style=width:14px;height:14px> 0? <br /><br /> (Remember, to perform <img src=./images/hexagon_symbol.png style=width:14px;height:14px>, you can use the interactive diagram on the right, or perform the operation in your mind. Point the arrow at the first number on the hexagon, then move the arrow the second number of points clockwise around the hexagon. The number the arrow arrives at is your result.)","response_type":"free","response_choices":[],"correct_response":"3","response":"3","explain":false,"explanation":"","explanation_history":[],"orientation_history":[[0]],"response_history":["3"],"rt":3103,"trial_type":"polygon-arrow-question","trial_index":0,"trial_index_global":11,"time_elapsed":107178,"internal_chunk_id":"0-0.3-0"},{"nsides":6,"feedback":"Correct! 3 <img src=./images/hexagon_symbol.png style=width:14px;height:14px> 0 = 3 because 0 steps clockwise on the hexagon from 3 brings us to 3","orientation_history":[0],"rt":1015,"trial_type":"polygon-arrow-feedback","trial_index":0,"trial_index_global":12,"time_elapsed":108193,"internal_chunk_id":"0-0.3-0"},{"nsides":6,"question":"What is 4 <img src=./images/hexagon_symbol.png style=width:14px;height:14px> 4? <br /><br /> (Remember, to perform <img src=./images/hexagon_symbol.png style=width:14px;height:14px>, you can use the interactive diagram on the right, or perform the operation in your mind. Point the arrow at the first number on the hexagon, then move the arrow the second number of points clockwise around the hexagon. The number the arrow arrives at is your result.)","response_type":"free","response_choices":[],"correct_response":"2","response":"2","explain":false,"explanation":"","explanation_history":[],"orientation_history":[[0]],"response_history":["2"],"rt":4968,"trial_type":"polygon-arrow-question","trial_index":0,"trial_index_global":13,"time_elapsed":113161,"internal_chunk_id":"0-0.3-0"},{"nsides":6,"feedback":"Correct! 4 <img src=./images/hexagon_symbol.png style=width:14px;height:14px> 4 = 2 because 4 steps clockwise on the hexagon from 4 brings us to 2","orientation_history":[0],"rt":1194,"trial_type":"polygon-arrow-feedback","trial_index":0,"trial_index_global":14,"time_elapsed":114355,"internal_chunk_id":"0-0.3-0"},{"nsides":6,"question":"What is 1 <img src=./images/hexagon_symbol.png style=width:14px;height:14px> 3? <br /><br /> (Remember, to perform <img src=./images/hexagon_symbol.png style=width:14px;height:14px>, you can use the interactive diagram on the right, or perform the operation in your mind. Point the arrow at the first  number o n the hexagon, then move the arrow the second number of points clockwise around the hexagon. The number the arrow arrives at is your result.)","response_type":"free","response_choices":[],"correct_response":"4","response":"4","explain":false,"explanation":"","explanation_history":[],"orientation_history":[[0]],"response_history":["4"],"rt":4504,"trial_type":"polygon-arrow-question","trial_index":0,"trial_index_global":15,"time_elapsed":118859,"internal_chunk_id":"0-0.3-0"},{"nsides":6,"feedback":"Correct! 1 <img src=./images/hexagon_symbol.png style=width:14px;height:14px> 3 = 4 because 3 steps clockwise on the hexagon from 1 brings us to 4","orientation_history":[0],"rt":920,"trial_type":"polygon-arrow-feedback","trial_index":0,"trial_index_global":16,"time_elapsed":119779,"internal_chunk_id":"0-0.3-0"},{"nsides":6,"question":"What is 4 <img src=./images/hexagon_symbol.png style=width:14px;height:14px> 3? <br /><br /> (Remember, to perform <img src=./image s/hexago n_symbol.png style=width:14px;height:14px>, you can use the interactive diagram on the right, or perform the operation in your mind. Point the arrow at the first number on the hexagon, then move the arrow the second number of points clockwise around the hexagon. The number the arrow arrives at is your result.)","response_type":"free","response_choices":[],"correct_response":"1","response":"1","explain":false,"explanation":"","explanation_history":[],"orientation_history":[[0]],"response_history":["1"],"rt":4280,"trial_type":"polygon-arrow-question","trial_index":0,"trial_index_global":17,"time_elapsed":124059,"internal_chunk_id":"0-0.3-0"},{"nsides":6,"feedback":"Correct! 4 <img src=./images/hexagon_symbol.png style=width:14px;height:14px> 3 = 1 because 3 steps clockwise on the hexagon from 4 brings us to 1","orientation_history":[0],"rt":1520,"trial_type":"polygon-arrow-feedback","trial_index":0,"trial_index_global":18,"time_elapsed":125579,"internal_chunk_id":"0-0.3- 0"},{"nsides":6,"question":"What is 0 <img src=./images/hexagon_symbol.png style=width:14px;height:14px> 5? <br /><br /> (Remember, to perform <img src=./images/hexagon_symbol.png style=width:14px;height:14px>, you can use the interactive diagram on the right, or perform the operation in your mind. Point the arrow at the first number on the hexagon, then move the arrow the second number of points clockwise around the hexagon. The number the arrow arrives at is your result.)","response_type":"free","response_choices":[],"correct_response":"5","response":"5","explain":false,"explanation":"","explanation_history":[],"orientation_history":[[0]],"response_history":["5"],"rt":4414,"trial_type":"polygon-arrow-question","trial_index":0,"trial_index_global":19,"time_elapsed":129994,"internal_chunk_id":"0-0.3-0"},{"nsides":6,"feedback":"Correct! 0 <img src=./images/hexagon_symbol.png style=width:14px;height:14px> 5 = 5 because 5 steps clockwise on the hexagon f rom 0 br ings us to 5","orientation_history":[0],"rt":832,"trial_type":"polygon-arrow-feedback","trial_index":0,"trial_index_global":20,"time_elapsed":130826,"internal_chunk_id":"0-0.3-0"},{"nsides":6,"question":"What is 2 <img src=./images/hexagon_symbol.png style=width:14px;height:14px> 5? <br /><br /> (Remember, to perform <img src=./images/hexagon_symbol.png style=width:14px;height:14px>, you can use the interactive diagram on the right, or perform the operation in your mind. Point the arrow at the first number on the hexagon, then move the arrow the second number of points clockwise around the hexagon. The number the arrow arrives at is your result.)","response_type":"free","response_choices":[],"correct_response":"1","response":"1","explain":false,"explanation":"","explanation_history":[],"orientation_history":[[0]],"response_history":["1"],"rt":7967,"trial_type":"polygon-arrow-question","trial_index":0,"trial_index_global":21,"time_elapsed":138795,"internal_chunk_id":" 0-0.3-0"},{"nsides":6,"feedback":"Correct! 2 <img src=./images/hexagon_symbol.png style=width:14px;height:14px> 5 = 1 because 5 steps clockwise on the hexagon from 2 brings us to 1","orientation_history":[0],"rt":1276,"trial_type":"polygon-arrow-feedback","trial_index":0,"trial_index_global":22,"time_elapsed":140071,"internal_chunk_id":"0-0.3-0"},{"nsides":6,"instructions":"Now we're going to discuss a couple special properties of this new operation, <img src=./images/hexagon_symbol.png style=width:14px;height:14px> that we've learned. First, notice that the number 0 behaves in a special way under <img src=./images/hexagon_symbol.png style=width:14px;height:14px>. Whenever we combine 0 with anything else, we get that same thing back. We'll say that 0 is the <i>identity</i> under <img src=./images/hexagon_symbol.png style=width:14px;height:14px>, because when you combine it with something it gives you that identical thing back.","orientation_history":[0],"rt":11269,"trial_type":"polygon-arrow-instructions","trial_index":0,"trial_index_global":23,"time_elapsed":151347,"internal_chunk_id":"0-0"},{"nsides":6,"instructions":"Now that we know 0 is the identity under <img src=./images/hexagon_symbol.png style=width:14px;height:14px>, we're going to make a new definition. We'll say that the <i>inverse</i> of a number is the element that you combine with it to produce the identity under our operation. For example, 5 <img src=./images/hexagon_symbol.png style=width:14px;height:14px> 1 = 0, so we say 1 is the inverse of 5 under <img src=./images/hexagon_symbol.png style=width:14px;height:14px>, (remember 0 is the identity under <img src=./images/hexagon_symbol.png style=width:14px;height:14px>). Similarly, 3 is its own inverse under <img src=./images/hexagon_symbol.png style=width:14px;height:14px>, because 3 <img src=./images/hexagon_symbol.png style=width:14px;height:14px> 3 = 0.","orientation_history":[0],"rt":9528,"trial_type":"polygon-arrow-instructions","trial_index":0,"trial_index_global":24,"time_elapsed":160875,"internal_chunk_id":"0-0"},{"nsides":6,"question":"Now you try! What is the inverse of 4 under <img src=./images/hexagon_symbol.png style=width:14px;height:14px>? <br /><br /> (Remember, the inverse of an element is the thing which you combine with it to produce the identity.)","response_type":"free","response_choices":[],"correct_response":"2","response":"2","explain":false,"explanation":"","explanation_history":[],"orientation_history":[[0]],"response_history":["2"],"rt":14736,"trial_type":"polygon-arrow-question","trial_index":0,"trial_index_global":25,"time_elapsed":175611,"internal_chunk_id":"0-0.7-0"},{"nsides":6,"feedback":"Correct! The inverse of 4 under <img src=./images/hexagon_symbol.png style=width:14px;height:14px> is 2 because 4 <img src=./images/hexagon_symbol.png style=width:14px;height:14px> 2 = 0, and 0 i s the id entity under <img src=./images/hexagon_symbol.png style=width:14px;height:14px>.","orientation_history":[0],"rt":4253,"trial_type":"polygon-arrow-feedback","trial_index":0,"trial_index_global":26,"time_elapsed":179864,"internal_chunk_id":"0-0.7-0"},{"nsides":6,"question":"What is the inverse of 1 under <img src=./images/hexagon_symbol.png style=width:14px;height:14px>? <br /><br /> (Remember, the inverse of an element is the thing which you combine with it to produce the identity.)","response_type":"free","response_choices":[],"correct_response":"5","response":"5","explain":false,"explanation":"","explanation_history":[],"orientation_history":[[0]],"response_history":["5"],"rt":12280,"trial_type":"polygon-arrow-question","trial_index":0,"trial_index_global":27,"time_elapsed":192148,"internal_chunk_id":"0-0.7-0"},{"nsides":6,"feedback":"Correct! The inverse of 1 under <img src=./images/hexagon_symbol.png style=width:14px;height:14px> is 5 because 1 <im g src= ./images/hexagon_symbol.png style=width:14px;height:14px> 5 = 0, and 0 is the identity under <img src=./images/hexagon_symbol.png style=width:14px;height:14px>.","orientation_history":[0],"rt":1318,"trial_type":"polygon-arrow-feedback","trial_index":0,"trial_index_global":28,"time_elapsed":193466,"internal_chunk_id":"0-0.7-0"},{"nsides":6,"question":"What is the inverse of 3 under <img src=./images/hexagon_symbol.png style=width:14px;height:14px>? <br /><br /> (Remember, the inverse of an element is the thing which you combine with it to produce the identity.)","response_type":"free","response_choices":[],"correct_response":"3","response":"3","explain":false,"explanation":"","explanation_history":[],"orientation_history":[[0]],"response_history":["3\n\n\n\n","3"],"rt":14889,"trial_type":"polygon-arrow-question","trial_index":0,"trial_index_global":29,"time_elapsed":208355,"internal_chunk_id":"0-0.7-0"},{"nsides":6,"feedback":"Correct! The inverse of 3 u nder <im g src=./images/hexagon_symbol.png style=width:14px;height:14px> is 3 because 3 <img src=./images/hexagon_symbol.png style=width:14px;height:14px> 3 = 0, and 0 is the identity under <img src=./images/hexagon_symbol.png style=width:14px;height:14px>.","orientation_history":[0],"rt":2823,"trial_type":"polygon-arrow-feedback","trial_index":0,"trial_index_global":30,"time_elapsed":211179,"internal_chunk_id":"0-0.7-0"},{"nsides":6,"question":"What is the inverse of 2 under <img src=./images/hexagon_symbol.png style=width:14px;height:14px>? <br /><br /> (Remember, the inverse of an element is the thing which you combine with it to produce the identity.)","response_type":"free","response_choices":[],"correct_response":"4","response":"4","explain":false,"explanation":"","explanation_history":[],"orientation_history":[[0]],"response_history":["2","4"],"rt":7917,"trial_type":"polygon-arrow-question","trial_index":0,"trial_index_global":31,"time_elapsed":219097,"internal_chunk_id":"0-0.7-0"},{"nsides":6,"feedback":"Correct! The inverse of 2 under <img src=./images/hexagon_symbol.png style=width:14px;height:14px> is 4 because 2 <img src=./images/hexagon_symbol.png style=width:14px;height:14px> 4 = 0, and 0 is the identity under <img src=./images/hexagon_symbol.png style=width:14px;height:14px>.","orientation_history":[0],"rt":1035,"trial_type":"polygon-arrow-feedback","trial_index":0,"trial_index_global":32,"time_elapsed":220132,"internal_chunk_id":"0-0.7-0"},{"nsides":6,"question":"What is the inverse of 0 under <img src=./images/hexagon_symbol.png style=width:14px;height:14px>? <br /><br /> (Remember, the inverse of an element is the thing which you combine with it to produce the identity.)","response_type":"free","response_choices":[],"correct_response":"0","response":"0","explain":false,"explanation":"","explanation_history":[],"orientation_history":[[0]],"response_history":["0"],"rt":4592,"trial_type":"po lygon-arrow-question","trial_index":0,"trial_index_global":33,"time_elapsed":224724,"internal_chunk_id":"0-0.7-0"},{"nsides":6,"feedback":"Correct! The inverse of 0 under <img src=./images/hexagon_symbol.png style=width:14px;height:14px> is 0 because 0 <img src=./images/hexagon_symbol.png style=width:14px;height:14px> 0 = 0, and 0 is the identity under <img src=./images/hexagon_symbol.png style=width:14px;height:14px>.","orientation_history":[0],"rt":2072,"trial_type":"polygon-arrow-feedback","trial_index":0,"trial_index_global":34,"time_elapsed":226796,"internal_chunk_id":"0-0.7-0"},{"instructions":"It is also possible to successively apply <img src=./images/hexagon_symbol.png style=width:14px;height:14px>, and the operation can simply be performed starting with the left-most pair. For example, 2 <img src=./images/hexagon_symbol.png style=width:14px;height:14px> 3 <img src=./images/hexagon_symbol.png style=width:14px;height:14px > 4 =  5 <img src=./images/hexagon_symbol.png style=width:14px;height:14px> 4 = 3.","rt":12048,"trial_type":"instructions","trial_index":0,"trial_index_global":35,"time_elapsed":238844,"internal_chunk_id":"0-0"},{"nsides":6,"instructions":"We have one last definition to learn today, using the successive operations we just learned. Let's start with an example. Under our operation <img src=./images/hexagon_symbol.png style=width:14px;height:14px> we can make every other number using just 1: 2 = 1 <img src=./images/hexagon_symbol.png style=width:14px;height:14px> 1, 3 = 1 <img src=./images/hexagon_symbol.png style=width:14px;height:14px> 1 <img src=./images/hexagon_symbol.png style=width:14px;height:14px> 1, 4 = 1 <img src=./images/hexagon_symbol.png style=width:14px;height:14px> 1 <img src=./images/hexagon_symbol.png style=width:14px;height:14px> 1 <img src=./images/hexagon_symbol.png style=width:14px;height:14px> 1, 5 =  1 <img  src=./images/hexagon_symbol.png style=width:14px;height:14px> 1 <img src=./images/hexagon_symbol.png style=width:14px;height:14px> 1 <img src=./images/hexagon_symbol.png style=width:14px;height:14px> 1 <img src=./images/hexagon_symbol.png style=width:14px;height:14px> 1, and 0 = 1 <img src=./images/hexagon_symbol.png style=width:14px;height:14px> 1 <img src=./images/hexagon_symbol.png style=width:14px;height:14px> 1 <img src=./images/hexagon_symbol.png style=width:14px;height:14px> 1 <img src=./images/hexagon_symbol.png style=width:14px;height:14px> 1 <img src=./images/hexagon_symbol.png style=width:14px;height:14px> 1. Because 1 can make every other element under <img src=./images/hexagon_symbol.png style=width:14px;height:14px>, we say that 1 is a <i>generator</i> under <img src=./images/hexagon_symbol.png style=width:14px;height:14px>. <br /><br /> However, 2 is not a generator under < img src= ./images/hexagon_symbol.png style=width:14px;height:14px>, because 4 = 2 <img src=./images/hexagon_symbol.png style=width:14px;height:14px> 2, and 0 = 2 <img src=./images/hexagon_symbol.png style=width:14px;height:14px> 2 <img src=./images/hexagon_symbol.png style=width:14px;height:14px> 2, but there is no way to make 1, 3, or 5 using just 2.","orientation_history":[0],"rt":28552,"trial_type":"polygon-arrow-instructions","trial_index":0,"trial_index_global":36,"time_elapsed":267396,"internal_chunk_id":"0-0"},{"nsides":6,"question":"Now you try! Is 3 a generator under <img src=./images/hexagon_symbol.png style=width:14px;height:14px>? <br /><br /> (Remember, a generator is an element which can make every other element.)","response_type":"multi","response_choices":["Yes","No"],"correct_response":"No","response":"No","explain":false,"explanation":"","explanation_history":[],"orientation_history":[[0]],"response_history":["No"],"rt":14116,"trial_type":"polygon-arrow-question","trial_index":0,"trial_index_global":37,"time_elapsed":281513,"internal_chunk_id":"0-0.10-0"},{"nsides":6,"feedback":"Correct! 3 is not a generator under <img src=./images/hexagon_symbol.png style=width:14px;height:14px>, because 3 = 3, 0 = 3 <img src=./images/hexagon_symbol.png style=width:14px;height:14px> 3, but there is no way to make 1, 2, 4, or 5 using just 3.","orientation_history":[0],"rt":2023,"trial_type":"polygon-arrow-feedback","trial_index":0,"trial_index_global":38,"time_elapsed":283540,"internal_chunk_id":"0-0.10-0"},{"nsides":6,"question":"Is 5 a generator under <img src=./images/hexagon_symbol.png style=width:14px;height:14px>? <br /><br /> (Remember, a generator is an element which can make every other element.)","response_type":"multi","response_choices":["Yes","No"],"correct_response":"Yes","response":"No","explain":false,"explanation":"","explanation_history":[],"orientation_history":[[0]],"response_history":["No"],"rt":8375,"trial_type":"polygon-arrow-question","trial_index":0,"trial_index_global":39,"time_elapsed":291916,"internal_chunk_id":"0-0.10-0"},{"nsides":6,"feedback":"Sorry, that's incorrect. 5 is a generator under <img src=./images/hexagon_symbol.png style=width:14px;height:14px>, because 5 = 5, 4 = 5 <img src=./images/hexagon_symbol.png style=width:14px;height:14px> 5, 3 = 5 <img src=./images/hexagon_symbol.png style=width:14px;height:14px> 5 <img src=./images/hexagon_symbol.png style=width:14px;height:14px> 5, 2 = 5 <img src=./images/hexagon_symbol.png style=width:14px;height:14px> 5 <img src=./images/hexagon_symbol.png style=width:14px;height:14px> 5 <img src=./images/hexagon_symbol.png style=width:14px;height:14px> 5, 1 = 5 <img src=./images/hexagon_symbol.png style=width:14px;height:14px> 5 <img src=./images/hexagon_symbol.png style=width:14px;height:14px> 5 <img src=./images/hexagon_symbol .png s tyle=width:14px;height:14px> 5 <img src=./images/hexagon_symbol.png style=width:14px;height:14px> 5, and 0 = 5 <img src=./images/hexagon_symbol.png style=width:14px;height:14px> 5 <img src=./images/hexagon_symbol.png style=width:14px;height:14px> 5 <img src=./images/hexagon_symbol.png style=width:14px;height:14px> 5 <img src=./images/hexagon_symbol.png style=width:14px;height:14px> 5 <img src=./images/hexagon_symbol.png style=width:14px;height:14px> 5, so you can make all of the numbers under <img src=./images/hexagon_symbol.png style=width:14px;height:14px> using 5","orientation_history":[0],"rt":2016,"trial_type":"polygon-arrow-feedback","trial_index":0,"trial_index_global":40,"time_elapsed":293932,"internal_chunk_id":"0-0.10-0"},{"nsides":6,"question":"Is 4 a generator under <img src=./images/hexagon_symbol.png style=width:14px;height:14px>? <br /><br /> (Remember, a generator is an element which can make  every o ther element.)","response_type":"multi","response_choices":["Yes","No"],"correct_response":"No","response":"No","explain":false,"explanation":"","explanation_history":[],"orientation_history":[[0]],"response_history":["No"],"rt":6069,"trial_type":"polygon-arrow-question","trial_index":0,"trial_index_global":41,"time_elapsed":300002,"internal_chunk_id":"0-0.10-0"},{"nsides":6,"feedback":"Correct! 4 is not a generator under <img src=./images/hexagon_symbol.png style=width:14px;height:14px>, because 4 = 4, 2 = 4 <img src=./images/hexagon_symbol.png style=width:14px;height:14px> 4, and 0 = 4 <img src=./images/hexagon_symbol.png style=width:14px;height:14px> 4 <img src=./images/hexagon_symbol.png style=width:14px;height:14px> 4, but there is no way to make 1, 3, or 5 using just 4.","orientation_history":[0],"rt":945,"trial_type":"polygon-arrow-feedback","trial_index":0,"trial_index_global":42,"time_elapsed":300947,"internal_chunk_id":"0-0.10-0"},{"nsides":6,"question":"Is 0 a generator under <img src=./images/hexagon_symbol.png style=width:14px;height:14px>? <br /><br /> (Remember, a generator is an element which can make every other element.)","response_type":"multi","response_choices":["Yes","No"],"correct_response":"No","response":"Yes","explain":false,"explanation":"","explanation_history":[],"orientation_history":[[0]],"response_history":["Yes"],"rt":2936,"trial_type":"polygon-arrow-question","trial_index":0,"trial_index_global":43,"time_elapsed":303883,"internal_chunk_id":"0-0.10-0"},{"nsides":6,"feedback":"Sorry, that's incorrect. 0 is not a generator under <img src=./images/hexagon_symbol.png style=width:14px;height:14px>, because 0 = 0, but there is no way to make 1, 2, 3, 4, or 5 using just 0.","orientation_history":[0],"rt":1497,"trial_type":"polygon-arrow-feedback","trial_index":0,"trial_index_global":44,"time_elapsed":305380,"internal_chunk_id":"0-0.10-0"},{"nsides":9,"instructions":"Now we are go ing to a sk you some questions about a new operation, <img src=./images/nonagon_symbol.png style=width:14px;height:14px>, on the numbers 0, 1, 2, 3, 4, 5, 6, 7, 8. It works exactly like <img src=./images/hexagon_symbol.png style=width:14px;height:14px>, except now you use the nonagon shown at the right. <br /><br />Do you see how <img src=./images/nonagon_symbol.png style=width:14px;height:14px> works just like <img src=./images/hexagon_symbol.png style=width:14px;height:14px>? By labeling the points of the nonagon with the numbers from 0 to 8, we ensure that when we combine two numbers under <img src=./images/nonagon_symbol.png style=width:14px;height:14px>, we only produce numbers between 0 and 8. <br /><br />We'll give you one practice question with feedback to make sure you understand the new operation. After that, try to complete the remaining questions as accurately as possible.","orientation_history":[0],"rt":4864,"trial_type":"polygon-a rrow-ins tructions","trial_index":0,"trial_index_global":45,"time_elapsed":310245,"internal_chunk_id":"0-0"},{"nsides":9,"question":"Practice: What is 5 <img src=./images/nonagon_symbol.png style=width:14px;height:14px> 5?","response_type":"free","response_choices":[],"correct_response":"1","response":"1","explain":false,"explanation":"","explanation_history":[],"orientation_history":[[0]],"response_history":["1"],"rt":9071,"trial_type":"polygon-arrow-question","trial_index":0,"trial_index_global":46,"time_elapsed":319317,"internal_chunk_id":"0-0.12-0"},{"nsides":9,"feedback":"Correct! 5 <img src=./images/nonagon_symbol.png style=width:14px;height:14px> 5 = 1 because 5 steps clockwise on the nonagon from 5 brings us to 1","orientation_history":[0],"rt":686,"trial_type":"polygon-arrow-feedback","trial_index":0,"trial_index_global":47,"time_elapsed":320004,"internal_chunk_id":"0-0.12-0"},{"nsides":9,"question":"What is 3 <img src=./images/nonagon_symbol.png style= width:14 px;height:14px> 3?","response_type":"free","response_choices":[],"correct_response":"6","response":"6","explain":false,"explanation":"","explanation_history":[],"orientation_history":[[0]],"response_history":["5","6"],"rt":7975,"trial_type":"polygon-arrow-question","trial_index":0,"trial_index_global":48,"time_elapsed":327980,"internal_chunk_id":"0-0.12-0"},{"nsides":9,"question":"What is 7 <img src=./images/nonagon_symbol.png style=width:14px;height:14px> 4?","response_type":"free","response_choices":[],"correct_response":"2","response":"2","explain":false,"explanation":"","explanation_history":[],"orientation_history":[[0]],"response_history":["2"],"rt":8969,"trial_type":"polygon-arrow-question","trial_index":0,"trial_index_global":49,"time_elapsed":336949,"internal_chunk_id":"0-0.12-0"},{"nsides":9,"question":"What is 1 <img src=./images/nonagon_symbol.png style=width:14px;height:14px> 8?","response_type":"free","response_choices":[],"correct_response":" 0","response":"0","explain":false,"explanation":"","explanation_history":[],"orientation_history":[[0]],"response_history":["0"],"rt":8408,"trial_type":"polygon-arrow-question","trial_index":0,"trial_index_global":50,"time_elapsed":345357,"internal_chunk_id":"0-0.12-0"},{"nsides":9,"question":"What is 5 <img src=./images/nonagon_symbol.png style=width:14px;height:14px> 4?","response_type":"free","response_choices":[],"correct_response":"0","response":"4","explain":false,"explanation":"","explanation_history":[],"orientation_history":[[0]],"response_history":["4"],"rt":6933,"trial_type":"polygon-arrow-question","trial_index":0,"trial_index_global":51,"time_elapsed":352290,"internal_chunk_id":"0-0.12-0"},{"nsides":9,"question":"What is 6 <img src=./images/nonagon_symbol.png style=width:14px;height:14px> 6?","response_type":"free","response_choices":[],"correct_response":"3","response":"3","explain":false,"explanation":"","explanation_history":[],"orientation_history":[[0],[2.0389282106705187,2.0389282106705187,2.0389282106705187,2.0389282106705187,2.0389282106705187,2.0389282106705187,2.0389282106705187,2.0389282106705187,2.0943951023931953]],"response_history":["3"],"rt":8667,"trial_type":"polygon-arrow-question","trial_index":0,"trial_index_global":52,"time_elapsed":360957,"internal_chunk_id":"0-0.12-0"},{"nsides":9,"instructions":"On the following question, and several others later in the HIT, we will ask you to explain how you got your answer. On these questions, you will be given one box for your answer to the question, and a second for your explanation. Please explain your thought process in as much detail as possible (at least one sentence, and more if you can).","orientation_history":[0],"rt":4000,"trial_type":"polygon-arrow-instructions","trial_index":0,"trial_index_global":53,"time_elapsed":364957,"internal_chunk_id":"0-0.12-0"},{"nsides":9,"question":"What is 4 <img src=./images/nonagon_symbol.png style=width:14px;height:14px>  1? Pleas e explain in words how you got your answer.","response_type":"free","response_choices":[],"correct_response":"5","response":"5","explain":true,"explanation":"4+1=5","explanation_history":["4=","4+1=5"],"orientation_history":[[0],[2.8699930618297174,2.8699930618297174,2.8699930618297174,2.8699930618297174,2.8699930618297174,2.8699930618297174,2.8699930618297174,2.8699930618297174,2.8699930618297174,2.8699930618297174,2.8699930618297174,2.8699930618297174,2.8699930618297174,2.8699930618297174,2.8699930618297174,2.8699930618297174,2.8699930618297174,2.8699930618297174,2.8699930618297174,2.8699930618297174,2.8699930618297174,2.8699930618297174,2.8699930618297174,2.8699930618297174,2.8699930618297174,2.8699930618297174,2.8699930618297174,2.8699930618297174,2.8699930618297174,2.8699930618297174,2.8699930618297174,2.8699930618297174,2.8699930618297174,2.8699930618297174,2.8699930618297174,2.8699930618297174,2.8699930618297174,2.8699930618297174,2.8699930618297174,2.8699930618297174,2.8699930618297174,2.8699930618297174,2.8699930618297174,2.8699930618297174,2.8699930618297174,2.8699930618297174,2.8699930618297174,2.8699930618297174,2.8699930618297174,2.8699930618297174,2.8699930618297174,2.8699930618297174,2.8699930618297174,2.8699930618297174,2.8699930618297174,2.8699930618297174,2.8699930618297174,2.8699930618297174,2.8699930618297174,2.8699930618297174,2.8699930618297174,2.8699930618297174,2.881778283743955,2.8936378087741024,2.905568974963896,2.905568974963896,2.9175690065518696,2.941764008516803,2.941764008516803,2.9661984330463707,2.990846272469372,3.004949491098706,3.0295636911638053,3.0419240010986313,3.0667328058790266,3.092250021336823,3.1169063115341937,3.141592653589793,3.1903345048997247,3.23768136910716,3.283489708193957,3.327650830738797,3.3700892928816555,3.3810919194999522,3.4000475897978117,3.4107601463754937,3.4107601463754937,3.4107601463754937,3.4319945961382343,3.442512887950218,3.4392928633010937,3.4392928633010937,3.4496454346135694,3.4496454346135694,3.459930251954897,3.470145824141244,3.470145824141244,3.470145824141244,3.470145824141244,3.470145824141244,3.470145824141244,3.470145824141244,3.470145824141244,3.470145824141244,3.470145824141244,3.470145824141244,3.470145824141244,3.470145824141244,3.470145824141244,3.470145824141244,3.470145824141244,3.470145824141244,3.470145824141244,3.470145824141244,3.470145824141244,3.490658503988659]],"response_history":["5"],"rt":21943,"trial_type":"polygon-arrow-question","trial_index":0,"trial_index_global":54,"time_elapsed":386900,"internal_chunk_id":"0-0.12-0"},{"nsides":9,"question":"What is 8 <img src=./images/nonagon_symbol.png style=width:14px;height:14px> 4? Please explain in words how you got your answer.","response_type":"free","response_choices":[],"correct_response":"3","response":"3","explain":true,"explanation":"3 is 4 numbers away from 8.","explanation_history":["3 is 4 numbers away from 8."],"orientation_history":[[0],[2.1251038229964476,2.1251038229964476,2.1251038229964476,2.1251038229964476,2.1251038229964476,2.1251038229964476,2.1251038229964476,2.1251038229964476,2.1251038229964476,2.1251038229964476,2.0943951023931953]],"response_history":["3"],"rt":31849,"trial_type":"polygon-arrow-question","trial_index":0,"trial_index_global":55,"time_elapsed":418749,"internal_chunk_id":"0-0.12-0"},{"nsides":9,"question":"What is the identity under <img src=./images/nonagon_symbol.png style=width:14px;height:14px>? Please explain in words how you got your answer.","response_type":"free","response_choices":[],"correct_response":"0","response":"0","explain":true,"explanation":"guess","explanation_history":["guess.","guess"],"orientation_history":[[0]],"response_history":["0"],"rt":25840,"trial_type":"polygon-arrow-question","trial_index":0,"trial_index_global":56,"time_elapsed":444590,"internal_chunk_id":"0-0.12-0"},{"nsides":9,"question":"What is the inverse of 5 under <img src=./images/nonagon_symbol.png style=width:14p x;height :14px>?","response_type":"free","response_choices":[],"correct_response":"4","response":"4","explain":false,"explanation":"","explanation_history":[],"orientation_history":[[0],[6.2718221599152955,6.2718221599152955,6.2718221599152955,6.2718221599152955,6.2718221599152955,6.2718221599152955,6.2718221599152955,6.2718221599152955,6.2718221599152955,6.2718221599152955,6.2718221599152955,6.2718221599152955,6.2718221599152955,6.2718221599152955,6.260461946337945,6.249107595592578,6.237762027758009,6.225777192542786,6.214328817878542,6.213530733451018,6.190428986991442,6.18934409455025,6.164695348021448,6.152973864215189,6.141288252575422,6.12964152464003,6.118036629764959,6.092750191766032,6.092750191766032,6.05549598741093,6.029511211040943,6.01481909627368,5.9917285127017195,5.976700742329724,5.93853799156156,5.8958917039735095,5.851612255956081,5.81953769817878,5.781921042308004,5.755110858753227,5.744810793833356,5.744810793833356,5.744810793833356,5.744810793833356,5.734635904729059,5.708296705909493,5.708296705909493,5.691893241812465,5.691893241812465,5.691893241812465,5.691893241812465,5.691893241812465,5.691893241812465,5.691893241812465,5.691893241812465,5.691893241812465,5.691893241812465,5.675383311065626,5.675383311065626,5.668522355257421,5.658774957552945,5.6420765383198805,5.617895879349051,5.5772653883903445,5.5248075929694025,5.470271154496683,5.395343290275013,5.337275218300279,5.285355123273396,5.224778440695427,5.152231563200425,5.080519751709853,4.992496955682743,4.919885206819892,4.863135361505112,4.823046201558585,4.771842639693347,4.747668453978281,4.723882727099721,4.723882727099721,4.723882727099721,4.71238898038469,4.71238898038469,4.71238898038469,4.71238898038469,4.71238898038469,4.71238898038469,4.71238898038469,4.71238898038469,4.71238898038469,4.71238898038469,4.71238898038469,4.71238898038469,4.71238898038469,4.71238898038469,4.71238898038469,4.71238898038469,4.71238898038469,4.723882727099721,4.735373437826142,4.746858081384198,4.758867111735693,4.770463139947644,4.7945565027463894,4.807340686727446,4.8426004233490865,4.854286034988854,4.855972374031158,4.855972374031158,4.855972374031158,4.855972374031158,4.855972374031158,4.855972374031158,4.855972374031158,4.855972374031158,4.855972374031158,4.855972374031158,4.855972374031158,4.855972374031158,4.855972374031158,4.855972374031158,4.808477695902056,4.7605444934446055,4.664805877107707,4.560623825056987,4.483892341092828,4.440243089853503,4.40818048604545,4.3976313189933816,4.3976313189933816,4.3976313189933816,4.3976313189933816,4.3976313189933816,4.3976313189933816,4.3976313189933816,4.376750430057081,4.373096365930645,4.362673690018182,4.352329651033637,4.352329651033637,4.352329651033637,4.352329651033637,4.352329651033637,4.352329651033637,4.342065550681915,4.317597860684929,4.307497194099606,4.307497194099606,4.307497194099606,4.287556817465347,4.2487413713838835,4.209545769456829,4.1795450927653,4.149072718892722,4.1089555029464275,4.071145204100396,3.9903977689540735,3.919116963963141,3.8645720069912843,3.828078022250849,3.8129835245938994,3.8045297595699,3.797941021252985,3.797941021252985,3.797941021252985,3.797941021252985,3.797941021252985,3.797941021252985,3.7894040805168916,3.776619388980107,3.7267050917742206,3.660738767836316,3.5557312040660047,3.5087664874080122,3.4633432079864352,3.4438651521699075,3.4438651521699075,3.4438651521699075,3.4438651521699075,3.4438651521699075,3.4438651521699075,3.4438651521699075,3.4438651521699075,3.4438651521699075,3.4438651521699075,3.4438651521699075,3.4438651521699075,3.4438651521699075,3.4438651521699075,3.4438651521699075,3.4438651521699075,3.4438651521699075,3.4438651521699075,3.4438651521699075,3.4438651521699075,3.4438651521699075,3.4438651521699075,3.4438651521699075,3.4438651521699075,3.394146929367853,3.296589395513734,3.181974729154293,3.0717066519551506,3.01231764954165,2.9634997153585956,2.9441970937399127,2.9441970937399127,2.9441970937399127,2.9441970937399127,2.9441970937399127,2.9441970937399127,2.934600459369972,2.934600459369972,2.9155242655959093,2.9060476728689295,2.9060476728689295,2.896613990462929,2.8872245950365274,2.877880819127527,2.877880819127527,2.865963215207662,2.865963215207662,2.865963215207662,2.865963215207662,2.865963215207662,2.865963215207662,2.865963215207662,2.865963215207662,2.865963215207662,2.792526803190927]],"response_history":["4"],"rt":10696,"trial_type":"polygon-arrow-question","trial_index":0,"trial_index_global":57,"time_elapsed":455286,"internal_chunk_id":"0-0.12-0"},{"nsides":9,"question":"What is the inverse of 2 under <img src=./images/nonagon_symbol.png style=width:14px;height:14px>?","response_type":"free","response_choices":[],"correct_response":"7","response":"7","explain":false,"explanation":"","explanation_history":[],"orientation_history":[[0]],"response_history":["7"],"rt":4344,"trial_type":"polygon-arrow-question","trial_index":0,"trial_index_global":58,"time_elapsed":459630,"internal_chunk_id":"0-0.12-0"},{"nsides":9,"question":"What is the inverse of 0 under <img src=./images/nonagon_symbol.png style=width:14px;height:14px>?","response_type":"free","response_choices":[],"correct_response":"0","response":"0","explain":false,"explanation":"","explanation_history":[],"orientation_history":[[0]],"response_history":["0"],"rt":6399,"trial_type":"polygon-arrow-question","trial_index":0,"trial_index_global":59,"time_elapsed":466030,"internal_chunk_id":"0-0.12-0"},{"nsides":9,"question":"What is the inverse of 3 under <img src=./images/nonagon_symbol.png style=width:14px;height:14px>? Please explain in words how you got your answer.","response_type":"free","response_choices":[],"correct_response":"6","response":"6","explain":true,"explanation":"6 is 3 numbers to the left of 0.","explanation_history":["6 is 3 numbers t the ","6 is 3 numbers t the","6 is 3 numbers t th","6 is 3 numbers t t","6 is 3 numbers t ","6 is 3 numbers t","6 is 3 numbers to the  left of  0."],"orientation_history":[[0],[5.637369387706016,5.637369387706016,5.637369387706016,5.637369387706016,5.628190451671271,5.619139144352902,5.612041471743577,5.603087273346186,5.586980756373871,5.562213983207691,5.538415181463511,5.522172552954856,5.5141791180901425,5.489522869122487,5.464466147903891,5.430094121088169,5.394705535259438,5.34846448308844,5.293471279182016,5.244113047643495,5.221981245193615,5.199288212195959,5.181816871829158,5.14663330118149,5.129287050794583,5.105149646022011,5.088029215857755,5.058927844818632,5.021587892711764,4.96371676454553,4.90978454023457,4.868990857366705,4.814595698491943,4.749871417076351,4.676260129871914,4.588033985837928,4.514993420534809,4.450503715704171,4.411783310342294,4.387671075646972,4.373096365930645,4.373096365930645,4.373096365930645,4.373096365930645,4.373096365930645,4.373096365930645,4.373096365930645,4.361235137784043,4.349241970438514,4.349241970438514,4.340532906536108,4.324865174604411,4.303770503277541,4.295121588312405,4.295121588312405,4.295121588312405,4.291268906003667,4.291268906003667,4.2826267012880015,4.2826267012880015,4.2826267012880015,4.2826267012880015,4.2826267012880015,4.1887902047863905]],"response_history":["6"],"rt":21064,"trial_type":"polygon-arrow-question","trial_index":0,"trial_index_global":60,"time_elapsed":487094,"internal_chunk_id":"0-0.12-0"},{"nsides":9,"question":"Is 2 a generator under <img src=./images/nonagon_symbol.png style=width:14px;height:14px>? Please explain in words how you got your answer.","response_type":"multi","response_choices":["Yes","No"],"correct_response":"Yes","response":"No","explain":true,"explanation":"guess","explanation_history":["guess"],"orientation_history":[[0]],"response_history":["No"],"rt":10852,"trial_type":"polygon-arrow-question","trial_index":0,"trial_index_global":61,"time_elapsed":497947,"internal_chunk_id":"0-0.12-0"},{"nsides":9,"question":"Is 3 a generator under <img src=./images/nonagon_symbol.png sty le=wid th:14px;height:14px>? Please explain in words how you got your answer.","response_type":"multi","response_choices":["Yes","No"],"correct_response":"No","response":"No","explain":true,"explanation":"guess","explanation_history":["guess"],"orientation_history":[[0]],"response_history":["No"],"rt":7787,"trial_type":"polygon-arrow-question","trial_index":0,"trial_index_global":62,"time_elapsed":505734,"internal_chunk_id":"0-0.12-0"},{"nsides":9,"question":"Is 5 a generator under <img src=./images/nonagon_symbol.png style=width:14px;height:14px>? Please explain in words how you got your answer.","response_type":"multi","response_choices":["Yes","No"],"correct_response":"Yes","response":"Yes","explain":true,"explanation":"previous experience.","explanation_history":["previous experience."],"orientation_history":[[0]],"response_history":["Yes"],"rt":13247,"trial_type":"polygon-arrow-question","trial_index":0,"trial_index_global":63,"time_elapsed":518982,"internal_chunk_id":"0-0.1 2-0"},{"nsides":9,"question":"Is 6 a generator under <img src=./images/nonagon_symbol.png style=width:14px;height:14px>? Please explain in words how you got your answer.","response_type":"multi","response_choices":["Yes","No"],"correct_response":"No","response":"Yes","explain":true,"explanation":"previous experience.","explanation_history":["ppre","ppr","pp","previous experience."],"orientation_history":[[0],[6.203806992620013,6.203806992620013,6.203806992620013,6.215108848921586,6.226428149357493,6.237762027758009,6.249107595592578,6.260461946337945,0.01149374671503045,0.04647813135100298,0.10673567264913553,0.1572280509765689,0.1950202674049213,0.23317980064681643,0.244978663126864,0.26836621090590684,0.28330796437545414,0.3064845648498622,0.3372531883216585,0.37596095387130557,0.39852244566642026,0.4527784718235359,0.5070985043923368,0.5383745133462301,0.548549402450528,0.548549402450528,0.548549402450528,0.548549402450528,0.5547922271378956,0.5713374798336267,0.5813801838048996,0.5813801838048996,0.5880026035475675,0.6146629519221655,0.6314534989390983,0.6556956262415361,0.6823165548747481,0.7072964856774628,0.759317122106696,0.8029402234548507,0.8567056281827385,0.937370443825752,0.982793723247329,1.0282170026689061,1.0454294529795805,1.0845536937073916,1.101530799369135,1.1296168463799159,1.1525719972156674,1.2134876437867965,1.2529983209850046,1.3228414819792058,1.3876855095324125,1.4523063676367587,1.4769551141655601,1.5253730473733196,1.548328198209071,1.5707963267948966,1.6142472221864275,1.6352231662204502,1.6662500411276107,1.6964466574047428,1.7067937448322805,1.7376514871946855,1.7580502465283794,1.788350445928905,1.8505004792585276,1.9055331641117113,1.9974238199217726,2.071809713598486,2.158798930342464,2.218387392332878,2.27068919651414,2.32074834993363,2.370278066015205,2.4265009543109692,2.5135045823534043,2.5880591510417337,2.656671658564926,2.728112121443126,2.7991960656589328,2.86075492896859,2.9147938055359073,2.9795640908552268,3.0362152144008507,3.103150063568605,3.151207741889496,3.1800352436109813,3.2198637941110713,3.2610215796081317,3.2904826011992903,3.303430084828216,3.325072610739534,3.326940603585488,3.349088880024996,3.406924739798778,3.4463956781800302,3.5079870643390336,3.580854853417881,3.634788310492493,3.695447046061591,3.7850937623830774,3.8870121298639515,3.9431184508308776,3.991417656412795,4.041245144948681,4.082743797738534,4.124386376837123,4.16995741039474,4.196158309772942,4.206438581113614,4.216837306898862,4.216837306898862,4.216837306898862,4.216837306898862,4.216837306898862,4.216837306898862,4.216837306898862,4.206438581113614,4.212108552159838,4.201900658467914,4.19180814689303,4.19180814689303,4.1818310933552425,4.16222320003151,4.143075789284028,4.133674035471491,4.124386376837123,4.124386376837123,4.124386376837123,4.124386376837123,4.124386376837123,4.124386376837123,4.124386376837123,4.124386376837123,4.1887902047863905]],"response_history":["Yes"],"rt":16912,"trial_type":"polygon-arrow-question","trial_index":0,"trial_index_global":64,"time_elapsed":535895,"internal_chunk_id":"0-0.12-0"},{"nsides":"n","instructions":"Now we'd like to ask you some questions about <img src=./images/ngon_symbol.png style=width:14px;height:14px>, where n could be any positive counting number. For example, n could be 3, and the polygon a triangle, or n could be any other counting number you can think of. If you need to write the operation, you can use (n), and your answers can include n to stand in for the arbitrary value if necessary. (You can use the polygon at the right to think, but it doesn't necessarily correspond to the real polygon, which is why we've left most of it dashed.)","orientation_history":[0],"rt":2984,"trial_type":"polygon-arrow-instructions","trial_index":0,"trial_index_global":65,"time_elapsed":538879,"internal_chunk_id":"0-0"},{"nsides":"n","question":"What is the formula for the inverse of 1 under <img src=./images/ngon_symbol .png s tyle=width:14px;height:14px>?","response_type":"free","response_choices":[],"correct_response":"n-1","response":"2","explain":false,"explanation":"","explanation_history":[],"orientation_history":[[0],[6.271691560464555,6.271691560464555,6.271691560464555,0,0,0,0.04594465580811957,0.14531001063570215,0.29849893158617924,0.41947746175536094,0.5383745133462301,0.5585993153435624,0.6135561455119166,0.6135561455119166,0.6135561455119166,0.6135561455119166,0.6135561455119166,0.6135561455119166,0.6135561455119166,0.6135561455119166,0.6135561455119166,0.6135561455119166,0.6135561455119166,0.6135561455119166,0.6135561455119166,0.6135561455119166,0.6135561455119166,0.6135561455119166,0.6135561455119166,0.6229090541802449,0.6229090541802449,0.6229090541802449,0.6296451826461559,0.6458159194735695,0.6711438354360088,0.6962045508057151,0.7531512809621943,0.7773983340575616,0.8329812666744316,0.8329812666744316,0.8478169733934056,0.8561460311510558,0.8633647972289905,0.9097531579442096,0.9357695914045828,0.9652516631899265,0.9856838886104692,0.9856838886104692,0.9856838886104692,0.9944211062037128,0.9944211062037128,1.017764882644256,1.0464756144914746,1.0606705864430874,1.078987150806198,1.0838970949836275,1.0931309444321473,1.0978897231319673,1.0978897231319673,1.0978897231319673,1.1117569801042109,1.1304003406045533,1.1536268491450934,1.1631648213372696,1.1824776086224307,1.2021004241368467,1.2256386769522283,1.2356237596581634,1.2456787817547466,1.2456787817547466,1.2456787817547466,1.2456787817547466,1.2456787817547466,1.2558024263340397,1.2594260223969946],[2.0852476398539244,2.0852476398539244,2.1080810410956685,2.138901059269324,2.1685547183879788,2.2244322237144183,2.2655346029915995,2.301304627598191,2.312743594800814,2.3456685631606193,2.366503403338588,2.38648825011112,2.406656664209201,2.4539213975510634,2.462587344891249,2.498091544796509,2.5060069467652424,2.5352097672138303,2.5535900500422257,2.6057814156293295,2.6292031932790554,2.7161430162197506,2.8590377011202057,3.141592653589793,3.698191971600016,4.296896884443799,4.402220919596704,4.478645799515789,4.601731759210795,4.754031559483278,4.874226411623113,5.049063799771417,5.222877302301465,5.453859376705248,5.633784561819522,5.822795015648786,5.864960977600357,5.977306435774734,6.008803355848717,6.0956347175742165,6.109762586904709,6.160614432060073,6.167758646812661,6.252187487297352,0.06656816377582375,0.10579817292379357,0.31821700019878074,0.4297622790966884,0.751703056051432,1.1071487177940904,1.7644183196508418,2.072886525816891,2.1493205412126017,2.298786375555545,2.5415424401880395,2.620682872741577,2.677945044588987,2.7219417914546895,2.8674252024701343,2.976443976175166,4.068887871591405,4.493720034510748,4.837712966876236,4.837712966876236,4.837712966876236,4.837712966876236,4.837712966876236,4.837712966876236,4.837712966876236,4.837712966876236,4.837712966876236,4.837712966876236,4.837712966876236,4.837712966876236,4.837712966876236,4.837712966876236,4.837712966876236,4.837712966876236,5.51532920383954,5.54843503606225,5.632108585735106,5.655555881378092,5.690340126473972,5.695182703632019,5.684766413701048,5.676418150296087,5.672459342790377,5.666537246202439,5.6654295816133535,5.6616586826829645,5.6420765383198805,5.644550340025601,5.632108585735106,5.610514755372515,5.593646290892151,5.579239188088009,5.569827209168966,5.541238039173669,5.541238039173669,5.520005709108856,5.497787143782138,5.497787143782138,5.474535520971675,5.450204040505154,5.379297184624001,5.379297184624001,5.346021988454435,5.346021988454435,5.346021988454435,5.346021988454435,5.346021988454435,5.346021988454435,5.332638466367511,5.332638466367511,5.332638466367511,5.318994088979217,5.318994088979217,5.318994088979217,5.318994088979217,5.314676326519654,5.32019097649865,5.330533206319877,5.363465701829169,5.387129922608242,5.399513190526129,5.439031321066415,5.560205953778095,5.872120759789722,5.998454868656874,0.021273386024061036,0.12184243701991715,0.5713374798336267,0.6573891047242514,0.8187191592756955,0.8488051153642803,0.9042385079652134,0.9106647347199701,0.9088546855893886,0.9088546855893886,0.9088546855893886,0.9088546855893886,0.9088546855893886,0.9169863048553689,0.9169863048553689,0.9252205321816416,0.9420000403794636,0.9505468408120751,0.9768236449227915,1.0040671092713902,1.0322888700833235,1.041914776041772,1.0516502125483735,1.0714496051147664,1.081513309272413,1.091686032734505,1.091686032734505,1.091686032734505,1.091686032734505,1.091686032734505,1.091686032734505,1.091686032734505,1.091686032734505,1.091686032734505,1.091686032734505]],"response_history":["2"],"rt":12783,"trial_type":"polygon-arrow-question","trial_index":0,"trial_index_global":66,"time_elapsed":551663,"internal_chunk_id":"0-0.14-0"},{"nsides":"n","question":"What is the formula for the inverse of an element x under <img src=./images/ngon_symbol.png style=width:14px;height:14px>? Please explain in words why your answer is correct.","response_type":"f ree","response_choices":[],"correct_response":"n-x","response":"-x","explain":true,"explanation":"guess","explanation_history":["g","guess"],"orientation_history":[[0]],"response_history":["2","-2","-x"],"rt":34735,"trial_type":"polygon-arrow-question","trial_index":0,"trial_index_global":67,"time_elapsed":586398,"internal_chunk_id":"0-0.14-0"},{"nsides":"n","question":"Is there a pattern to which elements are generators? How can you know if an element x is a generator under <img src=./images/ngon_symbol.png style=width:14px;height:14px> without seeing whether it can make all the elements?.","response_type":"free","response_choices":[],"correct_response":"","response":"do not know.","explain":false,"explanation":"","explanation_history":[],"orientation_history":[[0]],"response_history":["do not know."],"rt":29464,"trial_type":"polygon-arrow-question","trial_index":0,"trial_index_global":68,"time_elapsed":615862,"internal_chunk_id":"0-0.14-0"},{"nsides":"n","question":"True o r false: If x is an odd number, it must be a generator under <img src=./images/ngon_symbol.png style=width:14px;height:14px>.","response_type":"multi","response_choices":["True","False"],"correct_response":"False","response":"False","explain":false,"explanation":"","explanation_history":[],"orientation_history":[[0]],"response_history":["False"],"rt":8584,"trial_type":"polygon-arrow-question","trial_index":0,"trial_index_global":69,"time_elapsed":624447,"internal_chunk_id":"0-0.14-0"},{"nsides":"n","question":"True or false: If x is an even number, it must not be a generator under <img src=./images/ngon_symbol.png style=width:14px;height:14px>.","response_type":"multi","response_choices":["True","False"],"correct_response":"False","response":"False","explain":false,"explanation":"","explanation_history":[],"orientation_history":[[0]],"response_history":["False"],"rt":4015,"trial_type":"polygon-arrow-question","trial_index":0,"trial_index_global":70,"time_elapsed":628462,"internal_chunk_id":"0-0.14-0"},{"nsides":"n","question":"True or false: If x is not a generator under <img src=./images/ngon_symbol.png style=width:14px;height:14px>, x must be a divisor of n, that is, x must divide n evenly, with no remainder.","response_type":"multi","response_choices":["True","False"],"correct_response":"False","response":"True","explain":false,"explanation":"","explanation_history":[],"orientation_history":[[0]],"response_history":["True"],"rt":7783,"trial_type":"polygon-arrow-question","trial_index":0,"trial_index_global":71,"time_elapsed":636247,"internal_chunk_id":"0-0.14-0"},{"nsides":"n","question":"True or false: If x is not a generator under <img src=./images/ngon_symbol.png style=width:14px;height:14px>, x must be a multiple of a divisor of n. Please explain in words how you got your answer.","response_type":"multi","response_choices":["True","False"],"correct_response":"True","response":"False","explain":true,"explanation":" guess","explanation_history":["guess"],"orientation_history":[[0]],"response_history":["False"],"rt":15301,"trial_type":"polygon-arrow-question","trial_index":0,"trial_index_global":72,"time_elapsed":651548,"internal_chunk_id":"0-0.14-0"},{"nsides":"n","question":"If an element x is a generator under <img src=./images/ngon_symbol.png style=width:14px;height:14px>, is its inverse a generator under <img src=./images/ngon_symbol.png style=width:14px;height:14px> always, sometimes, or never?","response_type":"multi","response_choices":["Always","Sometimes","Never"],"correct_response":"Always","response":"Sometimes","explain":false,"explanation":"","explanation_history":[],"orientation_history":[[0]],"response_history":["Sometimes"],"rt":12254,"trial_type":"polygon-arrow-question","trial_index":0,"trial_index_global":73,"time_elapsed":663808,"internal_chunk_id":"0-0.14-0"},{"nsides":"n","question":"If an element x is a generator under <img src=./images/ngon_symbol.png  style=width:14px;height:14px>, is x <img src=./images/ngon_symbol.png style=width:14px;height:14px> x a generator under <img src=./images/ngon_symbol.png style=width:14px;height:14px> always, sometimes, or never? Please explain in words how you got your answer.","response_type":"multi","response_choices":["Always","Sometimes","Never"],"correct_response":"Sometimes","response":"Sometimes","explain":true,"explanation":"guess","explanation_history":["guess"],"orientation_history":[[0]],"response_history":["Sometimes"],"rt":19528,"trial_type":"polygon-arrow-question","trial_index":0,"trial_index_global":74,"time_elapsed":683336,"internal_chunk_id":"0-0.14-0"},{"nsides":"n","question":"If an element x is not a generator under <img src=./images/ngon_symbol.png style=width:14px;height:14px>, is x <img src=./images/ngon_symbol.png style=width:14px;height:14px> x a generator under <img src=./images/ngon_symbol.png style=width:14px;height:14px> alw ays, som etimes, or never?","response_type":"multi","response_choices":["Always","Sometimes","Never"],"correct_response":"Never","response":"Never","explain":false,"explanation":"","explanation_history":[],"orientation_history":[[0]],"response_history":["Never"],"rt":9295,"trial_type":"polygon-arrow-question","trial_index":0,"trial_index_global":75,"time_elapsed":692632,"internal_chunk_id":"0-0.14-0"},{"instructions":"We would like to ask you some questions about your background. Please press Continue to continue.","rt":1783,"trial_type":"instructions","trial_index":0,"trial_index_global":76,"time_elapsed":694416,"internal_chunk_id":"0-0.15-0"},{"question":"What is your age?","response_type":"free","response_choices":[],"correct_response":"","response":"30","explain":false,"explanation":"","explanation_history":[],"response_history":["30"],"rt":2935,"trial_type":"question","trial_index":0,"trial_index_global":77,"time_elapsed":697352,"internal_chunk_id":"0-0.15-0"},{"question":"W hat is y our level of education?","response_type":"multi","response_choices":["Did not graduate high school","High school diploma","Some college, no degree","Associates Degree","Bachelors Degree","Some graduate school, no degree","Masters Degree","Doctorate, M.D., etc."],"correct_response":"","response":"Masters Degree","explain":false,"explanation":"","explanation_history":[],"response_history":["Masters Degree"],"rt":2799,"trial_type":"question","trial_index":0,"trial_index_global":78,"time_elapsed":700152,"internal_chunk_id":"0-0.15-0"},{"question":"What is the most advanced math class you've completed? If you have multiple classes and you're not sure which one is most advanced, please list them.","response_type":"free","response_choices":[],"correct_response":"","response":"calculus","explain":false,"explanation":"","explanation_history":[],"response_history":["calculus"],"rt":43903,"trial_type":"question","trial_index":0,"trial_index_global":79,"time_elapsed":744057,"internal_chunk_id":"0-0.15-0"},{"question":"How familiar are you with the concept of modular arithmetic?","response_type":"multi","response_choices":["1 - never heard of it","2 - heard of it but didn't know what it was","3 - seen it used or explained","4 - used it but not often or recently","5 - used it, remember and understand it"],"correct_response":"1","response":"2 - heard of it but didn't know what it was","explain":false,"explanation":"","explanation_history":[],"response_history":["2 - heard of it but didn't know what it was"],"rt":4359,"trial_type":"question","trial_index":0,"trial_index_global":80,"time_elapsed":748416,"internal_chunk_id":"0-0.15-0"},{"question":"How familiar are you with the concept of a mathematical group?","response_type":"multi","response_choices":["1 - never heard of it","2 - heard of it but didn't know what it was","3 - seen it used or explained","4 - used it but not often or recently","5 - used it, remember and understand it"],"correct_response":"1","response":"5 - use d it, remember and understand it","explain":false,"explanation":"","explanation_history":[],"response_history":["5 - used it, remember and understand it"],"rt":5175,"trial_type":"question","trial_index":0,"trial_index_global":81,"time_elapsed":753592,"internal_chunk_id":"0-0.15-0"},{"question":"Do you feel you learned something from this HIT?","response_type":"multi","response_choices":["1 - not at all","2 - somewhat","3 - definitely"],"correct_response":"1","response":"2 - somewhat","explain":false,"explanation":"","explanation_history":[],"response_history":["2 - somewhat"],"rt":4007,"trial_type":"question","trial_index":0,"trial_index_global":82,"time_elapsed":757600,"internal_chunk_id":"0-0.15-0"},{"question":"Do you feel you understood the concepts in this HIT?","response_type":"multi","response_choices":["1 - not at all","2 - somewhat","3 - definitely"],"correct_response":"1","response":"2 - somewhat","explain":false,"explanation":"","explanation_history":[],"response_history":["2 - somewhat"],"rt":3692,"trial_type":"question","trial_index":0,"trial_index_global":83,"time_elapsed":761293,"internal_chunk_id":"0-0.15-0"},{"question":"Did you enjoy this HIT?","response_type":"multi","response_choices":["1 - not at all","2 - somewhat","3 - definitely"],"correct_response":"1","response":"3 - definitely","explain":false,"explanation":"","explanation_history":[],"response_history":["3 - definitely"],"rt":2947,"trial_type":"question","trial_index":0,"trial_index_global":84,"time_elapsed":764240,"internal_chunk_id":"0-0.15-0"},{"question":"What is your gender?","response_type":"multi","response_choices":["Female","Male","Other"],"correct_response":"","response":"Female","explain":false,"explanation":"","explanation_history":[],"response_history":["Female"],"rt":2885,"trial_type":"question","trial_index":0,"trial_index_global":85,"time_elapsed":767125,"internal_chunk_id":"0-0.15-0"},{"question":"What is/are your native language(s)? (The languages spoken in  your ho usehold when you were a child.)","response_type":"free","response_choices":[],"correct_response":"","response":"English","explain":false,"explanation":"","explanation_history":[],"response_history":["English"],"rt":9308,"trial_type":"question","trial_index":0,"trial_index_global":86,"time_elapsed":776433,"internal_chunk_id":"0-0.15-0"},{"question":"Did you use pen and paper at any point on this HIT?","response_type":"free","response_choices":[],"correct_response":"","response":"no","explain":false,"explanation":"","explanation_history":[],"response_history":["no"],"rt":3104,"trial_type":"question","trial_index":0,"trial_index_global":87,"time_elapsed":779537,"internal_chunk_id":"0-0.15-0"},{"question":"Do you have any comments on this HIT?","response_type":"free","response_choices":[],"correct_response":"","response":"","explain":false,"explanation":"","explanation_history":[],"response_history":[],"rt":3903,"trial_type":"question","trial_index":0,"trial_index_global":88,"time_elapsed":783440,"internal_chunk_id":"0-0.15-0"}]