[{"nsides":6,"instructions":"Let's define a new operation <img src=./images/hexagon_symbol.png style=width:14px;height:14px>. This operation will give us a way of combining two of the numbers 0, 1, 2, 3, 4, 5 to get another one of them back. Consider the hexagon at the right, where I've labeled each point with one of the numbers. To perform <img src=./images/hexagon_symbol.png style=width:14px;height:14px>, you can use the interactive diagram on the right, or perform the operation in your mind. Point the arrow at the first number on the hexagon by clicking, then click (or click and drag) to move the arrow the second number of points clockwise around the hexagon. The number the arrow arrives at is your result. (The operation is called <img src=./images/hexagon_symbol.png style=width:14px;height:14px> because it uses the hexagon, which has 6 sides.) <br /><br />For example, 3 <img src=./images/hexagon_symbol.png style=width:14px;height:14px> 5 =  2, becau se 5 steps clockwise from 3 on the hexagon brings us to 2. So 3 <img src=./images/hexagon_symbol.png style=width:14px;height:14px> 5 = 2.<br /><br />Similarly, 1 <img src=./images/hexagon_symbol.png style=width:14px;height:14px> 4 = 5, because 4 steps clockwise from 1 brings us to 5. <br /><br />Click Continue when you're ready to move on.","orientation_history":[0],"rt":121679,"trial_type":"polygon-arrow-instructions","trial_index":0,"trial_index_global":1,"time_elapsed":129683,"internal_chunk_id":"0-0"},{"nsides":6,"instructions":"Do you see how <img src=./images/hexagon_symbol.png style=width:14px;height:14px> works? By labeling the points of the hexagon with the numbers from 0 to 5, we ensure that when we combine two numbers under <img src=./images/hexagon_symbol.png style=width:14px;height:14px>, we only produce numbers between 0 and 5.<br /><br />Click Continue when you are ready to move on.","orientation_history":[0],"rt":12387,"trial_type":"polygon-arrow-instructions","trial_index":0,"trial_index_global":2,"time_elapsed":142076,"internal_chunk_id":"0-0"},{"nsides":6,"question":"Now try one on your own! What is 4 <img src=./images/hexagon_symbol.png style=width:14px;height:14px> 5? <br /><br /> (Remember, to perform <img src=./images/hexagon_symbol.png style=width:14px;height:14px>, you can use the interactive diagram on the right, or perform the operation in your mind. Point the arrow at the first number on the hexagon, then move the arrow the second number of points clockwise around the hexagon. The number the arrow arrives at is your result.)","response_type":"free","response_choices":[],"correct_response":"3","response":"5","explain":false,"explanation":"","explanation_history":[],"orientation_history":[[0],[5.286693810559392,5.286693810559392,5.286693810559392,5.286693810559392,5.286693810559392,5.286693810559392,5.286693810559392,5.286693810559392,5.235987755982988],[3.9269908169872414,3.9269908169872414,3.9269908169872414,3.9269908169872414,3.9269908169872414,3.9269908169872414,3.9269908169872414,4.1887902047863905],[4.1887902047863905,4.1887902047863905,4.1887902047863905,4.1887902047863905,4.1887902047863905,4.1887902047863905,4.1887902047863905,4.1887902047863905,4.1887902047863905,4.1887902047863905],[5.182171481743372,5.182171481743372,5.182171481743372,5.182171481743372,5.182171481743372,5.182171481743372,5.182171481743372,5.235987755982988],[0.1019183674808739,0.1019183674808739,0.1019183674808739,0.1019183674808739,0.1019183674808739,0.1019183674808739,0.1019183674808739,0.1019183674808739,0.1019183674808739,0.1019183674808739,0.1019183674808739,0],[4.215046264037867,4.215046264037867,4.215046264037867,4.215046264037867,4.215046264037867,4.215046264037867,4.215046264037867,4.215046264037867,4.1887902047863905],[4.1887902047863905,4.1887902047863905,4.1887902047863905,4.1887902047863905,4.1887902047863905,4.1887902047863905,4.1887902047863905,4.1887902047863905,4.22873220274034,4.270394712083072,4.328547389690474,4.374018117571127,4.405157350753587,4.405157350753587,4.420959849941416,4.48558382374734,4.518648472670338,4.552132920655662,4.5690114108038244,4.5859688495471,4.5859688495471,4.602995976591312,4.620083293919771,4.620083293919771,4.620083293919771,4.637221095812968,4.6534945235030705,4.6534945235030705,4.671004254580787,4.671004254580787,4.68853552505661,4.706077585114012,4.741150915647237,4.7761381677524675,4.793572925916403,4.828272755805367,4.845517642205349,4.865429226017929,4.900036732373905,4.9341802133939545,4.984377244119123,5.017075865719552,5.049101525534716,5.049101525534716,5.080411201121596,5.095786156456877,5.125957542319564,5.1553376977258925,5.169725194114818,5.169725194114818,5.169725194114818,5.169725194114818,5.169725194114818,5.169725194114818,5.169725194114818,5.169725194114818,5.169725194114818,5.169725194114818,5.169725194114818,5.169725194114818,5.169725194114818,5.169725194114818,5.169725194114818,5.169725194114818,5.169725194114818,5.169725194114818,5.169725194114818,5.169725194114818,5.169725194114818,5.176971444094716,5.176971444094716,5.176971444094716,5.176971444094716,5.176971444094716,5.176971444094716,5.176971444094716,5.176971444094716,5.176971444094716,5.176971444094716,5.176971444094716,5.176971444094716,5.176971444094716,5.176971444094716,5.235987755982988]],"response_history":["5"],"rt":180126,"trial_type":"polygon-arrow-question","trial_index":0,"trial_index_global":3,"time_elapsed":322206,"internal_chunk_id":"0-0.3-0"},{"nsides":6,"feedback":"Sorry, that was incorrect. 4 <img src=./images/hexagon_symbol.png style=width:14px;height:14px> 5 = 3 because 5 steps clockwise on the hexagon from 4 brings us to 3","orientation_history":[0],"rt":22588,"trial_type":"polygon-arrow-feedback","trial_index":0,"trial_index_global":4,"time_elapsed":344798,"internal_chunk_id":"0-0.3-0"},{"nsides":6,"question":"What is 3 <img src=./images/hexagon_symbol.png style=wi dth:14px ;height:14px> 2? <br /><br /> (Remember, to perform <img src=./images/hexagon_symbol.png style=width:14px;height:14px>, you can use the interactive diagram on the right, or perform the operation in your mind. Point the arrow at the first number on the hexagon, then move the arrow the second number of points clockwise around the hexagon. The number the arrow arrives at is your result.)","response_type":"free","response_choices":[],"correct_response":"5","response":"5","explain":false,"explanation":"","explanation_history":[],"orientation_history":[[0]],"response_history":["2","5"],"rt":9872,"trial_type":"polygon-arrow-question","trial_index":0,"trial_index_global":5,"time_elapsed":354672,"internal_chunk_id":"0-0.3-0"},{"nsides":6,"feedback":"Correct! 3 <img src=./images/hexagon_symbol.png style=width:14px;height:14px> 2 = 5 because 2 steps clockwise on the hexagon from 3 brings us to 5","orientation_history":[0],"rt":1294,"trial_type":"polygon-arrow-feedback ","trial_index":0,"trial_index_global":6,"time_elapsed":355968,"internal_chunk_id":"0-0.3-0"},{"nsides":6,"question":"What is 1 <img src=./images/hexagon_symbol.png style=width:14px;height:14px> 5? <br /><br /> (Remember, to perform <img src=./images/hexagon_symbol.png style=width:14px;height:14px>, you can use the interactive diagram on the right, or perform the operation in your mind. Point the arrow at the first number on the hexagon, then move the arrow the second number of points clockwise around the hexagon. The number the arrow arrives at is your result.)","response_type":"free","response_choices":[],"correct_response":"0","response":"0","explain":false,"explanation":"","explanation_history":[],"orientation_history":[[0]],"response_history":["0"],"rt":7914,"trial_type":"polygon-arrow-question","trial_index":0,"trial_index_global":7,"time_elapsed":363882,"internal_chunk_id":"0-0.3-0"},{"nsides":6,"feedback":"Correct! 1 <img src=./images/hexagon_symbol.png s tyle=w idth:14px;height:14px> 5 = 0 because 5 steps clockwise on the hexagon from 1 brings us to 0","orientation_history":[0],"rt":1054,"trial_type":"polygon-arrow-feedback","trial_index":0,"trial_index_global":8,"time_elapsed":364936,"internal_chunk_id":"0-0.3-0"},{"nsides":6,"question":"What is 1 <img src=./images/hexagon_symbol.png style=width:14px;height:14px> 1? <br /><br /> (Remember, to perform <img src=./images/hexagon_symbol.png style=width:14px;height:14px>, you can use the interactive diagram on the right, or perform the operation in your mind. Point the arrow at the first number on the hexagon, then move the arrow the second number of points clockwise around the hexagon. The number the arrow arrives at is your result.)","response_type":"free","response_choices":[],"correct_response":"2","response":"2","explain":false,"explanation":"","explanation_history":[],"orientation_history":[[0]],"response_history":["2"],"rt":5031,"trial_type":"polygon-arrow-ques tion","trial_index":0,"trial_index_global":9,"time_elapsed":369967,"internal_chunk_id":"0-0.3-0"},{"nsides":6,"feedback":"Correct! 1 <img src=./images/hexagon_symbol.png style=width:14px;height:14px> 1 = 2 because 1 step clockwise on the hexagon from 1 brings us to 2","orientation_history":[0],"rt":984,"trial_type":"polygon-arrow-feedback","trial_index":0,"trial_index_global":10,"time_elapsed":370952,"internal_chunk_id":"0-0.3-0"},{"nsides":6,"question":"What is 3 <img src=./images/hexagon_symbol.png style=width:14px;height:14px> 0? <br /><br /> (Remember, to perform <img src=./images/hexagon_symbol.png style=width:14px;height:14px>, you can use the interactive diagram on the right, or perform the operation in your mind. Point the arrow at the first number on the hexagon, then move the arrow the second number of points clockwise around the hexagon. The number the arrow arrives at is your result.)","response_type":"free","response_choices":[],"correct_response":"3","response":"3","explain":false,"explanation":"","explanation_history":[],"orientation_history":[[0]],"response_history":["3"],"rt":4038,"trial_type":"polygon-arrow-question","trial_index":0,"trial_index_global":11,"time_elapsed":374991,"internal_chunk_id":"0-0.3-0"},{"nsides":6,"feedback":"Correct! 3 <img src=./images/hexagon_symbol.png style=width:14px;height:14px> 0 = 3 because 0 steps clockwise on the hexagon from 3 brings us to 3","orientation_history":[0],"rt":927,"trial_type":"polygon-arrow-feedback","trial_index":0,"trial_index_global":12,"time_elapsed":375919,"internal_chunk_id":"0-0.3-0"},{"nsides":6,"question":"What is 4 <img src=./images/hexagon_symbol.png style=width:14px;height:14px> 4? <br /><br /> (Remember, to perform <img src=./images/hexagon_symbol.png style=width:14px;height:14px>, you can use the interactive diagram on the right, or perform the operation in your mind. Point the arrow at the first number on the hexagon, then move the  arrow th e second number of points clockwise around the hexagon. The number the arrow arrives at is your result.)","response_type":"free","response_choices":[],"correct_response":"2","response":"2","explain":false,"explanation":"","explanation_history":[],"orientation_history":[[0]],"response_history":["2"],"rt":3884,"trial_type":"polygon-arrow-question","trial_index":0,"trial_index_global":13,"time_elapsed":379804,"internal_chunk_id":"0-0.3-0"},{"nsides":6,"feedback":"Correct! 4 <img src=./images/hexagon_symbol.png style=width:14px;height:14px> 4 = 2 because 4 steps clockwise on the hexagon from 4 brings us to 2","orientation_history":[0],"rt":1209,"trial_type":"polygon-arrow-feedback","trial_index":0,"trial_index_global":14,"time_elapsed":381014,"internal_chunk_id":"0-0.3-0"},{"nsides":6,"question":"What is 1 <img src=./images/hexagon_symbol.png style=width:14px;height:14px> 3? <br /><br /> (Remember, to perform <img src=./images/hexagon_symbol.png style=width :14px;he ight:14px>, you can use the interactive diagram on the right, or perform the operation in your mind. Point the arrow at the first number on the hexagon, then move the arrow the second number of points clockwise around the hexagon. The number the arrow arrives at is your result.)","response_type":"free","response_choices":[],"correct_response":"4","response":"4","explain":false,"explanation":"","explanation_history":[],"orientation_history":[[0]],"response_history":["4"],"rt":2569,"trial_type":"polygon-arrow-question","trial_index":0,"trial_index_global":15,"time_elapsed":383584,"internal_chunk_id":"0-0.3-0"},{"nsides":6,"feedback":"Correct! 1 <img src=./images/hexagon_symbol.png style=width:14px;height:14px> 3 = 4 because 3 steps clockwise on the hexagon from 1 brings us to 4","orientation_history":[0],"rt":1428,"trial_type":"polygon-arrow-feedback","trial_index":0,"trial_index_global":16,"time_elapsed":385013,"internal_chunk_id":"0-0.3-0"},{"nsides":6,"question":" What is  4 <img src=./images/hexagon_symbol.png style=width:14px;height:14px> 3? <br /><br /> (Remember, to perform <img src=./images/hexagon_symbol.png style=width:14px;height:14px>, you can use the interactive diagram on the right, or perform the operation in your mind. Point the arrow at the first number on the hexagon, then move the arrow the second number of points clockwise around the hexagon. The number the arrow arrives at is your result.)","response_type":"free","response_choices":[],"correct_response":"1","response":"1","explain":false,"explanation":"","explanation_history":[],"orientation_history":[[0]],"response_history":["1"],"rt":81871,"trial_type":"polygon-arrow-question","trial_index":0,"trial_index_global":17,"time_elapsed":466885,"internal_chunk_id":"0-0.3-0"},{"nsides":6,"feedback":"Correct! 4 <img src=./images/hexagon_symbol.png style=width:14px;height:14px> 3 = 1 because 3 steps clockwise on the hexagon from 4 brings us to 1","orientation_history":[0],"rt":836,"trial_type":"polygon-arrow-feedback","trial_index":0,"trial_index_global":18,"time_elapsed":467723,"internal_chunk_id":"0-0.3-0"},{"nsides":6,"question":"What is 0 <img src=./images/hexagon_symbol.png style=width:14px;height:14px> 5? <br /><br /> (Remember, to perform <img src=./images/hexagon_symbol.png style=width:14px;height:14px>, you can use the interactive diagram on the right, or perform the operation in your mind. Point the arrow at the first number on the hexagon, then move the arrow the second number of points clockwise around the hexagon. The number the arrow arrives at is your result.)","response_type":"free","response_choices":[],"correct_response":"5","response":"5","explain":false,"explanation":"","explanation_history":[],"orientation_history":[[0]],"response_history":["5"],"rt":2489,"trial_type":"polygon-arrow-question","trial_index":0,"trial_index_global":19,"time_elapsed":470212,"internal_chunk_id":"0-0.3-0"},{"nsides":6,"feedback":"C orrect! 0 <img src=./images/hexagon_symbol.png style=width:14px;height:14px> 5 = 5 because 5 steps clockwise on the hexagon from 0 brings us to 5","orientation_history":[0],"rt":641,"trial_type":"polygon-arrow-feedback","trial_index":0,"trial_index_global":20,"time_elapsed":470854,"internal_chunk_id":"0-0.3-0"},{"nsides":6,"question":"What is 2 <img src=./images/hexagon_symbol.png style=width:14px;height:14px> 5? <br /><br /> (Remember, to perform <img src=./images/hexagon_symbol.png style=width:14px;height:14px>, you can use the interactive diagram on the right, or perform the operation in your mind. Point the arrow at the first number on the hexagon, then move the arrow the second number of points clockwise around the hexagon. The number the arrow arrives at is your result.)","response_type":"free","response_choices":[],"correct_response":"1","response":"1","explain":false,"explanation":"","explanation_history":[],"orientation_history":[[0]],"response_history":["1"],"rt":2250,"trial_type":"polygon-arrow-question","trial_index":0,"trial_index_global":21,"time_elapsed":473105,"internal_chunk_id":"0-0.3-0"},{"nsides":6,"feedback":"Correct! 2 <img src=./images/hexagon_symbol.png style=width:14px;height:14px> 5 = 1 because 5 steps clockwise on the hexagon from 2 brings us to 1","orientation_history":[0],"rt":600,"trial_type":"polygon-arrow-feedback","trial_index":0,"trial_index_global":22,"time_elapsed":473706,"internal_chunk_id":"0-0.3-0"},{"nsides":6,"instructions":"Now we're going to discuss a couple special properties of this new operation, <img src=./images/hexagon_symbol.png style=width:14px;height:14px> that we've learned. First, notice that the number 0 behaves in a special way under <img src=./images/hexagon_symbol.png style=width:14px;height:14px>. Whenever we combine 0 with anything else, we get that same thing back. We'll say that 0 is the <i>identity</i> under <img src=./images/hexagon_symbol. png st yle=width:14px;height:14px>, because when you combine it with something it gives you that identical thing back.","orientation_history":[0],"rt":8542,"trial_type":"polygon-arrow-instructions","trial_index":0,"trial_index_global":23,"time_elapsed":482252,"internal_chunk_id":"0-0"},{"nsides":6,"instructions":"Now that we know 0 is the identity under <img src=./images/hexagon_symbol.png style=width:14px;height:14px>, we're going to make a new definition. We'll say that the <i>inverse</i> of a number is the element that you combine with it to produce the identity under our operation. For example, 5 <img src=./images/hexagon_symbol.png style=width:14px;height:14px> 1 = 0, so we say 1 is the inverse of 5 under <img src=./images/hexagon_symbol.png style=width:14px;height:14px>, (remember 0 is the identity under <img src=./images/hexagon_symbol.png style=width:14px;height:14px>). Similarly, 3 is its own inverse under <img src=./images/hexagon_sym bol.png style=width:14px;height:14px>, because 3 <img src=./images/hexagon_symbol.png style=width:14px;height:14px> 3 = 0.","orientation_history":[0],"rt":797563,"trial_type":"polygon-arrow-instructions","trial_index":0,"trial_index_global":24,"time_elapsed":1279816,"internal_chunk_id":"0-0"},{"nsides":6,"question":"Now you try! What is the inverse of 4 under <img src=./images/hexagon_symbol.png style=width:14px;height:14px>? <br /><br /> (Remember, the inverse of an element is the thing which you combine with it to produce the identity.)","response_type":"free","response_choices":[],"correct_response":"2","response":"1","explain":false,"explanation":"","explanation_history":[],"orientation_history":[[0]],"response_history":["1"],"rt":4618,"trial_type":"polygon-arrow-question","trial_index":0,"trial_index_global":25,"time_elapsed":1284439,"internal_chunk_id":"0-0.7-0"},{"nsides":6,"feedback":"Sorry, that was incorrect. The inverse of 4 under <img src=./images /hexagon _symbol.png style=width:14px;height:14px> is 2 because 4 <img src=./images/hexagon_symbol.png style=width:14px;height:14px> 2 = 0, and 0 is the identity under <img src=./images/hexagon_symbol.png style=width:14px;height:14px>.","orientation_history":[0],"rt":49610,"trial_type":"polygon-arrow-feedback","trial_index":0,"trial_index_global":26,"time_elapsed":1334050,"internal_chunk_id":"0-0.7-0"},{"nsides":6,"question":"What is the inverse of 1 under <img src=./images/hexagon_symbol.png style=width:14px;height:14px>? <br /><br /> (Remember, the inverse of an element is the thing which you combine with it to produce the identity.)","response_type":"free","response_choices":[],"correct_response":"5","response":"5","explain":false,"explanation":"","explanation_history":[],"orientation_history":[[0]],"response_history":["5"],"rt":6670,"trial_type":"polygon-arrow-question","trial_index":0,"trial_index_global":27,"time_elapsed":1340725,"internal_chunk_id":"0-0.7 -0"},{"nsides":6,"feedback":"Correct! The inverse of 1 under <img src=./images/hexagon_symbol.png style=width:14px;height:14px> is 5 because 1 <img src=./images/hexagon_symbol.png style=width:14px;height:14px> 5 = 0, and 0 is the identity under <img src=./images/hexagon_symbol.png style=width:14px;height:14px>.","orientation_history":[0],"rt":882,"trial_type":"polygon-arrow-feedback","trial_index":0,"trial_index_global":28,"time_elapsed":1341609,"internal_chunk_id":"0-0.7-0"},{"nsides":6,"question":"What is the inverse of 3 under <img src=./images/hexagon_symbol.png style=width:14px;height:14px>? <br /><br /> (Remember, the inverse of an element is the thing which you combine with it to produce the identity.)","response_type":"free","response_choices":[],"correct_response":"3","response":"3","explain":false,"explanation":"","explanation_history":[],"orientation_history":[[0]],"response_history":["3"],"rt":1171,"trial_type":"polygon-arrow-quest ion","trial_index":0,"trial_index_global":29,"time_elapsed":1342781,"internal_chunk_id":"0-0.7-0"},{"nsides":6,"feedback":"Correct! The inverse of 3 under <img src=./images/hexagon_symbol.png style=width:14px;height:14px> is 3 because 3 <img src=./images/hexagon_symbol.png style=width:14px;height:14px> 3 = 0, and 0 is the identity under <img src=./images/hexagon_symbol.png style=width:14px;height:14px>.","orientation_history":[0],"rt":625,"trial_type":"polygon-arrow-feedback","trial_index":0,"trial_index_global":30,"time_elapsed":1343408,"internal_chunk_id":"0-0.7-0"},{"nsides":6,"question":"What is the inverse of 2 under <img src=./images/hexagon_symbol.png style=width:14px;height:14px>? <br /><br /> (Remember, the inverse of an element is the thing which you combine with it to produce the identity.)","response_type":"free","response_choices":[],"correct_response":"4","response":"4","explain":false,"explanation":"","explanation_history":[],"orientation_history":[[0]],"response_history":["4"],"rt":1113,"trial_type":"polygon-arrow-question","trial_index":0,"trial_index_global":31,"time_elapsed":1344523,"internal_chunk_id":"0-0.7-0"},{"nsides":6,"feedback":"Correct! The inverse of 2 under <img src=./images/hexagon_symbol.png style=width:14px;height:14px> is 4 because 2 <img src=./images/hexagon_symbol.png style=width:14px;height:14px> 4 = 0, and 0 is the identity under <img src=./images/hexagon_symbol.png style=width:14px;height:14px>.","orientation_history":[0],"rt":655,"trial_type":"polygon-arrow-feedback","trial_index":0,"trial_index_global":32,"time_elapsed":1345178,"internal_chunk_id":"0-0.7-0"},{"nsides":6,"question":"What is the inverse of 0 under <img src=./images/hexagon_symbol.png style=width:14px;height:14px>? <br /><br /> (Remember, the inverse of an element is the thing which you combine with it to produce the identity.)","response_type":"free","response_choices":[],"correct_response":" 0","response":"6","explain":false,"explanation":"","explanation_history":[],"orientation_history":[[0]],"response_history":["6"],"rt":1749,"trial_type":"polygon-arrow-question","trial_index":0,"trial_index_global":33,"time_elapsed":1346929,"internal_chunk_id":"0-0.7-0"},{"nsides":6,"feedback":"Sorry, that was incorrect. The inverse of 0 under <img src=./images/hexagon_symbol.png style=width:14px;height:14px> is 0 because 0 <img src=./images/hexagon_symbol.png style=width:14px;height:14px> 0 = 0, and 0 is the identity under <img src=./images/hexagon_symbol.png style=width:14px;height:14px>.","orientation_history":[0],"rt":1452,"trial_type":"polygon-arrow-feedback","trial_index":0,"trial_index_global":34,"time_elapsed":1348381,"internal_chunk_id":"0-0.7-0"},{"instructions":"It is also possible to successively apply <img src=./images/hexagon_symbol.png style=width:14px;height:14px>, and the operation can simply be performed starting with the left-most pa ir. For  example, 2 <img src=./images/hexagon_symbol.png style=width:14px;height:14px> 3 <img src=./images/hexagon_symbol.png style=width:14px;height:14px> 4 = 5 <img src=./images/hexagon_symbol.png style=width:14px;height:14px> 4 = 3.","rt":4462,"trial_type":"instructions","trial_index":0,"trial_index_global":35,"time_elapsed":1352843,"internal_chunk_id":"0-0"},{"nsides":6,"instructions":"We have one last definition to learn today, using the successive operations we just learned. Let's start with an example. Under our operation <img src=./images/hexagon_symbol.png style=width:14px;height:14px> we can make every other number using just 1: 2 = 1 <img src=./images/hexagon_symbol.png style=width:14px;height:14px> 1, 3 = 1 <img src=./images/hexagon_symbol.png style=width:14px;height:14px> 1 <img src=./images/hexagon_symbol.png style=width:14px;height:14px> 1, 4 = 1 <img src=./images/hexagon_symbol.png style=width:14px;height:1 4px> 1  <img src=./images/hexagon_symbol.png style=width:14px;height:14px> 1 <img src=./images/hexagon_symbol.png style=width:14px;height:14px> 1, 5 = 1 <img src=./images/hexagon_symbol.png style=width:14px;height:14px> 1 <img src=./images/hexagon_symbol.png style=width:14px;height:14px> 1 <img src=./images/hexagon_symbol.png style=width:14px;height:14px> 1 <img src=./images/hexagon_symbol.png style=width:14px;height:14px> 1, and 0 = 1 <img src=./images/hexagon_symbol.png style=width:14px;height:14px> 1 <img src=./images/hexagon_symbol.png style=width:14px;height:14px> 1 <img src=./images/hexagon_symbol.png style=width:14px;height:14px> 1 <img src=./images/hexagon_symbol.png style=width:14px;height:14px> 1 <img src=./images/hexagon_symbol.png style=width:14px;height:14px> 1. Because 1 can make every other element under <img src=./images/hexagon_symbol.png style=width:14px;height:14px>, w e say th at 1 is a <i>generator</i> under <img src=./images/hexagon_symbol.png style=width:14px;height:14px>. <br /><br /> However, 2 is not a generator under <img src=./images/hexagon_symbol.png style=width:14px;height:14px>, because 4 = 2 <img src=./images/hexagon_symbol.png style=width:14px;height:14px> 2, and 0 = 2 <img src=./images/hexagon_symbol.png style=width:14px;height:14px> 2 <img src=./images/hexagon_symbol.png style=width:14px;height:14px> 2, but there is no way to make 1, 3, or 5 using just 2.","orientation_history":[0],"rt":9865,"trial_type":"polygon-arrow-instructions","trial_index":0,"trial_index_global":36,"time_elapsed":1362709,"internal_chunk_id":"0-0"},{"nsides":6,"question":"Now you try! Is 3 a generator under <img src=./images/hexagon_symbol.png style=width:14px;height:14px>? <br /><br /> (Remember, a generator is an element which can make every other element.)","response_type":"multi","response_choices":["Yes","N o"],"correct_response":"No","response":"No","explain":false,"explanation":"","explanation_history":[],"orientation_history":[[0]],"response_history":["No"],"rt":6273,"trial_type":"polygon-arrow-question","trial_index":0,"trial_index_global":37,"time_elapsed":1368983,"internal_chunk_id":"0-0.10-0"},{"nsides":6,"feedback":"Correct! 3 is not a generator under <img src=./images/hexagon_symbol.png style=width:14px;height:14px>, because 3 = 3, 0 = 3 <img src=./images/hexagon_symbol.png style=width:14px;height:14px> 3, but there is no way to make 1, 2, 4, or 5 using just 3.","orientation_history":[0],"rt":5247,"trial_type":"polygon-arrow-feedback","trial_index":0,"trial_index_global":38,"time_elapsed":1374231,"internal_chunk_id":"0-0.10-0"},{"nsides":6,"question":"Is 5 a generator under <img src=./images/hexagon_symbol.png style=width:14px;height:14px>? <br /><br /> (Remember, a generator is an element which can make every other element.)","response_type":"multi","response_choices":["Yes","No"],"correct_response":"Yes","response":"No","explain":false,"explanation":"","explanation_history":[],"orientation_history":[[0]],"response_history":["No"],"rt":2330,"trial_type":"polygon-arrow-question","trial_index":0,"trial_index_global":39,"time_elapsed":1376561,"internal_chunk_id":"0-0.10-0"},{"nsides":6,"feedback":"Sorry, that's incorrect. 5 is a generator under <img src=./images/hexagon_symbol.png style=width:14px;height:14px>, because 5 = 5, 4 = 5 <img src=./images/hexagon_symbol.png style=width:14px;height:14px> 5, 3 = 5 <img src=./images/hexagon_symbol.png style=width:14px;height:14px> 5 <img src=./images/hexagon_symbol.png style=width:14px;height:14px> 5, 2 = 5 <img src=./images/hexagon_symbol.png style=width:14px;height:14px> 5 <img src=./images/hexagon_symbol.png style=width:14px;height:14px> 5 <img src=./images/hexagon_symbol.png style=width:14px;height:14px> 5, 1 = 5 <img src=./images /hexagon _symbol.png style=width:14px;height:14px> 5 <img src=./images/hexagon_symbol.png style=width:14px;height:14px> 5 <img src=./images/hexagon_symbol.png style=width:14px;height:14px> 5 <img src=./images/hexagon_symbol.png style=width:14px;height:14px> 5, and 0 = 5 <img src=./images/hexagon_symbol.png style=width:14px;height:14px> 5 <img src=./images/hexagon_symbol.png style=width:14px;height:14px> 5 <img src=./images/hexagon_symbol.png style=width:14px;height:14px> 5 <img src=./images/hexagon_symbol.png style=width:14px;height:14px> 5 <img src=./images/hexagon_symbol.png style=width:14px;height:14px> 5, so you can make all of the numbers under <img src=./images/hexagon_symbol.png style=width:14px;height:14px> using 5","orientation_history":[0],"rt":1586,"trial_type":"polygon-arrow-feedback","trial_index":0,"trial_index_global":40,"time_elapsed":1378147,"internal_chunk_id":"0-0.10-0"},{"nsides":6,"question":"I s 4 a generator under <img src=./images/hexagon_symbol.png style=width:14px;height:14px>? <br /><br /> (Remember, a generator is an element which can make every other element.)","response_type":"multi","response_choices":["Yes","No"],"correct_response":"No","response":"No","explain":false,"explanation":"","explanation_history":[],"orientation_history":[[0]],"response_history":["No"],"rt":1951,"trial_type":"polygon-arrow-question","trial_index":0,"trial_index_global":41,"time_elapsed":1380098,"internal_chunk_id":"0-0.10-0"},{"nsides":6,"feedback":"Correct! 4 is not a generator under <img src=./images/hexagon_symbol.png style=width:14px;height:14px>, because 4 = 4, 2 = 4 <img src=./images/hexagon_symbol.png style=width:14px;height:14px> 4, and 0 = 4 <img src=./images/hexagon_symbol.png style=width:14px;height:14px> 4 <img src=./images/hexagon_symbol.png style=width:14px;height:14px> 4, but there is no way to make 1, 3, or 5 using just 4. ","orientation_history":[0],"rt":610,"trial_type":"polygon-arrow-feedback","trial_index":0,"trial_index_global":42,"time_elapsed":1380709,"internal_chunk_id":"0-0.10-0"},{"nsides":6,"question":"Is 0 a generator under <img src=./images/hexagon_symbol.png style=width:14px;height:14px>? <br /><br /> (Remember, a generator is an element which can make every other element.)","response_type":"multi","response_choices":["Yes","No"],"correct_response":"No","response":"Yes","explain":false,"explanation":"","explanation_history":[],"orientation_history":[[0]],"response_history":["Yes"],"rt":3218,"trial_type":"polygon-arrow-question","trial_index":0,"trial_index_global":43,"time_elapsed":1383927,"internal_chunk_id":"0-0.10-0"},{"nsides":6,"feedback":"Sorry, that's incorrect. 0 is not a generator under <img src=./images/hexagon_symbol.png style=width:14px;height:14px>, because 0 = 0, but there is no way to make 1, 2, 3, 4, or 5 using just 0.","orientation_history":[0],"rt":851,"trial_type":"polygon-arrow-feedback","trial_index":0,"trial_index_global":44,"time_elapsed":1384779,"internal_chunk_id":"0-0.10-0"},{"nsides":9,"instructions":"Now we are going to ask you some questions about a new operation, <img src=./images/nonagon_symbol.png style=width:14px;height:14px>, on the numbers 0, 1, 2, 3, 4, 5, 6, 7, 8. It works exactly like <img src=./images/hexagon_symbol.png style=width:14px;height:14px>, except now you use the nonagon shown at the right. <br /><br />Do you see how <img src=./images/nonagon_symbol.png style=width:14px;height:14px> works just like <img src=./images/hexagon_symbol.png style=width:14px;height:14px>? By labeling the points of the nonagon with the numbers from 0 to 8, we ensure that when we combine two numbers under <img src=./images/nonagon_symbol.png style=width:14px;height:14px>, we only produce numbers between 0 and 8. <br /><br />We'll give you one practice question with feedback to make sure  you unde rstand the new operation. After that, try to complete the remaining questions as accurately as possible.","orientation_history":[0],"rt":1750,"trial_type":"polygon-arrow-instructions","trial_index":0,"trial_index_global":45,"time_elapsed":1386529,"internal_chunk_id":"0-0"},{"nsides":9,"question":"Practice: What is 5 <img src=./images/nonagon_symbol.png style=width:14px;height:14px> 5?","response_type":"free","response_choices":[],"correct_response":"1","response":"1","explain":false,"explanation":"","explanation_history":[],"orientation_history":[[0]],"response_history":["1"],"rt":9919,"trial_type":"polygon-arrow-question","trial_index":0,"trial_index_global":46,"time_elapsed":1396448,"internal_chunk_id":"0-0.12-0"},{"nsides":9,"feedback":"Correct! 5 <img src=./images/nonagon_symbol.png style=width:14px;height:14px> 5 = 1 because 5 steps clockwise on the nonagon from 5 brings us to 1","orientation_history":[0],"rt":602,"trial_type":"polygon-arrow-feedback","trial_index":0,"trial_index_global":47,"time_elapsed":1397051,"internal_chunk_id":"0-0.12-0"},{"nsides":9,"question":"What is 3 <img src=./images/nonagon_symbol.png style=width:14px;height:14px> 3?","response_type":"free","response_choices":[],"correct_response":"6","response":"6","explain":false,"explanation":"","explanation_history":[],"orientation_history":[[0]],"response_history":["6"],"rt":2790,"trial_type":"polygon-arrow-question","trial_index":0,"trial_index_global":48,"time_elapsed":1399841,"internal_chunk_id":"0-0.12-0"},{"nsides":9,"question":"What is 7 <img src=./images/nonagon_symbol.png style=width:14px;height:14px> 4?","response_type":"free","response_choices":[],"correct_response":"2","response":"2","explain":false,"explanation":"","explanation_history":[],"orientation_history":[[0]],"response_history":["11","2"],"rt":6037,"trial_type":"polygon-arrow-question","trial_index":0,"trial_index_global":49,"time_elapsed":1405879,"internal_chunk_id":"0-0.12-0"},{"nsides":9,"question":"What is 1 <img src=./images/nonagon_symbol.png style=width:14px;height:14px> 8?","response_type":"free","response_choices":[],"correct_response":"0","response":"0","explain":false,"explanation":"","explanation_history":[],"orientation_history":[[0]],"response_history":["0"],"rt":5912,"trial_type":"polygon-arrow-question","trial_index":0,"trial_index_global":50,"time_elapsed":1411791,"internal_chunk_id":"0-0.12-0"},{"nsides":9,"question":"What is 5 <img src=./images/nonagon_symbol.png style=width:14px;height:14px> 4?","response_type":"free","response_choices":[],"correct_response":"0","response":"0","explain":false,"explanation":"","explanation_history":[],"orientation_history":[[0]],"response_history":["0"],"rt":2873,"trial_type":"polygon-arrow-question","trial_index":0,"trial_index_global":51,"time_elapsed":1414665,"internal_chunk_id":"0-0.12-0"},{"nsides":9,"question":"What is 6 <img src=./images/nonagon_symbol.png style=width:14px;he ight:14p x> 6?","response_type":"free","response_choices":[],"correct_response":"3","response":"3","explain":false,"explanation":"","explanation_history":[],"orientation_history":[[0]],"response_history":["3"],"rt":5470,"trial_type":"polygon-arrow-question","trial_index":0,"trial_index_global":52,"time_elapsed":1420136,"internal_chunk_id":"0-0.12-0"},{"nsides":9,"instructions":"On the following question, and several others later in the HIT, we will ask you to explain how you got your answer. On these questions, you will be given one box for your answer to the question, and a second for your explanation. Please explain your thought process in as much detail as possible (at least one sentence, and more if you can).","orientation_history":[0],"rt":2676,"trial_type":"polygon-arrow-instructions","trial_index":0,"trial_index_global":53,"time_elapsed":1422813,"internal_chunk_id":"0-0.12-0"},{"nsides":9,"question":"What is 4 <img src=./images/nonagon_symbol.png style=width:14px;heigh t:14px > 1? Please explain in words how you got your answer.","response_type":"free","response_choices":[],"correct_response":"5","response":"5","explain":true,"explanation":"1 clockwise from 4 is 5","explanation_history":["1 clockwise from 5 ","1 clockwise from 5","1 clockwise from 4 is 5"],"orientation_history":[[0]],"response_history":["5"],"rt":13562,"trial_type":"polygon-arrow-question","trial_index":0,"trial_index_global":54,"time_elapsed":1436376,"internal_chunk_id":"0-0.12-0"},{"nsides":9,"question":"What is 8 <img src=./images/nonagon_symbol.png style=width:14px;height:14px> 4? Please explain in words how you got your answer.","response_type":"free","response_choices":[],"correct_response":"3","response":"3","explain":true,"explanation":"4 clockwise from 8 is 3","explanation_history":["4 clockwise from 8 is 3"],"orientation_history":[[0]],"response_history":["3"],"rt":16184,"trial_type":"polygon-arrow-question","trial_index":0,"trial_index_global":55,"time_elapsed":1452561,"internal_chunk_id":"0-0.12-0"},{"nsides":9,"question":"What is the identity under <img src=./images/nonagon_symbol.png style=width:14px;height:14px>? Please explain in words how you got your answer.","response_type":"free","response_choices":[],"correct_response":"0","response":"0","explain":true,"explanation":"im not sure","explanation_history":["im not sure"],"orientation_history":[[0]],"response_history":["9","0"],"rt":42920,"trial_type":"polygon-arrow-question","trial_index":0,"trial_index_global":56,"time_elapsed":1495482,"internal_chunk_id":"0-0.12-0"},{"nsides":9,"question":"What is the inverse of 5 under <img src=./images/nonagon_symbol.png style=width:14px;height:14px>?","response_type":"free","response_choices":[],"correct_response":"4","response":"4","explain":false,"explanation":"","explanation_history":[],"orientation_history":[[0]],"response_history":["4"],"rt":10554,"trial_type":"polygon-arrow-question","trial_index":0,"trial_index_global":57,"time_elapsed":1506036,"internal_chunk_id":"0-0.12-0"},{"nsides":9,"question":"What is the inverse of 2 under <img src=./images/nonagon_symbol.png style=width:14px;height:14px>?","response_type":"free","response_choices":[],"correct_response":"7","response":"7","explain":false,"explanation":"","explanation_history":[],"orientation_history":[[0]],"response_history":["7"],"rt":2108,"trial_type":"polygon-arrow-question","trial_index":0,"trial_index_global":58,"time_elapsed":1508145,"internal_chunk_id":"0-0.12-0"},{"nsides":9,"question":"What is the inverse of 0 under <img src=./images/nonagon_symbol.png style=width:14px;height:14px>?","response_type":"free","response_choices":[],"correct_response":"0","response":"0","explain":false,"explanation":"","explanation_history":[],"orientation_history":[[0]],"response_history":["0"],"rt":3124,"trial_type":"polygon-arrow-question","trial_index":0,"trial_index_global":59,"time_elapsed":1511270,"internal_chunk_id":"0-0.12-0"},{"nsides":9,"question":"What is the inverse of 3 under <img src=./images/nonagon_symbol.png style=width:14px;height:14px>? Please explain in words how you got your answer.","response_type":"free","response_choices":[],"correct_response":"6","response":"6","explain":true,"explanation":"6 clockwise from 3 is 0","explanation_history":["6  clockwise from ","6 clockwise from 3 is 0"],"orientation_history":[[0]],"response_history":["6"],"rt":15832,"trial_type":"polygon-arrow-question","trial_index":0,"trial_index_global":60,"time_elapsed":1527102,"internal_chunk_id":"0-0.12-0"},{"nsides":9,"question":"Is 2 a generator under <img src=./images/nonagon_symbol.png style=width:14px;height:14px>? Please explain in words how you got your answer.","response_type":"multi","response_choices":["Yes","No"],"correct_response":"Yes","response":"No","explain":true,"explanation":"2 is an even number while there are 9 numbers","explanation_history":["2 would not ","2 wo","2 w","2 is even even  nu","2  is ev","2 is e","2 is an even number while there are 9 possibilities","2 is an even number while there are 9 numbers"],"orientation_history":[[0]],"response_history":["No"],"rt":27525,"trial_type":"polygon-arrow-question","trial_index":0,"trial_index_global":61,"time_elapsed":1554627,"internal_chunk_id":"0-0.12-0"},{"nsides":9,"question":"Is 3 a generator under <img src=./images/nonagon_symbol.png style=width:14px;height:14px>? Please explain in words how you got your answer.","response_type":"multi","response_choices":["Yes","No"],"correct_response":"No","response":"Yes","explain":true,"explanation":"3 makes all possible numbers","explanation_history":["3 makes all pp","3 makes all possible ub","3 makes all possible u","3 makes all possible numbers"],"orientation_history":[[0]],"response_history":["Yes"],"rt":10865,"trial_type":"polygon-arrow-question","trial_index":0,"trial_index_global":62,"time_elapsed":1565493,"internal_chunk_id":"0-0.12-0"},{"nsides":9,"question":"Is 5  a generator under <img src=./images/nonagon_symbol.png style=width:14px;height:14px>? Please explain in words how you got your answer.","response_type":"multi","response_choices":["Yes","No"],"correct_response":"Yes","response":"No","explain":true,"explanation":"5 does not make all possible numbers","explanation_history":["5 i","5 does not make all possible numbers"],"orientation_history":[[0]],"response_history":["No"],"rt":7403,"trial_type":"polygon-arrow-question","trial_index":0,"trial_index_global":63,"time_elapsed":1572898,"internal_chunk_id":"0-0.12-0"},{"nsides":9,"question":"Is 6 a generator under <img src=./images/nonagon_symbol.png style=width:14px;height:14px>? Please explain in words how you got your answer.","response_type":"multi","response_choices":["Yes","No"],"correct_response":"No","response":"No","explain":true,"explanation":"6 is an even number","explanation_history":["6 is an even number"],"orientation_history":[[0]],"response_history":["No"],"rt":6273,"trial_type":"polygon-arrow-question","trial_index":0,"trial_index_global":64,"time_elapsed":1579172,"internal_chunk_id":"0-0.12-0"},{"nsides":"n","instructions":"Now we'd like to ask you some questions about <img src=./images/ngon_symbol.png style=width:14px;height:14px>, where n could be any positive counting number. For example, n could be 3, and the polygon a triangle, or n could be any other counting number you can think of. If you need to write the operation, you can use (n), and your answers can include n to stand in for the arbitrary value if necessary. (You can use the polygon at the right to think, but it doesn't necessarily correspond to the real polygon, which is why we've left most of it dashed.)","orientation_history":[0],"rt":14881,"trial_type":"polygon-arrow-instructions","trial_index":0,"trial_index_global":65,"time_elapsed":1594054,"internal_chunk_id":"0-0"},{"nsides":"n","question":"What is the formula for the inverse of 1 under <img s rc=./i mages/ngon_symbol.png style=width:14px;height:14px>?","response_type":"free","response_choices":[],"correct_response":"n-1","response":"8","explain":false,"explanation":"","explanation_history":[],"orientation_history":[[0],[0,0,0,0,0,0,0,0,0,0,-6.126406969991179,-5.973500307582038,-5.873085234655431,-5.792644981263976,-5.735460136975955,-5.7231445101665415,-5.7231445101665415,-5.7231445101665415,-5.7231445101665415,-5.7231445101665415,-5.7231445101665415,-5.6755705278979764,-5.634081434850137,-5.626338226775866,-5.626338226775866,-5.626338226775866,-5.626338226775866,-5.626338226775866,-5.626338226775866,-5.626338226775866,-5.626338226775866,-5.626338226775866,-5.626338226775866,-5.626338226775866,-5.626338226775866,-5.626338226775866,-5.626338226775866,-5.626338226775866,-5.626338226775866,-5.626338226775866,-5.626338226775866,-5.626338226775866,-5.626338226775866,-5.599103191895565,-5.542325914968372,-5.46197494091387,-5.410023448669039,-5.333933452963533,-5.288299879659351,-5.232997081893685,-5.2199491865771765,-5.198771962672029,-5.198771962672029,-5.164384574370493,-5.1436132467438505,-5.1436132467438505,-5.1436132467438505,-5.1436132467438505,-5.1436132467438505,-5.1436132467438505,-5.1436132467438505,-5.1436132467438505,-5.1436132467438505,-5.1436132467438505,-5.1436132467438505,-5.1436132467438505,-5.1436132467438505,-5.1436132467438505,-5.1436132467438505,-5.082970125109577,-5.069179455223694,-5.069179455223694,-5.069179455223694,-5.069179455223694,-5.069179455223694,-5.069179455223694,-5.069179455223694,-5.069179455223694,-5.069179455223694,-5.055224744549186,-5.055224744549186,-5.055224744549186,-5.055224744549186,-5.055224744549186,-5.055224744549186,-5.055224744549186,-5.055224744549186,-5.055224744549186,-5.055224744549186,-5.055224744549186,-5.055224744549186,-5.055224744549186,-5.055224744549186,-5.055224744549186,-5.055224744549186,-5.055224744549186,-5.055224744549186,-5.055224744549186,-5.055224744549186,-5.055224744549186,-5.055224744549186,-5.055224744549186,-5.055224744549186,-5.055224744549186,-5.055224744549186,-5.055224744549186,-5.0356015220438035,-4.99736394107431,-4.992626681076941,-4.978759424104697,-4.978759424104697,-4.978759424104697,-4.978759424104697,-4.978759424104697,-4.978759424104697,-4.978759424104697,-4.978759424104697,-4.978759424104697,-4.978759424104697,-4.978759424104697,-4.978759424104697,-4.978759424104697,-4.978759424104697,-4.978759424104697,-4.978759424104697,-4.978759424104697,-4.978759424104697,-4.978759424104697,-4.978759424104697,-4.978759424104697,-4.978759424104697,-4.978759424104697,-4.978759424104697,-4.978759424104697,-4.978759424104697,-4.978759424104697,-4.978759424104697,-4.978759424104697,-4.978759424104697,-4.978759424104697,-4.978759424104697,-4.978759424104697,-4.936421064081584,-4.907623354945582,-4.878411617374654,-4.863663424220059,-4.833910302201394,-4.78872892178752,-4.743039755639956,-4.727728820252945,-4.63550833829971,-4.587068793400727,-4.432524683501277,-4.358870391247357,-4.288501206430357,-4.248043534790949,-4.2287580922527255,-4.215606538289545,-4.202620255369372,-4.202620255369372,-4.202620255369372,-4.202620255369372,-4.202620255369372,-4.202620255369372,-4.202620255369372,-4.189800444896472,-4.17714805885865,-4.17714805885865,-4.17714805885865,-4.17714805885865,-4.17714805885865,-4.17714805885865,-4.17714805885865,-4.17714805885865,-4.17714805885865,-4.17714805885865,-4.17714805885865,-4.17714805885865,-4.17714805885865,-4.17714805885865,-4.17714805885865,-4.17714805885865,-4.17714805885865,-4.17714805885865,-4.17714805885865,-4.17714805885865,-4.17714805885865,-4.17714805885865,-4.17714805885865,-4.17714805885865,-4.17714805885865,-4.17714805885865,-4.17714805885865,-4.17714805885865,-4.17714805885865,-4.17714805885865,-4.17714805885865,-4.17714805885865,-4.17714805885865,-4.164663810181058,-4.116414681693593,-4.03646452894976,-4.017272305373678,-3.9384981284502043,-3.9094333588114902,-3.8620040149510593,-3.8253711957270133,-3.7495542619896423,-3.679915437284633,-3.627195604834087,-3.581714170662787,-3.5479464271373486,-3.5200329179396395,-3.503620641330371,-3.4874190630437947,-3.4874190630437947,-3.4874190630437947,-3.4874190630437947,-3.4874190630437947,-3.4874190630437947,-3.4874190630437947,-3.4874190630437947,-3.4874190630437947,-3.4874190630437947,-3.4874190630437947,-3.4874190630437947,-3.4874190630437947,-3.4874190630437947,-3.4874190630437947,-3.4874190630437947,-3.4874190630437947,-3.4874190630437947,-3.4874190630437947,-3.4874190630437947,-3.4874190630437947,-3.4874190630437947,-3.4874190630437947,-3.4874190630437947,-3.4874190630437947,-3.4874190630437947,-3.4874190630437947,-3.4874190630437947,-3.475977914687647,-3.0688111892006837,-2.5491115131263027,-2.501257833774848,-2.437203569740557,-2.3663519104665953,-2.3100733741778336,-2.3100733741778336,-2.3100733741778336,-2.290468043320629,-2.2361343365198927,-2.2361343365198927,-2.2361343365198927,-2.2361343365198927,-2.2361343365198927,-2.2361343365198927,-2.2361343365198927,-2.2361343365198927,-2.2361343365198927,-2.2361343365198927,-2.2361343365198927,-2.2361343365198927,-2.2361343365198927,-2.2361343365198927,-2.2361343365198927,-2.2361343365198927,-2.2361343365198927,-2.2361343365198927,-2.2361343365198927,-2.2361343365198927,-2.2361343365198927,-2.2361343365198927,-2.1514181119914326,-2.128424544177822,-2.0769787016486294,-1.9930176209686863,-1.9252995976497074,-1.8847345401314382,-1.85346790228534,-1.8215198841567881,-1.7889352306937152,-1.7668837978900056,-1.744589486023009,-1.7220707706302658,-1.6993474097886248,-1.6764403661080882,-1.6533717120583997,-1.6301645193054757,-1.6185164234097211,-1.5951465553591806,-1.5482002817656024,-1.4889760981010616,-1.4166634860803393,-1.3693109569288522,-1.3319744521179997,-1.320254005403239,-1.320254005403239,-1.320254005403239,-1.320254005403239,-1.320254005403239,-1.320254005403239,-1.320254005403239,-1.320254005403239,-1.320254005403239,-1.320254005403239,-1.320254005403239,-1.320254005403239,-1.320254005403239,-1.2736725241373508,-1.1565444394552218,-1.0091262033214061,-0.9324885312307432,-0.9324885312307432,-0.6332926893933379,-0.5826751704009219,-0.5657813184201554,-0.5379599390082959,-0.530254104576672,-0.530254104576672,-0.530254104576672,-0.530254104576672,-0.530254104576672,-0.530254104576672,-0.530254104576672,-0.530254104576672,-0.530254104576672,-0.530254104576672,-0.530254104576672,-0.530254104576672,-0.530254104576672,-0.530254104576672,-0.530254104576672,-0.530254104576672,-0.530254104576672,-0.530254104576672,-0.530254104576672,-0.530254104576672,-0.5110032741448851,-0.40533197553804357,-0.3220096553106524,-0.28382597613204386,-0.2356507512588415,-0.13922683398118352,-0.05936819251057912,-0.021192759778194237,0.01316601840021292,-6.237064191165075,-6.215790805141014,-6.205495734677297,-6.18556338021385,-6.175916028515774,-6.165756726379785,-6.166474601346201,-6.166474601346201,-6.166474601346201,-6.166474601346201,-6.166474601346201,-6.166474601346201,-6.166474601346201,-6.166474601346201,-6.166474601346201,-6.166474601346201,-6.166474601346201,-6.166474601346201,-6.166474601346201,-6.166474601346201,-6.166474601346201,-6.166474601346201,-6.166474601346201,-6.166474601346201,-6.166474601346201,-6.166474601346201,-6.165756726379785,-6.18556338021385]],"response_history":["8"],"rt":15947,"trial_type":"polygon-arrow-question","trial_index":0,"trial_index_global":66,"time_elapsed":1610002,"internal_chunk_id":"0-0.14-0"},{"nsides":"n","question":"What is the formula for the inverse of an element x under <img src=./images/ngon_symbol.png style=width:14px;height:14px>? Please explain in words why your answer is correct.","response_type":"free","response_choices":[],"correct_response":"n-x","response":"x + x = 10","explain":true,"explanation":"not sure","explanation_history":["not sure"],"orientation_history":[[0],[0,0,0,0.05408669512563602,-6.171775940319723,-6.171775940319723,-6.171775940319723,-6.171775940319723,-6.171775940319723,-6.0527386302933515,-5.994619182698545,-5.916114479673817,-5.825701678907117,-5.686920957705093,-5.567839685012704,-5.514020497578259,-5.4689459742457736,-5.412363262702805,-5.30811319579963,-5.203473956137894,-5.0938237839689835,-5.0938237839689835,-5.0938237839689835,-5.0938237839689835,-4.880288682496115,-4.864434058383043,-4.848450591667429,-4.848450591667429,-4.832344968256734,-4.832344968256734,-4.832344968256734,-4.832344968256734,-4.832344968256734,-4.832344968256734,-4.799795761490025,-4.750242637068057,-4.73356338100942,-4.73356338100942,-4.73356338100942,-4.73356338100942,-4.73356338100942,-4.73356338100942,-4.73356338100942,-4.73356338100942,-4.73356338100942,-4.73356338100942,-4.73356338100942,-4.73356338100942,-4.73356338100942,-4.716817855855994,-4.700015108103324,-4.615471352590326,-4.532330120701885,-4.482919820293652,-4.418075792740446,-4.3862394193133305,-4.3862394193133305,-4.370492689463462,-4.354868960842985,-4.33937433319489,-4.324014558112459,-4.324014558112459,-4.324014558112459,-4.324014558112459,-4.324014558112459,-4.324014558112459,-4.324014558112459,-4.324014558112459,-4.324014558112459,-4.324014558112459,-4.324014558112459,-4.324014558112459,-4.324014558112459,-4.324014558112459,-4.324014558112459,-4.324014558112459,-4.324014558112459,-4.324014558112459,-4.324014558112459,-4.324014558112459,-4.324014558112459,-4.324014558112459,-4.324014558112459,-4.324014558112459,-4.324014558112459,-4.324014558112459,-4.324014558112459,-4.324014558112459,-4.324014558112459,-4.324014558112459,-4.324014558112459,-4.324014558112459,-4.324014558112459,-4.324014558112459,-4.324014558112459,-4.324014558112459,-4.324014558112459,-4.324014558112459,-4.324014558112459,-4.324014558112459,-4.324014558112459,-4.324014558112459,-4.324014558112459,-4.324014558112459,-4.324014558112459,-4.324014558112459,-4.324014558112459,-4.324014558112459,-4.324014558112459,-4.324014558112459,-4.324014558112459,-4.324014558112459,-4.324014558112459,-4.324014558112459,-4.324014558112459,-4.324014558112459,-4.324014558112459,-4.324014558112459,-4.324014558112459,-4.324014558112459,-4.324014558112459,-4.324014558112459,-4.324014558112459,-4.324014558112459,-4.324014558112459,-4.324014558112459,-4.324014558112459,-4.324014558112459,-4.324014558112459,-4.324014558112459,-4.324014558112459,-4.324014558112459,-4.324014558112459,-4.324014558112459,-4.324014558112459,-4.324014558112459,-4.324014558112459,-4.308795033188643,-4.293720798193684,-4.278796533203598,-4.278796533203598,-4.278796533203598,-4.278796533203598,-4.278796533203598,-4.2640265585867745,-4.2640265585867745,-4.2640265585867745,-4.2640265585867745,-4.2640265585867745,-4.2640265585867745,-4.220680232890564,-4.206563523639401,-4.192617426457385,-4.1788441927767845,-4.165245756329611,-4.15182374358952,-4.138579484924791,-4.125514026336598,-4.125514026336598,-4.112628141662466,-4.099922345131347,-4.087396904163967,-4.087396904163967,-4.075051852319742,-4.062887002299612,-4.050901958922227,-4.039096131999143,-4.016018867748588,-4.004745388201117,-3.982722517588143,-3.9509759534955693,-3.9407304103667737,-3.9109772883481084,-3.8919410350572576,-3.8651465197261032,-3.8473128603874076,-3.830073189192878,-3.821670025645231,-3.813408065478937,-3.805284879155578,-3.789445151511505,-3.7656463497673243,-3.7581972196365427,-3.750874118223426,-3.7422992968656574,-3.7422992968656574,-3.7264457291960063,-3.7264457291960063,-3.7106442631745393,-3.7106442631745393,-3.7106442631745393,-3.7106442631745393,-3.7037650721296376,-3.7037650721296376,-3.7037650721296376,-3.7037650721296376,-3.7037650721296376,-3.7037650721296376,-3.7037650721296376,-3.7037650721296376,-3.7037650721296376,-3.7037650721296376,-3.7037650721296376,-3.7037650721296376,-3.7037650721296376,-3.7037650721296376,-3.7037650721296376,-3.7037650721296376,-3.7037650721296376,-3.7037650721296376,-3.7037650721296376,-3.7037650721296376,-3.7037650721296376,-3.7037650721296376,-3.7037650721296376,-3.6970059271843208,-3.6636274956443344,-3.6263285083090206,-3.6069598281379767,-3.597093950115775,-3.5769975370282756,-3.566766639623717,-3.545939290667012,-3.524625538114898,-3.5083226347962357,-3.4974534976189657,-3.4753675371819375,-3.4479565075142657,-3.4251814029077945,-3.39766541362234,-3.3860309110492763,-3.374299433216172,-3.338544360827897,-3.3142641037163556,-3.2743174680805645,-3.237070627311352,-3.211928963257691,-3.18477675019206,-3.1595516312123286,-3.1341788441470397,-3.10788185769289,-3.0826314709837437,-3.0826314709837437,-3.069986074938278,-3.0571743748147915,-3.0571743748147915,-3.0446750257954296,-3.0321756767760677,-3.01998868373983,-3.01998868373983,-3.008105969881888,-2.9965195127355138,-2.9965195127355138,-2.98450677464042,-2.98450677464042,-2.98450677464042,-2.98450677464042,-2.98450677464042,-2.98450677464042,-2.98450677464042,-2.98450677464042,-2.98450677464042,-2.98450677464042,-2.98450677464042,-2.98450677464042,-2.98450677464042,-2.98450677464042,-2.98450677464042,-2.98450677464042,-2.98450677464042,-2.98450677464042,-2.98450677464042,-2.98450677464042,-2.98450677464042,-2.98450677464042,-2.98450677464042,-2.98450677464042,-2.98450677464042,-2.98450677464042,-2.98450677464042,-2.98450677464042,-2.98450677464042,-2.98450677464042,-2.98450677464042,-2.98450677464042,-2.98450677464042,-2.98450677464042,-2.972511396835772,-2.8426498693918374,-2.8311145923149414,-2.8311145923149414,-2.8311145923149414,-2.8311145923149414,-2.805443425831769,-2.7910009296567866,-2.764725203271638,-2.7532182313175624,-2.7381904609455674,-2.7381904609455674,-2.7114307246837566,-2.6731571706487207,-2.661931515949854,-2.657381422589353,-2.6301681512106434,-2.6139825144089217,-2.5810274167946234,-2.547332309448607,-2.5193081519801135,-2.502095701669439,-2.4847352286810414,-2.4496054020898885,-2.4214756958613637,-2.403718440772625,-2.367938078238569,-2.340180961553212,-2.3318763161284757,-2.3318763161284757,-2.3318763161284757,-2.3318763161284757,-2.3318763161284757,-2.3318763161284757,-2.3318763161284757,-2.3318763161284757,-2.3318763161284757,-2.3318763161284757,-2.3318763161284757,-2.3318763161284757,-2.3318763161284757,-2.3318763161284757,-2.3318763161284757,-2.3318763161284757,-2.3318763161284757,-2.3318763161284757,-2.3318763161284757,-2.3318763161284757,-2.3318763161284757,-2.3318763161284757,-2.3318763161284757,-2.3318763161284757,-2.3318763161284757,-2.3318763161284757,-2.3318763161284757,-2.3318763161284757,-2.3318763161284757,-2.3318763161284757,-2.3318763161284757,-2.3318763161284757,-2.295624483417002,-2.2502680971075644,-2.1783727632427503,-2.1525411897488453,-2.124955420445012,-2.0970780289345985,-2.086698901165774,-2.058322598709884,-2.0121004006120113,-1.9834709638094585,-1.9317124200194975,-1.8855500424324276,-1.8401342594313093,-1.8281381216791992,-1.816034584083713,-1.8038257911470872,-1.8038257911470872,-1.8038257911470872,-1.8038257911470872,-1.8038257911470872,-1.8038257911470872,-1.8038257911470872,-1.791514050290063,-1.7791018327944546,-1.7791018327944546,-1.7791018327944546,-1.7791018327944546,-1.7791018327944546,-1.7791018327944546,-1.7791018327944546,-1.7665917742245298,-1.7665917742245298,-1.7665917742245298,-1.7665917742245298,-1.7539866742985861,-1.7539866742985861,-1.7539866742985861,-1.7539866742985861,-1.7539866742985861,-1.7539866742985861,-1.7539866742985861,-1.7539866742985861,-1.7539866742985861,-1.7539866742985861,-1.7539866742985861,-1.7539866742985861,-1.7539866742985861,-1.7539866742985861,-1.7539866742985861,-1.7539866742985861,-1.7539866742985861,-1.7539866742985861,-1.7539866742985861,-1.7539866742985861,-1.7539866742985861,-1.7539866742985861,-1.5707963267948966,-1.487962274823393,-1.4159724937524256,-1.3441761618446204,-1.3016878844775945,-1.2567673842656282,-1.2427880318046363,-1.2151078070368353,-1.2014155495967414,-1.1878272572832156,-1.1743467099306102,-1.1477228867570801,-1.1299095792771716,-1.1167446884797396,-1.103707871158317,-1.0780282576631173,-1.0780282576631173,-1.0528881247482875,-1.0405248499185022,-1.028301412025952,-1.028301412025952,-1.0162190423836401,-1.0162190423836401,-1.0162190423836401,-1.0162190423836401,-1.0162190423836401,-1.0162190423836401,-1.0162190423836401,-1.0162190423836401,-1.0162190423836401,-1.0162190423836401,-1.0162190423836401,-1.0162190423836401,-1.0162190423836401,-1.0162190423836401,-1.0162190423836401,-1.0162190423836401,-1.0162190423836401,-1.0162190423836401,-1.0162190423836401,-1.0162190423836401,-1.0162190423836401,-1.0162190423836401,-1.0162190423836401,-1.0162190423836401,-1.0162190423836401,-1.0102310899997269,-0.9123850357334344,-0.8858760954529661,-0.8552343480757862,-0.8140302727116104,-0.7652524268728627,-0.726198488069949,-0.6884805356030848,-0.6349602671437697,-0.626612689738705,-0.6090022909948782,-0.6009851948006935,-0.6009851948006935,-0.5759149197994002,-0.5662853649117299,-0.5662853649117299,-0.5662853649117299,-0.5662853649117299,-0.5662853649117299,-0.5662853649117299,-0.5662853649117299,-0.5662853649117299,-0.5662853649117299,-0.5662853649117299,-0.5662853649117299,-0.5662853649117299,-0.5662853649117299,-0.4910849757532034,-0.3899816040169055,-0.32533352565690876,-0.27607009400569726,-0.26344034273042993,-0.26344034273042993,-0.26344034273042993,-0.25871825650639657,-0.22905231084528221,-0.1868764814139645,-0.17049316938950998,-0.1670460958313411,-0.1511958213023128,-0.13563931401054585,-0.12037580312865792,-0.10540400058394006,-0.10291101727862717,-0.10291101727862717,-0.10047793205551692,-0.10047793205551692,-0.10047793205551692,-0.10047793205551692,-0.10047793205551692,-0.10047793205551692,-0.10047793205551692,-0.10047793205551692,-0.10047793205551692,-0.10047793205551692,-0.10047793205551692,-0.10047793205551692,-0.10047793205551692,-0.10047793205551692]],"response_history":["x = 0","x = 9","x = 10","=x = 10","=xx = 10","=x = 10","x = 10","x  = 10","x + = 10","x +  = 10","x + x = 10"],"rt":76243,"trial_type":"polygon-arrow-question","trial_index":0,"trial_index_global":67,"time_elapsed":1686246,"internal_chunk_id":"0-0.14-0"},{"nsides":"n","question":"Is there a pattern to which elements are generators? How can you know if an element x is a generator under <img src=./images/ngon_symbol.png style=width:14px;height:14px> without seeing whether it can make all the elements?.","response_type":"free","response_choices":[],"correct_response":"","response":"im not sure","explain":false,"explanation":"","explanation_history":[],"orientation_history":[[0]],"response_history":["im not sure"],"rt":7720,"trial_type":"polygon-arrow-question","trial_index":0,"trial_index_global":68,"time_elapsed":1693972,"internal_chunk_id":"0-0.14-0"},{"nsides":"n","question":"True or false: If x is an odd number, it must be a generator under <img src=./images/ngon_symbol.png style=width:14px;height:14px>.","response_type":"multi","response_choices":["True","False"],"correct_response":"False","response":"True","explain":false,"explanation":"","explanation_history":[],"orientation_history":[[0]],"response_history":["True"],"rt":3359,"trial_type":"polygon-arrow-question","trial_index":0,"trial_index_global":69,"time_elapsed":1697331,"internal_chunk_id":"0-0.14-0"},{"nsides":"n","question":"True or false: If x is an even number, it must not be a generator under <img src=./images/ngon_symbol.png style=width:14px;height:14px>.","response_type":"multi","response_choices":["True","False"],"correct_response":"False","response":"False","explain":false,"explanation":"","explanation_history":[],"orientation_history":[[0]],"response_history":["True","False"],"rt":4446,"trial_type":"polygon-arrow-question","trial_index":0,"trial_index_global":70,"time_elapsed":1701778,"internal_chunk_id":"0-0.14-0"},{"nsides":"n","question":"True or false: If x is not a generator under <img src=./images/ngon_symbol.png style=width:14px;height:14px>, x must be a divisor of n, that is, x must divide n evenly, with no remainder.","response_type":"mu lti","response_choices":["True","False"],"correct_response":"False","response":"False","explain":false,"explanation":"","explanation_history":[],"orientation_history":[[0]],"response_history":["False"],"rt":5882,"trial_type":"polygon-arrow-question","trial_index":0,"trial_index_global":71,"time_elapsed":1707660,"internal_chunk_id":"0-0.14-0"},{"nsides":"n","question":"True or false: If x is not a generator under <img src=./images/ngon_symbol.png style=width:14px;height:14px>, x must be a multiple of a divisor of n. Please explain in words how you got your answer.","response_type":"multi","response_choices":["True","False"],"correct_response":"True","response":"False","explain":true,"explanation":"one does not guarantee the other","explanation_history":["one does not guarantee the other"],"orientation_history":[[0]],"response_history":["True","False"],"rt":24718,"trial_type":"polygon-arrow-question","trial_index":0,"trial_index_global":72,"time_elapsed":1732379,"internal_chunk_id":"0 -0.14-0"},{"nsides":"n","question":"If an element x is a generator under <img src=./images/ngon_symbol.png style=width:14px;height:14px>, is its inverse a generator under <img src=./images/ngon_symbol.png style=width:14px;height:14px> always, sometimes, or never?","response_type":"multi","response_choices":["Always","Sometimes","Never"],"correct_response":"Always","response":"Sometimes","explain":false,"explanation":"","explanation_history":[],"orientation_history":[[0]],"response_history":["Sometimes"],"rt":2474,"trial_type":"polygon-arrow-question","trial_index":0,"trial_index_global":73,"time_elapsed":1734854,"internal_chunk_id":"0-0.14-0"},{"nsides":"n","question":"If an element x is a generator under <img src=./images/ngon_symbol.png style=width:14px;height:14px>, is x <img src=./images/ngon_symbol.png style=width:14px;height:14px> x a generator under <img src=./images/ngon_symbol.png style=width:14px;height:14px> always, sometime s, or ne ver? Please explain in words how you got your answer.","response_type":"multi","response_choices":["Always","Sometimes","Never"],"correct_response":"Sometimes","response":"Sometimes","explain":true,"explanation":"the rule only works sometimes","explanation_history":["the rule only works o","the rule only works sometimes"],"orientation_history":[[0]],"response_history":["Sometimes"],"rt":15826,"trial_type":"polygon-arrow-question","trial_index":0,"trial_index_global":74,"time_elapsed":1750681,"internal_chunk_id":"0-0.14-0"},{"nsides":"n","question":"If an element x is not a generator under <img src=./images/ngon_symbol.png style=width:14px;height:14px>, is x <img src=./images/ngon_symbol.png style=width:14px;height:14px> x a generator under <img src=./images/ngon_symbol.png style=width:14px;height:14px> always, sometimes, or never?","response_type":"multi","response_choices":["Always","Sometimes","Never"],"correct_response":"Never","response":"Sometime s","explain":false,"explanation":"","explanation_history":[],"orientation_history":[[0]],"response_history":["Sometimes"],"rt":2765,"trial_type":"polygon-arrow-question","trial_index":0,"trial_index_global":75,"time_elapsed":1753447,"internal_chunk_id":"0-0.14-0"},{"instructions":"We would like to ask you some questions about your background. Please press Continue to continue.","rt":1102,"trial_type":"instructions","trial_index":0,"trial_index_global":76,"time_elapsed":1754549,"internal_chunk_id":"0-0.15-0"},{"question":"What is your age?","response_type":"free","response_choices":[],"correct_response":"","response":"27","explain":false,"explanation":"","explanation_history":[],"response_history":["27"],"rt":2326,"trial_type":"question","trial_index":0,"trial_index_global":77,"time_elapsed":1756877,"internal_chunk_id":"0-0.15-0"},{"question":"What is your level of education?","response_type":"multi","response_choices":["Did not graduate high school","High school diploma","Some c ollege,  no degree","Associates Degree","Bachelors Degree","Some graduate school, no degree","Masters Degree","Doctorate, M.D., etc."],"correct_response":"","response":"Bachelors Degree","explain":false,"explanation":"","explanation_history":[],"response_history":["Bachelors Degree"],"rt":554381,"trial_type":"question","trial_index":0,"trial_index_global":78,"time_elapsed":2311260,"internal_chunk_id":"0-0.15-0"},{"question":"What is the most advanced math class you've completed? If you have multiple classes and you're not sure which one is most advanced, please list them.","response_type":"free","response_choices":[],"correct_response":"","response":"geometrics","explain":false,"explanation":"","explanation_history":[],"response_history":["geometrics"],"rt":11427,"trial_type":"question","trial_index":0,"trial_index_global":79,"time_elapsed":2322692,"internal_chunk_id":"0-0.15-0"},{"question":"How familiar are you with the concept of modular arithmetic?","response_type":"multi","response_choices":["1 - never heard of it","2 - heard of it but didn't know what it was","3 - seen it used or explained","4 - used it but not often or recently","5 - used it, remember and understand it"],"correct_response":"1","response":"1 - never heard of it","explain":false,"explanation":"","explanation_history":[],"response_history":["1 - never heard of it"],"rt":3396,"trial_type":"question","trial_index":0,"trial_index_global":80,"time_elapsed":2326089,"internal_chunk_id":"0-0.15-0"},{"question":"How familiar are you with the concept of a mathematical group?","response_type":"multi","response_choices":["1 - never heard of it","2 - heard of it but didn't know what it was","3 - seen it used or explained","4 - used it but not often or recently","5 - used it, remember and understand it"],"correct_response":"1","response":"1 - never heard of it","explain":false,"explanation":"","explanation_history":[],"response_history":["1 - never heard of it"],"rt":5453,"trial_type":"question","trial_index":0,"trial_index_global":81,"time_elapsed":2331543,"internal_chunk_id":"0-0.15-0"},{"question":"Do you feel you learned something from this HIT?","response_type":"multi","response_choices":["1 - not at all","2 - somewhat","3 - definitely"],"correct_response":"1","response":"2 - somewhat","explain":false,"explanation":"","explanation_history":[],"response_history":["2 - somewhat"],"rt":2069,"trial_type":"question","trial_index":0,"trial_index_global":82,"time_elapsed":2333613,"internal_chunk_id":"0-0.15-0"},{"question":"Do you feel you understood the concepts in this HIT?","response_type":"multi","response_choices":["1 - not at all","2 - somewhat","3 - definitely"],"correct_response":"1","response":"2 - somewhat","explain":false,"explanation":"","explanation_history":[],"response_history":["2 - somewhat"],"rt":4257,"trial_type":"question","trial_index":0,"trial_index_global":83,"time_elapsed":2337871,"internal_chunk_id":"0-0.15-0"},{"question":"Did you enjoy this HIT?","response_type":" multi","response_choices":["1 - not at all","2 - somewhat","3 - definitely"],"correct_response":"1","response":"2 - somewhat","explain":false,"explanation":"","explanation_history":[],"response_history":["2 - somewhat"],"rt":2022,"trial_type":"question","trial_index":0,"trial_index_global":84,"time_elapsed":2339893,"internal_chunk_id":"0-0.15-0"},{"question":"What is your gender?","response_type":"multi","response_choices":["Female","Male","Other"],"correct_response":"","response":"Male","explain":false,"explanation":"","explanation_history":[],"response_history":["Male"],"rt":1953,"trial_type":"question","trial_index":0,"trial_index_global":85,"time_elapsed":2341847,"internal_chunk_id":"0-0.15-0"},{"question":"What is/are your native language(s)? (The languages spoken in your household when you were a child.)","response_type":"free","response_choices":[],"correct_response":"","response":"english","explain":false,"explanation":"","explanation_history":[],"response_history":["english "],"rt":4319,"trial_type":"question","trial_index":0,"trial_index_global":86,"time_elapsed":2346167,"internal_chunk_id":"0-0.15-0"},{"question":"Did you use pen and paper at any point on this HIT?","response_type":"free","response_choices":[],"correct_response":"","response":"no","explain":false,"explanation":"","explanation_history":[],"response_history":["no"],"rt":2327,"trial_type":"question","trial_index":0,"trial_index_global":87,"time_elapsed":2348495,"internal_chunk_id":"0-0.15-0"},{"question":"Do you have any comments on this HIT?","response_type":"free","response_choices":[],"correct_response":"","response":"no","explain":false,"explanation":"","explanation_history":[],"response_history":["no"],"rt":29381,"trial_type":"question","trial_index":0,"trial_index_global":88,"time_elapsed":2377877,"internal_chunk_id":"0-0.15-0"}]