[{"nsides":6,"instructions":"Let's define a new operation <img src=./images/hexagon_symbol.png style=width:14px;height:14px>. This operation will give us a way of combining two of the numbers 0, 1, 2, 3, 4, 5 to get another one of them back. To perform <img src=./images/hexagon_symbol.png style=width:14px;height:14px>, you can either use a method based on the hexagon at right, or a method based on arithmetic.<br /><b>Hexagon method:</b> you can use the interactive diagram on the right, or perform the operation in your mind. Point the arrow at the first number on the hexagon by clicking, then click (or click and drag) to move the arrow the second number of points clockwise around the hexagon. The number the arrow arrives at is your result. (The operation is called <img src=./images/hexagon_symbol.png style=width:14px;height:14px> because it uses the hexagon, which has 6 sides.) <br ><b>Arithmetic method:</b> you start with the first number, and then add  the sec ond one to it. If the sum is smaller than 6, that's your result. If the sum is 6 or bigger, you subtract 6 to get your result. <br /><br />For example, 3 <img src=./images/hexagon_symbol.png style=width:14px;height:14px> 5 = 2, because 5 steps clockwise from 3 on the hexagon brings us to 2. Equivalently, 3 + 5 = 8, and 8 is bigger than 6, so we subtract 6, and 8 - 6 = 2. So 3 <img src=./images/hexagon_symbol.png style=width:14px;height:14px> 5 = 2.<br /><br />Similarly, 1 <img src=./images/hexagon_symbol.png style=width:14px;height:14px> 4 = 5, because 1 + 4 = 5, and 5 is less than 6 so we leave it alone. Equivalently, 4 steps clockwise from 1 on the hexagon brings us to 5. <br /><br />Click Continue when you're ready to move on.","orientation_history":[0],"rt":446284,"trial_type":"polygon-arrow-instructions","trial_index":0,"trial_index_global":1,"time_elapsed":485727,"internal_chunk_id":"0-0"},{"nsides":6,"instructions":"Do you see how the diffe rent way s of performing <img src=./images/hexagon_symbol.png style=width:14px;height:14px> give the same result? By labeling the points of the hexagon with the numbers from 0 to 5, we ensure that when we combine two numbers using the hexagon, we only produce numbers between 0 and 5. When we use the arithmetic strategy, adding the second number to the first mimics counting around the hexagon, and subtracting 6 each time we get above 5 makes sure the results correspond to the numbers on the points of the hexagon. <br /><br />Click Continue when you're ready to move on.","orientation_history":[0],"rt":95527,"trial_type":"polygon-arrow-instructions","trial_index":0,"trial_index_global":2,"time_elapsed":581256,"internal_chunk_id":"0-0"},{"nsides":6,"question":"Now try one on your own! What is 4 <img src=./images/hexagon_symbol.png style=width:14px;height:14px> 5? <br /><br /> (Remember, to perform <img src=./images/hexagon_symbol.png style=width:14px;height:14px >, you  can either use a method based on the hexagon at right, or a method based on arithmetic.<br /><br /><b>Hexagon method:</b> you can use the interactive diagram on the right, or perform the operation in your mind. Point the arrow at the first number, then move the arrow the second number of points clockwise around the hexagon. The number the arrow arrives at is your result. <br /><br /><b>Arithmetic method:</b> you start with the first number, and then add the second one to it. If the sum is smaller than 6, that's your result. If the sum is 6 or bigger, you subtract 6 to get your result.)","response_type":"free","response_choices":[],"correct_response":"3","response":"3","explain":false,"explanation":"","explanation_history":[],"orientation_history":[[0]],"response_history":["3"],"rt":84756,"trial_type":"polygon-arrow-question","trial_index":0,"trial_index_global":3,"time_elapsed":666015,"internal_chunk_id":"0-0.3-0"},{"nsides":6,"feedback":"Correct! 4 <img src=./images/hexa gon_symb ol.png style=width:14px;height:14px> 5 = 3 because 5 steps clockwise on the hexagon from 4 brings us to 3. Equivalently, 4 + 5 = 9 and 9 - 6 = 3.","orientation_history":[0],"rt":5637,"trial_type":"polygon-arrow-feedback","trial_index":0,"trial_index_global":4,"time_elapsed":671654,"internal_chunk_id":"0-0.3-0"},{"nsides":6,"question":"What is 3 <img src=./images/hexagon_symbol.png style=width:14px;height:14px> 2? Try to solve this problem using the hexagon. <br /><br /> (Remember, to perform <img src=./images/hexagon_symbol.png style=width:14px;height:14px> on the hexagon, you can use the interactive diagram on the right, or perform the operation in your mind. Point the arrow at the first number on the hexagon, and then move the arrow the second number of points clockwise around the hexagon.)","response_type":"free","response_choices":[],"correct_response":"5","response":"5","explain":false,"explanation":"","explanation_history":[],"orientation_history":[[0]],"response_history":["5"],"rt":15927,"trial_type":"polygon-arrow-question","trial_index":0,"trial_index_global":5,"time_elapsed":687582,"internal_chunk_id":"0-0.3-0"},{"nsides":6,"feedback":"Correct! 3 <img src=./images/hexagon_symbol.png style=width:14px;height:14px> 2 = 5 because 2 steps clockwise on the hexagon from 3 brings us to 5. Equivalently, 3 + 2 = 5 and 5 is less than 6.","orientation_history":[0],"rt":2207,"trial_type":"polygon-arrow-feedback","trial_index":0,"trial_index_global":6,"time_elapsed":689790,"internal_chunk_id":"0-0.3-0"},{"nsides":6,"question":"What is 1 <img src=./images/hexagon_symbol.png style=width:14px;height:14px> 5? Try to solve this probem using the arithmetic technique. <br /><br /> (Remember, to perform <img src=./images/hexagon_symbol.png style=width:14px;height:14px> by arithmetic, you start with the first number, and then add the second one to it. If the sum is smaller than 6, that's your result. If the sum is 6 or  bigger,  you subtract 6 to get your result.)","response_type":"free","response_choices":[],"correct_response":"0","response":"0","explain":false,"explanation":"","explanation_history":[],"orientation_history":[[0]],"response_history":["0"],"rt":9654,"trial_type":"polygon-arrow-question","trial_index":0,"trial_index_global":7,"time_elapsed":699445,"internal_chunk_id":"0-0.3-0"},{"nsides":6,"feedback":"Correct! 1 <img src=./images/hexagon_symbol.png style=width:14px;height:14px> 5 = 0 because 1 + 5 = 6 and 6 - 6 = 0.  Equivalently, 5 steps clockwise on the hexagon from 1 brings us to 0.","orientation_history":[0],"rt":1328,"trial_type":"polygon-arrow-feedback","trial_index":0,"trial_index_global":8,"time_elapsed":700774,"internal_chunk_id":"0-0.3-0"},{"nsides":6,"question":"What is 1 <img src=./images/hexagon_symbol.png style=width:14px;height:14px> 1? Try to solve this problem using the hexagon. <br /><br /> (Remember, to perform <img src=./images/hexagon_symbol.png style= width:14px;height:14px> on the hexagon, you can use the interactive diagram on the right, or perform the operation in your mind. Point the arrow at the first number on the hexagon, and then move the arrow the second number of points clockwise around the hexagon.)","response_type":"free","response_choices":[],"correct_response":"2","response":"2","explain":false,"explanation":"","explanation_history":[],"orientation_history":[[0]],"response_history":["2"],"rt":6519,"trial_type":"polygon-arrow-question","trial_index":0,"trial_index_global":9,"time_elapsed":707294,"internal_chunk_id":"0-0.3-0"},{"nsides":6,"feedback":"Correct! 1 <img src=./images/hexagon_symbol.png style=width:14px;height:14px> 1 = 2 because 1 step clockwise on the hexagon from 1 brings us to 2. Equivalently, 1 + 1 = 2 and 2 is less than 6.","orientation_history":[0],"rt":1024,"trial_type":"polygon-arrow-feedback","trial_index":0,"trial_index_global":10,"time_elapsed":708318,"internal_chunk_id":"0-0 .3-0"},{"nsides":6,"question":"What is 3 <img src=./images/hexagon_symbol.png style=width:14px;height:14px> 0? Try to solve this problem using the arithmetic technique. <br /><br /> (Remember, to perform <img src=./images/hexagon_symbol.png style=width:14px;height:14px> using arithmetic, you start with the first number, and then add the second one to it. If the sum is smaller than 6, that's your result. If the sum is 6 or bigger, you subtract 6 to get your result.)","response_type":"free","response_choices":[],"correct_response":"3","response":"3","explain":false,"explanation":"","explanation_history":[],"orientation_history":[[0]],"response_history":["3"],"rt":7003,"trial_type":"polygon-arrow-question","trial_index":0,"trial_index_global":11,"time_elapsed":715321,"internal_chunk_id":"0-0.3-0"},{"nsides":6,"feedback":"Correct! 3 <img src=./images/hexagon_symbol.png style=width:14px;height:14px> 0 = 3 because 3 + 0 = 3 and 3 - 6 = 3.  Equivalently, 0 steps clo ckwise o n the hexagon from 3 brings us to 3.","orientation_history":[0],"rt":1432,"trial_type":"polygon-arrow-feedback","trial_index":0,"trial_index_global":12,"time_elapsed":716753,"internal_chunk_id":"0-0.3-0"},{"nsides":6,"question":"What is 4 <img src=./images/hexagon_symbol.png style=width:14px;height:14px> 4? Try to solve this problem using the hexagon. <br /><br /> (Remember, to perform <img src=./images/hexagon_symbol.png style=width:14px;height:14px> on the hexagon, you can use the interactive diagram on the right, or perform the operation in your mind. Point the arrow at the first number on the hexagon, and then move the arrow the second number of points clockwise around the hexagon.)","response_type":"free","response_choices":[],"correct_response":"2","response":"2","explain":false,"explanation":"","explanation_history":[],"orientation_history":[[0]],"response_history":["2"],"rt":7343,"trial_type":"polygon-arrow-question","trial_index":0,"trial_index_global":13,"time_elapsed":724097,"internal_chunk_id":"0-0.3-0"},{"nsides":6,"feedback":"Correct! 4 <img src=./images/hexagon_symbol.png style=width:14px;height:14px> 4 = 2 because 4 steps clockwise on the hexagon from 4 brings us to 2. Equivalently, 4 + 4 = 8 and 8 - 6 = 2.","orientation_history":[0],"rt":1439,"trial_type":"polygon-arrow-feedback","trial_index":0,"trial_index_global":14,"time_elapsed":725537,"internal_chunk_id":"0-0.3-0"},{"nsides":6,"question":"What is 1 <img src=./images/hexagon_symbol.png style=width:14px;height:14px> 3? Try to solve this problem using the arithmetic technique. <br /><br /> (Remember, to perform <img src=./images/hexagon_symbol.png style=width:14px;height:14px> by arithmetic, you start with the first number, and then add the second one to it. If the sum is smaller than 6, that's your result. If the sum is 6 or bigger, you subtract 6 to get your result.)","response_type":"free","response_choices":[],"correct_response":"4","response":"4","explain":false,"explanation":"","explanation_history":[],"orientation_history":[[0]],"response_history":["4"],"rt":7247,"trial_type":"polygon-arrow-question","trial_index":0,"trial_index_global":15,"time_elapsed":732784,"internal_chunk_id":"0-0.3-0"},{"nsides":6,"feedback":"Correct! 1 <img src=./images/hexagon_symbol.png style=width:14px;height:14px> 3 = 4 because 1 + 3 = 4 and 4 - 6 = 4.  Equivalently, 3 steps clockwise on the hexagon from 1 brings us to 4.","orientation_history":[0],"rt":1223,"trial_type":"polygon-arrow-feedback","trial_index":0,"trial_index_global":16,"time_elapsed":734008,"internal_chunk_id":"0-0.3-0"},{"nsides":6,"question":"What is 4 <img src=./images/hexagon_symbol.png style=width:14px;height:14px> 3? <br /><br /> (Remember, to perform <img src=./images/hexagon_symbol.png style=width:14px;height:14px>, you can either use a method based on the hexagon at right, or a method based on arithmetic.<br /><br /><b>Hexagon method:</b>  you can  use the interactive diagram on the right, or perform the operation in your mind. Point the arrow at the first number, then move the arrow the second number of points clockwise around the hexagon. The number the arrow arrives at is your result. <br /><br /><b>Arithmetic method:</b> you start with the first number, and then add the second one to it. If the sum is smaller than 6, that's your result. If the sum is 6 or bigger, you subtract 6 to get your result.)","response_type":"free","response_choices":[],"correct_response":"1","response":"1","explain":false,"explanation":"","explanation_history":[],"orientation_history":[[0]],"response_history":["1"],"rt":5992,"trial_type":"polygon-arrow-question","trial_index":0,"trial_index_global":17,"time_elapsed":740001,"internal_chunk_id":"0-0.3-0"},{"nsides":6,"feedback":"Correct! 4 <img src=./images/hexagon_symbol.png style=width:14px;height:14px> 3 = 1 because 3 steps clockwise on the hexagon from 4 brings us to 1. Equivalen tly, 4 +  3 = 7 and 7 - 6 = 1.","orientation_history":[0],"rt":1167,"trial_type":"polygon-arrow-feedback","trial_index":0,"trial_index_global":18,"time_elapsed":741169,"internal_chunk_id":"0-0.3-0"},{"nsides":6,"question":"What is 0 <img src=./images/hexagon_symbol.png style=width:14px;height:14px> 5? <br /><br /> (Remember, to perform <img src=./images/hexagon_symbol.png style=width:14px;height:14px>, you can either use a method based on the hexagon at right, or a method based on arithmetic.<br /><br /><b>Hexagon method:</b> you can use the interactive diagram on the right, or perform the operation in your mind. Point the arrow at the first number, then move the arrow the second number of points clockwise around the hexagon. The number the arrow arrives at is your result. <br /><br /><b>Arithmetic method:</b> you start with the first number, and then add the second one to it. If the sum is smaller than 6, that's your result. If the sum is 6 or bigger, you subtract 6  to get y our result.)","response_type":"free","response_choices":[],"correct_response":"5","response":"5","explain":false,"explanation":"","explanation_history":[],"orientation_history":[[0]],"response_history":["5"],"rt":10391,"trial_type":"polygon-arrow-question","trial_index":0,"trial_index_global":19,"time_elapsed":751560,"internal_chunk_id":"0-0.3-0"},{"nsides":6,"feedback":"Correct! 0 <img src=./images/hexagon_symbol.png style=width:14px;height:14px> 5 = 5 because 5 steps clockwise on the hexagon from 0 brings us to 5. Equivalently, 0 + 5 = 5 and 5 is less than 6.","orientation_history":[0],"rt":1112,"trial_type":"polygon-arrow-feedback","trial_index":0,"trial_index_global":20,"time_elapsed":752673,"internal_chunk_id":"0-0.3-0"},{"nsides":6,"question":"What is 2 <img src=./images/hexagon_symbol.png style=width:14px;height:14px> 5? <br /><br /> (Remember, to perform <img src=./images/hexagon_symbol.png style=width:14px;height:14px>, you can either use a m ethod ba sed on the hexagon at right, or a method based on arithmetic.<br /><br /><b>Hexagon method:</b> you can use the interactive diagram on the right, or perform the operation in your mind. Point the arrow at the first number, then move the arrow the second number of points clockwise around the hexagon. The number the arrow arrives at is your result. <br /><br /><b>Arithmetic method:</b> you start with the first number, and then add the second one to it. If the sum is smaller than 6, that's your result. If the sum is 6 or bigger, you subtract 6 to get your result.)","response_type":"free","response_choices":[],"correct_response":"1","response":"1","explain":false,"explanation":"","explanation_history":[],"orientation_history":[[0]],"response_history":["1"],"rt":7287,"trial_type":"polygon-arrow-question","trial_index":0,"trial_index_global":21,"time_elapsed":759961,"internal_chunk_id":"0-0.3-0"},{"nsides":6,"feedback":"Correct! 2 <img src=./images/hexagon_symbol.png style=wi dth:14px ;height:14px> 5 = 1 because 5 steps clockwise on the hexagon from 2 brings us to 1. Equivalently, 2 + 5 = 7 and 7 - 6 = 1.","orientation_history":[0],"rt":159333,"trial_type":"polygon-arrow-feedback","trial_index":0,"trial_index_global":22,"time_elapsed":919294,"internal_chunk_id":"0-0.3-0"},{"nsides":6,"instructions":"Now we're going to discuss a couple special properties of this new operation, <img src=./images/hexagon_symbol.png style=width:14px;height:14px> that we've learned. First, notice that the number 0 behaves in a special way under <img src=./images/hexagon_symbol.png style=width:14px;height:14px>. Whenever we combine 0 with anything else, we get that same thing back. We'll say that 0 is the <i>identity</i> under <img src=./images/hexagon_symbol.png style=width:14px;height:14px>, because when you combine it with something it gives you that identical thing back.","orientation_history":[0],"rt":22933,"trial_type":"polygon-arrow-instructions ","trial_index":0,"trial_index_global":23,"time_elapsed":942230,"internal_chunk_id":"0-0"},{"nsides":6,"instructions":"Now that we know 0 is the identity under <img src=./images/hexagon_symbol.png style=width:14px;height:14px>, we're going to make a new definition. We'll say that the <i>inverse</i> of a number is the element that you combine with it to produce the identity. For example, 5 <img src=./images/hexagon_symbol.png style=width:14px;height:14px> 1 = 0, so we say 1 is the inverse of 5 under <img src=./images/hexagon_symbol.png style=width:14px;height:14px>, (remember 0 is the identity under <img src=./images/hexagon_symbol.png style=width:14px;height:14px>). Similarly, 3 is its own inverse under <img src=./images/hexagon_symbol.png style=width:14px;height:14px>, because 3 <img src=./images/hexagon_symbol.png style=width:14px;height:14px> 3 = 0.","orientation_history":[0],"rt":1705106,"trial_type":"polygon-arrow-instructions","trial_index":0,"trial_index_global":24,"time_elapsed":2647336,"internal_chunk_id":"0-0"},{"nsides":6,"question":"Now you try! What is the inverse of 4 under <img src=./images/hexagon_symbol.png style=width:14px;height:14px>? <br /><br /> (Remember, the inverse of an element is the thing which you combine with it to produce the identity.)","response_type":"free","response_choices":[],"correct_response":"2","response":"3","explain":false,"explanation":"","explanation_history":[],"orientation_history":[[0]],"response_history":["3"],"rt":20452,"trial_type":"polygon-arrow-question","trial_index":0,"trial_index_global":25,"time_elapsed":2667794,"internal_chunk_id":"0-0.7-0"},{"nsides":6,"feedback":"Sorry, that was incorrect. The inverse of 4 under <img src=./images/hexagon_symbol.png style=width:14px;height:14px> is 2 because 4 <img src=./images/hexagon_symbol.png style=width:14px;height:14px> 2 = 0, and 0 is the identity under <img src=./images/hexagon_symbol.png  style =width:14px;height:14px>.","orientation_history":[0],"rt":6574,"trial_type":"polygon-arrow-feedback","trial_index":0,"trial_index_global":26,"time_elapsed":2674369,"internal_chunk_id":"0-0.7-0"},{"nsides":6,"question":"What is the inverse of 1 under <img src=./images/hexagon_symbol.png style=width:14px;height:14px>? <br /><br /> (Remember, the inverse of an element is the thing which you combine with it to produce the identity.)","response_type":"free","response_choices":[],"correct_response":"5","response":"5","explain":false,"explanation":"","explanation_history":[],"orientation_history":[[0]],"response_history":["5"],"rt":13871,"trial_type":"polygon-arrow-question","trial_index":0,"trial_index_global":27,"time_elapsed":2688241,"internal_chunk_id":"0-0.7-0"},{"nsides":6,"feedback":"Correct! The inverse of 1 under <img src=./images/hexagon_symbol.png style=width:14px;height:14px> is 5 because 1 <img src=./images/hexagon_symbol.png style=width:14px; height:1 4px> 5 = 0, and 0 is the identity under <img src=./images/hexagon_symbol.png style=width:14px;height:14px>.","orientation_history":[0],"rt":1271,"trial_type":"polygon-arrow-feedback","trial_index":0,"trial_index_global":28,"time_elapsed":2689513,"internal_chunk_id":"0-0.7-0"},{"nsides":6,"question":"What is the inverse of 3 under <img src=./images/hexagon_symbol.png style=width:14px;height:14px>? <br /><br /> (Remember, the inverse of an element is the thing which you combine with it to produce the identity.)","response_type":"free","response_choices":[],"correct_response":"3","response":"3","explain":false,"explanation":"","explanation_history":[],"orientation_history":[[0]],"response_history":["3"],"rt":6639,"trial_type":"polygon-arrow-question","trial_index":0,"trial_index_global":29,"time_elapsed":2696153,"internal_chunk_id":"0-0.7-0"},{"nsides":6,"feedback":"Correct! The inverse of 3 under <img src=./images/hexagon_symbol.png style=width:14px;hei ght:14px > is 3 because 3 <img src=./images/hexagon_symbol.png style=width:14px;height:14px> 3 = 0, and 0 is the identity under <img src=./images/hexagon_symbol.png style=width:14px;height:14px>.","orientation_history":[0],"rt":1040,"trial_type":"polygon-arrow-feedback","trial_index":0,"trial_index_global":30,"time_elapsed":2697193,"internal_chunk_id":"0-0.7-0"},{"nsides":6,"question":"What is the inverse of 2 under <img src=./images/hexagon_symbol.png style=width:14px;height:14px>? <br /><br /> (Remember, the inverse of an element is the thing which you combine with it to produce the identity.)","response_type":"free","response_choices":[],"correct_response":"4","response":"4","explain":false,"explanation":"","explanation_history":[],"orientation_history":[[0]],"response_history":["4"],"rt":5200,"trial_type":"polygon-arrow-question","trial_index":0,"trial_index_global":31,"time_elapsed":2702393,"internal_chunk_id":"0-0.7-0"},{"nsides":6,"feedback":"Correct!  The inv erse of 2 under <img src=./images/hexagon_symbol.png style=width:14px;height:14px> is 4 because 2 <img src=./images/hexagon_symbol.png style=width:14px;height:14px> 4 = 0, and 0 is the identity under <img src=./images/hexagon_symbol.png style=width:14px;height:14px>.","orientation_history":[0],"rt":887,"trial_type":"polygon-arrow-feedback","trial_index":0,"trial_index_global":32,"time_elapsed":2703281,"internal_chunk_id":"0-0.7-0"},{"nsides":6,"question":"What is the inverse of 0 under <img src=./images/hexagon_symbol.png style=width:14px;height:14px>? <br /><br /> (Remember, the inverse of an element is the thing which you combine with it to produce the identity.)","response_type":"free","response_choices":[],"correct_response":"0","response":"0","explain":false,"explanation":"","explanation_history":[],"orientation_history":[[0]],"response_history":["0"],"rt":13687,"trial_type":"polygon-arrow-question","trial_index":0,"trial_index_global":33,"time_elapsed":2716969,"internal_chunk_id":"0-0.7-0"},{"nsides":6,"feedback":"Correct! The inverse of 0 under <img src=./images/hexagon_symbol.png style=width:14px;height:14px> is 0 because 0 <img src=./images/hexagon_symbol.png style=width:14px;height:14px> 0 = 0, and 0 is the identity under <img src=./images/hexagon_symbol.png style=width:14px;height:14px>.","orientation_history":[0],"rt":2023,"trial_type":"polygon-arrow-feedback","trial_index":0,"trial_index_global":34,"time_elapsed":2718993,"internal_chunk_id":"0-0.7-0"},{"nsides":6,"instructions":"It is also possible to successively apply <img src=./images/hexagon_symbol.png style=width:14px;height:14px>, and the operation can simply be performed starting with the left-most pair. For example, 2 <img src=./images/hexagon_symbol.png style=width:14px;height:14px> 3 <img src=./images/hexagon_symbol.png style=width:14px;height:14px> 4 = 5 <img src=./images/hexagon_symbol.png style =width :14px;height:14px> 4 = 3.","orientation_history":[0],"rt":71372,"trial_type":"polygon-arrow-instructions","trial_index":0,"trial_index_global":35,"time_elapsed":2790367,"internal_chunk_id":"0-0"},{"nsides":6,"instructions":"We have one last definition to learn today, using the successive operations we just learned. Let's start with an example. Under our operation <img src=./images/hexagon_symbol.png style=width:14px;height:14px> we can make every other number using just 1: 2 = 1 <img src=./images/hexagon_symbol.png style=width:14px;height:14px> 1, 3 = 1 <img src=./images/hexagon_symbol.png style=width:14px;height:14px> 1 <img src=./images/hexagon_symbol.png style=width:14px;height:14px> 1, 4 = 1 <img src=./images/hexagon_symbol.png style=width:14px;height:14px> 1 <img src=./images/hexagon_symbol.png style=width:14px;height:14px> 1 <img src=./images/hexagon_symbol.png style=width:14px;height:14px> 1, 5 = 1 <img src=. /images/ hexagon_symbol.png style=width:14px;height:14px> 1 <img src=./images/hexagon_symbol.png style=width:14px;height:14px> 1 <img src=./images/hexagon_symbol.png style=width:14px;height:14px> 1 <img src=./images/hexagon_symbol.png style=width:14px;height:14px> 1, and 0 = 1 <img src=./images/hexagon_symbol.png style=width:14px;height:14px> 1 <img src=./images/hexagon_symbol.png style=width:14px;height:14px> 1 <img src=./images/hexagon_symbol.png style=width:14px;height:14px> 1 <img src=./images/hexagon_symbol.png style=width:14px;height:14px> 1 <img src=./images/hexagon_symbol.png style=width:14px;height:14px> 1. Because 1 can make every other element under <img src=./images/hexagon_symbol.png style=width:14px;height:14px>, we say that 1 is a <i>generator</i> under <img src=./images/hexagon_symbol.png style=width:14px;height:14px>. <br /><br /> However, 2 is not a generator under <img src=./ima ges/hexa gon_symbol.png style=width:14px;height:14px>, because 4 = 2 <img src=./images/hexagon_symbol.png style=width:14px;height:14px> 2, and 0 = 2 <img src=./images/hexagon_symbol.png style=width:14px;height:14px> 2 <img src=./images/hexagon_symbol.png style=width:14px;height:14px> 2, but there is no way to make 1, 3, or 5 using just 2.","orientation_history":[0],"rt":208063,"trial_type":"polygon-arrow-instructions","trial_index":0,"trial_index_global":36,"time_elapsed":2998430,"internal_chunk_id":"0-0"},{"nsides":6,"question":"Now you try! Is 3 a generator under <img src=./images/hexagon_symbol.png style=width:14px;height:14px>? <br /><br /> (Remember, a generator is an element which can make every other element.)","response_type":"multi","response_choices":["Yes","No"],"correct_response":"No","response":"Yes","explain":false,"explanation":"","explanation_history":[],"orientation_history":[[0]],"response_history":["Yes"],"rt":25494,"trial_type":"polyg on-arrow-question","trial_index":0,"trial_index_global":37,"time_elapsed":3023925,"internal_chunk_id":"0-0.10-0"},{"nsides":6,"feedback":"Sorry, that's incorrect. 3 is not a generator under <img src=./images/hexagon_symbol.png style=width:14px;height:14px>, because 3 = 3, 0 = 3 <img src=./images/hexagon_symbol.png style=width:14px;height:14px> 3, but there is no way to make 1, 2, 4, or 5 using just 3.","orientation_history":[0],"rt":61802,"trial_type":"polygon-arrow-feedback","trial_index":0,"trial_index_global":38,"time_elapsed":3085728,"internal_chunk_id":"0-0.10-0"},{"nsides":6,"question":"Is 5 a generator under <img src=./images/hexagon_symbol.png style=width:14px;height:14px>? <br /><br /> (Remember, a generator is an element which can make every other element.)","response_type":"multi","response_choices":["Yes","No"],"correct_response":"Yes","response":"No","explain":false,"explanation":"","explanation_history":[],"orientation_history":[[0]],"response_history":["No"],"rt":27538,"trial_type":"polygon-arrow-question","trial_index":0,"trial_index_global":39,"time_elapsed":3113267,"internal_chunk_id":"0-0.10-0"},{"nsides":6,"feedback":"Sorry, that's incorrect. 5 is a generator under <img src=./images/hexagon_symbol.png style=width:14px;height:14px>, because 5 = 5, 4 = 5 <img src=./images/hexagon_symbol.png style=width:14px;height:14px> 5, 3 = 5 <img src=./images/hexagon_symbol.png style=width:14px;height:14px> 5 <img src=./images/hexagon_symbol.png style=width:14px;height:14px> 5, 2 = 5 <img src=./images/hexagon_symbol.png style=width:14px;height:14px> 5 <img src=./images/hexagon_symbol.png style=width:14px;height:14px> 5 <img src=./images/hexagon_symbol.png style=width:14px;height:14px> 5, 1 = 5 <img src=./images/hexagon_symbol.png style=width:14px;height:14px> 5 <img src=./images/hexagon_symbol.png style=width:14px;height:14px> 5 <img src=./images/hexa gon_symb ol.png style=width:14px;height:14px> 5 <img src=./images/hexagon_symbol.png style=width:14px;height:14px> 5, and 0 = 5 <img src=./images/hexagon_symbol.png style=width:14px;height:14px> 5 <img src=./images/hexagon_symbol.png style=width:14px;height:14px> 5 <img src=./images/hexagon_symbol.png style=width:14px;height:14px> 5 <img src=./images/hexagon_symbol.png style=width:14px;height:14px> 5 <img src=./images/hexagon_symbol.png style=width:14px;height:14px> 5, so you can make all of the numbers under <img src=./images/hexagon_symbol.png style=width:14px;height:14px> using 5","orientation_history":[0],"rt":83307,"trial_type":"polygon-arrow-feedback","trial_index":0,"trial_index_global":40,"time_elapsed":3196574,"internal_chunk_id":"0-0.10-0"},{"nsides":6,"question":"Is 4 a generator under <img src=./images/hexagon_symbol.png style=width:14px;height:14px>? <br /><br /> (Remember, a generator is an element wh ich can  make every other element.)","response_type":"multi","response_choices":["Yes","No"],"correct_response":"No","response":"No","explain":false,"explanation":"","explanation_history":[],"orientation_history":[[0]],"response_history":["No"],"rt":81186,"trial_type":"polygon-arrow-question","trial_index":0,"trial_index_global":41,"time_elapsed":3277761,"internal_chunk_id":"0-0.10-0"},{"nsides":6,"feedback":"Correct! 4 is not a generator under <img src=./images/hexagon_symbol.png style=width:14px;height:14px>, because 4 = 4, 2 = 4 <img src=./images/hexagon_symbol.png style=width:14px;height:14px> 4, and 0 = 4 <img src=./images/hexagon_symbol.png style=width:14px;height:14px> 4 <img src=./images/hexagon_symbol.png style=width:14px;height:14px> 4, but there is no way to make 1, 3, or 5 using just 4.","orientation_history":[0],"rt":1807,"trial_type":"polygon-arrow-feedback","trial_index":0,"trial_index_global":42,"time_elapsed":3279569,"internal_chunk_id":"0-0.1 0-0"},{"nsides":6,"question":"Is 0 a generator under <img src=./images/hexagon_symbol.png style=width:14px;height:14px>? <br /><br /> (Remember, a generator is an element which can make every other element.)","response_type":"multi","response_choices":["Yes","No"],"correct_response":"No","response":"No","explain":false,"explanation":"","explanation_history":[],"orientation_history":[[0]],"response_history":["No"],"rt":17903,"trial_type":"polygon-arrow-question","trial_index":0,"trial_index_global":43,"time_elapsed":3297473,"internal_chunk_id":"0-0.10-0"},{"nsides":6,"feedback":"Correct! 0 is not a generator under <img src=./images/hexagon_symbol.png style=width:14px;height:14px>, because 0 = 0, but there is no way to make 1, 2, 3, 4, or 5 using just 0.","orientation_history":[0],"rt":1295,"trial_type":"polygon-arrow-feedback","trial_index":0,"trial_index_global":44,"time_elapsed":3298769,"internal_chunk_id":"0-0.10-0"},{"nsides":9,"instructions":"Now we are g oing to  ask you some questions about a new operation, <img src=./images/nonagon_symbol.png style=width:14px;height:14px>, on the numbers 0, 1, 2, 3, 4, 5, 6, 7, 8. It works exactly like <img src=./images/hexagon_symbol.png style=width:14px;height:14px>, except now you use the nonagon shown at the right. Equivalently, after adding the two numbers you subtract 9 if your result is 9 or greater.<br /><br />Do you see how the different ways of performing <img src=./images/nonagon_symbol.png style=width:14px;height:14px> give the same result, just like with <img src=./images/hexagon_symbol.png style=width:14px;height:14px>? By labeling the points of the nonagon with the numbers from 0 to 8, we ensure that when we combine two numbers under <img src=./images/nonagon_symbol.png style=width:14px;height:14px>, we only produce numbers between 0 and 8. When we use the arithmetic strategy, adding the second number to the first mimics counting around the non agon, an d subtracting 9 each time we get above 8 makes sure the results correspond to the numbers on the points of the nonagon.<br /><br />We'll give you one practice question with feedback to make sure you understand the new operation. After that, try to complete the remaining questions as accurately as possible.","orientation_history":[0],"rt":25687,"trial_type":"polygon-arrow-instructions","trial_index":0,"trial_index_global":45,"time_elapsed":3324457,"internal_chunk_id":"0-0"},{"nsides":9,"question":"Practice: What is 5 <img src=./images/nonagon_symbol.png style=width:14px;height:14px> 5?","response_type":"free","response_choices":[],"correct_response":"1","response":"1","explain":false,"explanation":"","explanation_history":[],"orientation_history":[[0]],"response_history":["1"],"rt":8990,"trial_type":"polygon-arrow-question","trial_index":0,"trial_index_global":46,"time_elapsed":3333448,"internal_chunk_id":"0-0.12-0"},{"nsides":9,"feedback":"Correct! 5 <img src=./ima ges/nona gon_symbol.png style=width:14px;height:14px> 5 = 1 because 5 steps clockwise on the nonagon from 5 brings us to 1. Equivalently, 5 + 5 = 10 and 10 - 9 = 1.","orientation_history":[0],"rt":1119,"trial_type":"polygon-arrow-feedback","trial_index":0,"trial_index_global":47,"time_elapsed":3334567,"internal_chunk_id":"0-0.12-0"},{"nsides":9,"question":"What is 3 <img src=./images/nonagon_symbol.png style=width:14px;height:14px> 3?","response_type":"free","response_choices":[],"correct_response":"6","response":"6","explain":false,"explanation":"","explanation_history":[],"orientation_history":[[0]],"response_history":["6"],"rt":6391,"trial_type":"polygon-arrow-question","trial_index":0,"trial_index_global":48,"time_elapsed":3340959,"internal_chunk_id":"0-0.12-0"},{"nsides":9,"question":"What is 7 <img src=./images/nonagon_symbol.png style=width:14px;height:14px> 4?","response_type":"free","response_choices":[],"correct_response":"2","response":"2","explain":false,"explanation":"","explanation_history":[],"orientation_history":[[0]],"response_history":["2"],"rt":4680,"trial_type":"polygon-arrow-question","trial_index":0,"trial_index_global":49,"time_elapsed":3345639,"internal_chunk_id":"0-0.12-0"},{"nsides":9,"question":"What is 1 <img src=./images/nonagon_symbol.png style=width:14px;height:14px> 8?","response_type":"free","response_choices":[],"correct_response":"0","response":"0","explain":false,"explanation":"","explanation_history":[],"orientation_history":[[0]],"response_history":["0"],"rt":7847,"trial_type":"polygon-arrow-question","trial_index":0,"trial_index_global":50,"time_elapsed":3353487,"internal_chunk_id":"0-0.12-0"},{"nsides":9,"question":"What is 5 <img src=./images/nonagon_symbol.png style=width:14px;height:14px> 4?","response_type":"free","response_choices":[],"correct_response":"0","response":"0","explain":false,"explanation":"","explanation_history":[],"orientation_history":[[0]],"response_history":["0 "],"rt":6543,"trial_type":"polygon-arrow-question","trial_index":0,"trial_index_global":51,"time_elapsed":3360031,"internal_chunk_id":"0-0.12-0"},{"nsides":9,"question":"What is 6 <img src=./images/nonagon_symbol.png style=width:14px;height:14px> 6?","response_type":"free","response_choices":[],"correct_response":"3","response":"3","explain":false,"explanation":"","explanation_history":[],"orientation_history":[[0]],"response_history":["3"],"rt":6024,"trial_type":"polygon-arrow-question","trial_index":0,"trial_index_global":52,"time_elapsed":3366055,"internal_chunk_id":"0-0.12-0"},{"nsides":9,"instructions":"On the following question, and several others later in the HIT, we will ask you to explain how you got your answer. On these questions, you will be given one box for your answer to the question, and a second for your explanation. Please explain your thought process in as much detail as possible (at least one sentence, and more if you can).","orientation_history":[0],"rt":26191,"trial_type":"polygon-arrow-instructions","trial_index":0,"trial_index_global":53,"time_elapsed":3392247,"internal_chunk_id":"0-0.12-0"},{"nsides":9,"question":"What is 4 <img src=./images/nonagon_symbol.png style=width:14px;height:14px> 1? Please explain in words how you got your answer.","response_type":"free","response_choices":[],"correct_response":"5","response":"5","explain":true,"explanation":"counted clockwise one dot","explanation_history":["Counted clockwise one dot","ounted clockwise one dot","counted clockwise one dot"],"orientation_history":[[0]],"response_history":["5"],"rt":24135,"trial_type":"polygon-arrow-question","trial_index":0,"trial_index_global":54,"time_elapsed":3416383,"internal_chunk_id":"0-0.12-0"},{"nsides":9,"question":"What is 8 <img src=./images/nonagon_symbol.png style=width:14px;height:14px> 4? Please explain in words how you got your answer.","response_type":"free","response_choices":[],"correct_response":"3","response":"3","explain":true,"explanation":"counted clockwise four dots","explanation_history":["counted clockwise four dots"],"orientation_history":[[0]],"response_history":["3"],"rt":13887,"trial_type":"polygon-arrow-question","trial_index":0,"trial_index_global":55,"time_elapsed":3430270,"internal_chunk_id":"0-0.12-0"},{"nsides":9,"question":"What is the identity under <img src=./images/nonagon_symbol.png style=width:14px;height:14px>? Please explain in words how you got your answer.","response_type":"free","response_choices":[],"correct_response":"0","response":"0","explain":true,"explanation":"i think the hexagon was that way","explanation_history":["was","wa","w","i thin ","i think the hexagon was that way"],"orientation_history":[[0]],"response_history":["0"],"rt":115828,"trial_type":"polygon-arrow-question","trial_index":0,"trial_index_global":56,"time_elapsed":3546099,"internal_chunk_id":"0-0.12-0"},{"nsides":9,"question":"What is the inverse of 5 under <img src=./images/nonagon_ symbol.p ng style=width:14px;height:14px>?","response_type":"free","response_choices":[],"correct_response":"4","response":"1","explain":false,"explanation":"","explanation_history":[],"orientation_history":[[0]],"response_history":["1"],"rt":27543,"trial_type":"polygon-arrow-question","trial_index":0,"trial_index_global":57,"time_elapsed":3573643,"internal_chunk_id":"0-0.12-0"},{"nsides":9,"question":"What is the inverse of 2 under <img src=./images/nonagon_symbol.png style=width:14px;height:14px>?","response_type":"free","response_choices":[],"correct_response":"7","response":"0","explain":false,"explanation":"","explanation_history":[],"orientation_history":[[0]],"response_history":["0"],"rt":11102,"trial_type":"polygon-arrow-question","trial_index":0,"trial_index_global":58,"time_elapsed":3584746,"internal_chunk_id":"0-0.12-0"},{"nsides":9,"question":"What is the inverse of 0 under <img src=./images/nonagon_symbol.png style=width:14px;height:14px>?","response_type":"free","response_choices":[],"correct_response":"0","response":"0","explain":false,"explanation":"","explanation_history":[],"orientation_history":[[0]],"response_history":["0"],"rt":6377,"trial_type":"polygon-arrow-question","trial_index":0,"trial_index_global":59,"time_elapsed":3591123,"internal_chunk_id":"0-0.12-0"},{"nsides":9,"question":"What is the inverse of 3 under <img src=./images/nonagon_symbol.png style=width:14px;height:14px>? Please explain in words how you got your answer.","response_type":"free","response_choices":[],"correct_response":"6","response":"no idea","explain":true,"explanation":"no idea","explanation_history":["no idea"],"orientation_history":[[0]],"response_history":["no idea"],"rt":36063,"trial_type":"polygon-arrow-question","trial_index":0,"trial_index_global":60,"time_elapsed":3627186,"internal_chunk_id":"0-0.12-0"},{"nsides":9,"question":"Is 2 a generator under <img src=./images/nonagon_symbol.png style=width:14px;height:14px>?  Please  explain in words how you got your answer.","response_type":"multi","response_choices":["Yes","No"],"correct_response":"Yes","response":"No","explain":true,"explanation":"I counted clockwise two dots and wasn't able to get to all the numbers","explanation_history":["i","I counted clockwise two dots and wasn't able to get to all the numbers"],"orientation_history":[[0]],"response_history":["No"],"rt":44036,"trial_type":"polygon-arrow-question","trial_index":0,"trial_index_global":61,"time_elapsed":3671223,"internal_chunk_id":"0-0.12-0"},{"nsides":9,"question":"Is 3 a generator under <img src=./images/nonagon_symbol.png style=width:14px;height:14px>? Please explain in words how you got your answer.","response_type":"multi","response_choices":["Yes","No"],"correct_response":"No","response":"No","explain":true,"explanation":"i counted clockwise 3 dots and wasn't able to get to all the numbers","explanation_history":["i counted clockwise 3 dots and wasn't able to get to al l the nu mbers"],"orientation_history":[[0]],"response_history":["No"],"rt":28771,"trial_type":"polygon-arrow-question","trial_index":0,"trial_index_global":62,"time_elapsed":3699996,"internal_chunk_id":"0-0.12-0"},{"nsides":9,"question":"Is 5 a generator under <img src=./images/nonagon_symbol.png style=width:14px;height:14px>? Please explain in words how you got your answer.","response_type":"multi","response_choices":["Yes","No"],"correct_response":"Yes","response":"Yes","explain":true,"explanation":"i counted clockwise every 5th dot and was able to get to all the numbers","explanation_history":["i counted clockwise everh","i counted clockwise every 5th dot and was able to get to all th","i counted clockwise every 5th dot and was able to get to all then ","i counted clockwise every 5th dot and was able to get to all then","i counted clockwise every 5th dot and was able to get to all the numbers"],"orientation_history":[[0]],"response_history":["Yes"],"rt":28087,"trial_type":"polygo n-arrow-question","trial_index":0,"trial_index_global":63,"time_elapsed":3728083,"internal_chunk_id":"0-0.12-0"},{"nsides":9,"question":"Is 6 a generator under <img src=./images/nonagon_symbol.png style=width:14px;height:14px>? Please explain in words how you got your answer.","response_type":"multi","response_choices":["Yes","No"],"correct_response":"No","response":"No","explain":true,"explanation":"i counted clockwise 6 dots and was not able to get to all the numbers","explanation_history":["i counted clockwise 6 dots and was not able to get to all the nub","i counted clockwise 6 dots and was not able to get to all the numbers"],"orientation_history":[[0]],"response_history":["No"],"rt":34596,"trial_type":"polygon-arrow-question","trial_index":0,"trial_index_global":64,"time_elapsed":3762680,"internal_chunk_id":"0-0.12-0"},{"nsides":"n","instructions":"Now we'd like to ask you some questions about <img src=./images/ngon_symbol.png style=width:14px;height:14px >, whe re n could be any postive counting number. For example, n could be 3, and the polygon a triangle, or n could be any other counting number you can think of, in which case the corresponding polygon would have n sides. Just as before, you can use either the polygon or arithmetic methods. If you need to write the operation, you can use (n), and your answers can include n to stand in for the arbitrary value if necessary. (You can use the polygon at the right to think, but it doesn't necessarily correspond to the real polygon, which is why we've left most of it dashed.)","orientation_history":[0],"rt":83188,"trial_type":"polygon-arrow-instructions","trial_index":0,"trial_index_global":65,"time_elapsed":3845868,"internal_chunk_id":"0-0"},{"nsides":"n","question":"What is the formula for the inverse of 1 under <img src=./images/ngon_symbol.png style=width:14px;height:14px>?","response_type":"free","response_choices":[],"correct_response":"n-1","response":"no idea","explain":false,"explanation":"","explanation_history":[],"orientation_history":[[0]],"response_history":["no idea"],"rt":10175,"trial_type":"polygon-arrow-question","trial_index":0,"trial_index_global":66,"time_elapsed":3856044,"internal_chunk_id":"0-0.14-0"},{"nsides":"n","question":"What is the formula for the inverse of an element x under <img src=./images/ngon_symbol.png style=width:14px;height:14px>? Please explain in words how you got your answer.","response_type":"free","response_choices":[],"correct_response":"n-x","response":"no idea ","explain":true,"explanation":"no idea\n","explanation_history":["no idea\n"],"orientation_history":[[0]],"response_history":["no idea "],"rt":13334,"trial_type":"polygon-arrow-question","trial_index":0,"trial_index_global":67,"time_elapsed":3869380,"internal_chunk_id":"0-0.14-0"},{"nsides":"n","question":"Is there a pattern to which elements are generators? How can you know if an element x is a generator under <img src=./images/ngon_symb ol.png  style=width:14px;height:14px> without seeing whether it can make all the elements?.","response_type":"free","response_choices":[],"correct_response":"","response":"I'm sure there is arithmetic involved.\n","explain":false,"explanation":"","explanation_history":[],"orientation_history":[[0]],"response_history":["I'm sure there is are","I'm sure there is arithma","I'm sure there is arithmatic, ","I'm sure there is arithma","I'm sure there is arithmeth","I'm sure there is arithmetic ","I'm sure there is arithmetic.","I'm sure there is arithmetic involved.\n"],"rt":47909,"trial_type":"polygon-arrow-question","trial_index":0,"trial_index_global":68,"time_elapsed":3917289,"internal_chunk_id":"0-0.14-0"},{"nsides":"n","question":"True or false: If x is an odd number, it must be a generator under <img src=./images/ngon_symbol.png style=width:14px;height:14px>.","response_type":"multi","response_choices":["True","False"],"correct_response":"False","response":"False","explain":false,"explanation":"","explanation_history":[],"orientation_history":[[0]],"response_history":["False"],"rt":9968,"trial_type":"polygon-arrow-question","trial_index":0,"trial_index_global":69,"time_elapsed":3927257,"internal_chunk_id":"0-0.14-0"},{"nsides":"n","question":"True or false: If x is an even number, it must not be a generator under <img src=./images/ngon_symbol.png style=width:14px;height:14px>.","response_type":"multi","response_choices":["True","False"],"correct_response":"False","response":"True","explain":false,"explanation":"","explanation_history":[],"orientation_history":[[0]],"response_history":["True"],"rt":8239,"trial_type":"polygon-arrow-question","trial_index":0,"trial_index_global":70,"time_elapsed":3935497,"internal_chunk_id":"0-0.14-0"},{"nsides":"n","question":"True or false: If x is not a generator under <img src=./images/ngon_symbol.png style=width:14px;height:14px>, x must be a divisor of n, that is, x must divide n evenly, with n o remain der.","response_type":"multi","response_choices":["True","False"],"correct_response":"False","response":"False","explain":false,"explanation":"","explanation_history":[],"orientation_history":[[0]],"response_history":["False"],"rt":23732,"trial_type":"polygon-arrow-question","trial_index":0,"trial_index_global":71,"time_elapsed":3959230,"internal_chunk_id":"0-0.14-0"},{"nsides":"n","question":"True or false: If x is not a generator under <img src=./images/ngon_symbol.png style=width:14px;height:14px>, x must be a multiple of a divisor of n. Please explain in words how you got your answer.","response_type":"multi","response_choices":["True","False"],"correct_response":"True","response":"False","explain":true,"explanation":"that wasn't true in a previous example","explanation_history":["that a","that wasn't true  ","that wasn't true in a previous example"],"orientation_history":[[0]],"response_history":["False"],"rt":26598,"trial_type":"polygon-arrow-question","trial_index":0,"trial_index_global":72,"time_elapsed":3985829,"internal_chunk_id":"0-0.14-0"},{"nsides":"n","question":"If an element x is a generator under <img src=./images/ngon_symbol.png style=width:14px;height:14px>, is its inverse a generator under <img src=./images/ngon_symbol.png style=width:14px;height:14px> always, sometimes, or never?","response_type":"multi","response_choices":["Always","Sometimes","Never"],"correct_response":"Always","response":"Sometimes","explain":false,"explanation":"","explanation_history":[],"orientation_history":[[0]],"response_history":["Sometimes"],"rt":21036,"trial_type":"polygon-arrow-question","trial_index":0,"trial_index_global":73,"time_elapsed":4006866,"internal_chunk_id":"0-0.14-0"},{"nsides":"n","question":"if an element x is a generator under <img src=./images/ngon_symbol.png style=width:14px;height:14px>, is x <img src=./images/ngon_symbol.png style=width:14px;height:14px> x a generator under <img src=./image s/ngon_s ymbol.png style=width:14px;height:14px> always, sometimes, or never? Please explain in words how you got your answer.","response_type":"multi","response_choices":["Always","Sometimes","Never"],"correct_response":"Sometimes","response":"Sometimes","explain":true,"explanation":"guess","explanation_history":["guess"],"orientation_history":[[0]],"response_history":["Sometimes"],"rt":36887,"trial_type":"polygon-arrow-question","trial_index":0,"trial_index_global":74,"time_elapsed":4043754,"internal_chunk_id":"0-0.14-0"},{"nsides":"n","question":"If an element x is not a generator under <img src=./images/ngon_symbol.png style=width:14px;height:14px>, is x <img src=./images/ngon_symbol.png style=width:14px;height:14px> x a generator under <img src=./images/ngon_symbol.png style=width:14px;height:14px> always, sometimes, or never?","response_type":"multi","response_choices":["Always","Sometimes","Never"],"correct_response":"Never","response":"Sometimes","explain":false,"explanation":"","explanation_history":[],"orientation_history":[[0]],"response_history":["Sometimes"],"rt":5904,"trial_type":"polygon-arrow-question","trial_index":0,"trial_index_global":75,"time_elapsed":4049658,"internal_chunk_id":"0-0.14-0"},{"instructions":"Now we'd like you to do a few of the questions and tell us how much you're using the arithmetic and polygon methods to solve them. We'll give you a demonstration of the response screen first.<br /><br />Press continue when you're ready to begin.","rt":9007,"trial_type":"instructions","trial_index":0,"trial_index_global":76,"time_elapsed":4058666,"internal_chunk_id":"0-0.15-0"},{"nsides":9,"added_prompt":"<i>This is a demo response screen. You can respond independently to both questions, so it's okay to say you used both methods.</i><br /><br />","polygon_response":"4","modular_response":"0","rt":9876,"trial_type":"polygon-arrow-which-representation","trial_index":0,"trial_index_global":77,"time_elapsed":4068544,"internal_chunk_id":"0-0.15-0"},{"question":"<i>This is a demo response screen.</i><br /><br />Please describe in as much detail as possible how you used the arithmetic method, polygon method, or both for the problem.","response_type":"free","response_choices":[],"correct_response":"","response":"I just counted each dot like a kid would count on her fingers to add.","explain":false,"explanation":"","explanation_history":[],"response_history":["I just counted each dot like a kid would count on his ","I just counted each dot like a kid would count on his","I just counted each dot like a kid would count on hi","I just counted each dot like a kid would count on her fingers to add."],"rt":29543,"trial_type":"question","trial_index":0,"trial_index_global":78,"time_elapsed":4098088,"internal_chunk_id":"0-0.15-0"},{"instructions":"Great! Now we have a few questions for you to do (some of which you may have seen earlier), and after each question you will tell us how much you used the pol ygon and  arithmetic methods.<br /><br />Press continue when you're ready to begin.","rt":7694,"trial_type":"instructions","trial_index":0,"trial_index_global":79,"time_elapsed":4105783,"internal_chunk_id":"0-0.15-0"},{"nsides":9,"question":"Please answer the following question:<br /><br />What is the inverse of 4 under <img src=./images/nonagon_symbol.png style=width:14px;height:14px>?","response_type":"free","response_choices":[],"correct_response":"5","response":"don't know","explain":false,"explanation":"","explanation_history":[],"orientation_history":[[0]],"response_history":["dont","don't know"],"rt":38347,"trial_type":"polygon-arrow-question","trial_index":0,"trial_index_global":80,"time_elapsed":4144131,"internal_chunk_id":"0-0.15-0"},{"nsides":9,"question":"Please answer the following question:<br /><br />What is the inverse of 4 under <img src=./images/nonagon_symbol.png style=width:14px;height:14px>?","added_prompt":"","polygon_response":"0","modular_response":"0","rt":5199,"trial_type":"polygon-arrow-which-representation","trial_index":0,"trial_index_global":81,"time_elapsed":4149331,"internal_chunk_id":"0-0.15-0"},{"question":"Please describe in as much detail as possible how you used the arithmetic method, polygon method, or both for the problem.","response_type":"free","response_choices":[],"correct_response":"","response":"I don't remember how to do the inverses.","explain":false,"explanation":"","explanation_history":[],"response_history":["I don't understand the inverses","I don't understand the inverses. i e","I don't understand the inverses. i read ","I don't understa","I don't un","I don't u","I don't remember how to do the inverses."],"rt":31279,"trial_type":"question","trial_index":0,"trial_index_global":82,"time_elapsed":4180611,"internal_chunk_id":"0-0.15-0"},{"nsides":9,"question":"Please answer the following question:<br /><br />What is the inverse of 0 under <img src=./images/nonagon_symbol.png style=width:14px ;height: 14px>?","response_type":"free","response_choices":[],"correct_response":"0","response":"0","explain":false,"explanation":"","explanation_history":[],"orientation_history":[[0]],"response_history":["0"],"rt":15414,"trial_type":"polygon-arrow-question","trial_index":0,"trial_index_global":83,"time_elapsed":4196026,"internal_chunk_id":"0-0.15-0"},{"nsides":9,"question":"Please answer the following question:<br /><br />What is the inverse of 0 under <img src=./images/nonagon_symbol.png style=width:14px;height:14px>?","added_prompt":"","polygon_response":"4","modular_response":"0","rt":8592,"trial_type":"polygon-arrow-which-representation","trial_index":0,"trial_index_global":84,"time_elapsed":4204618,"internal_chunk_id":"0-0.15-0"},{"question":"Please describe in as much detail as possible how you used the arithmetic method, polygon method, or both for the problem.","response_type":"free","response_choices":[],"correct_response":"","response":"I think the inverse for z ero was  always 0\n","explain":false,"explanation":"","explanation_history":[],"response_history":["T","I thik ","I thik","I thin ","I think the inverse for s","I think the inverse for zero waw","I think the inverse for zero was alway ","I think the inverse for zero was always 0\n"],"rt":18255,"trial_type":"question","trial_index":0,"trial_index_global":85,"time_elapsed":4222874,"internal_chunk_id":"0-0.15-0"},{"nsides":9,"question":"Please answer the following question:<br /><br />Is 4 a generator under <img src=./images/nonagon_symbol.png style=width:14px;height:14px>?","response_type":"Multi","response_choices":["Yes","No"],"correct_response":"Yes","response":"Yes","explain":false,"explanation":"","explanation_history":[],"orientation_history":[[0]],"response_history":["Yes"],"rt":16224,"trial_type":"polygon-arrow-question","trial_index":0,"trial_index_global":86,"time_elapsed":4239099,"internal_chunk_id":"0-0.15-0"},{"nsides":9,"question":"Please answer the following ques tion:<br  /><br />Is 4 a generator under <img src=./images/nonagon_symbol.png style=width:14px;height:14px>?","added_prompt":"","polygon_response":"4","modular_response":"0","rt":5319,"trial_type":"polygon-arrow-which-representation","trial_index":0,"trial_index_global":87,"time_elapsed":4244418,"internal_chunk_id":"0-0.15-0"},{"question":"Please describe in as much detail as possible how you used the arithmetic method, polygon method, or both for the problem.","response_type":"free","response_choices":[],"correct_response":"","response":"I counted clockwise by fours to make sure it hit all the numbers.","explain":false,"explanation":"","explanation_history":[],"response_history":["I count","I counted clos","I counted clockwise by fours to ma","I counted clockwise by fours to make sure it hit all the numbers."],"rt":20881,"trial_type":"question","trial_index":0,"trial_index_global":88,"time_elapsed":4265300,"internal_chunk_id":"0-0.15-0"},{"nsides":"n","question":"Please answ er the f ollowing question:<br /><br />True or false: If x divides n, it must not be a generator under <img src=./images/ngon_symbol.png style=width:14px;height:14px>.","response_type":"multi","response_choices":["True","False"],"correct_response":"True","response":"True","explain":false,"explanation":"","explanation_history":[],"orientation_history":[[0]],"response_history":["True"],"rt":50395,"trial_type":"polygon-arrow-question","trial_index":0,"trial_index_global":89,"time_elapsed":4315695,"internal_chunk_id":"0-0.15-0"},{"nsides":"n","question":"Please answer the following question:<br /><br />True or false: If x divides n, it must not be a generator under <img src=./images/ngon_symbol.png style=width:14px;height:14px>.","added_prompt":"","polygon_response":"0","modular_response":"0","rt":3783,"trial_type":"polygon-arrow-which-representation","trial_index":0,"trial_index_global":90,"time_elapsed":4319479,"internal_chunk_id":"0-0.15-0"},{"question":"Please describ e in as  much detail as possible how you used the arithmetic method, polygon method, or both for the problem.","response_type":"free","response_choices":[],"correct_response":"","response":"If n is divisible by x, then no, it won't hit all the numbers.","explain":false,"explanation":"","explanation_history":[],"response_history":["I remember an exap","I remember an example where that was true.","I ","If i","If n is divisible by x, then no, it won't hit all the numbers."],"rt":54913,"trial_type":"question","trial_index":0,"trial_index_global":91,"time_elapsed":4374393,"internal_chunk_id":"0-0.15-0"},{"instructions":"We would like to ask you some questions about your background. Please press Continue to continue.","rt":2567,"trial_type":"instructions","trial_index":0,"trial_index_global":92,"time_elapsed":4376961,"internal_chunk_id":"0-0.16-0"},{"question":"What is your age?","response_type":"free","response_choices":[],"correct_response":"","response":"28","explain":false,"explanation":"","explanation_history":[],"response_history":["28"],"rt":3064,"trial_type":"question","trial_index":0,"trial_index_global":93,"time_elapsed":4380025,"internal_chunk_id":"0-0.16-0"},{"question":"What is your level of education?","response_type":"multi","response_choices":["Did not graduate high school","High school diploma","Some college, no degree","Associates Degree","Bachelors Degree","Some graduate school, no degree","Masters Degree","Doctorate, M.D., etc."],"correct_response":"","response":"Some college, no degree","explain":false,"explanation":"","explanation_history":[],"response_history":["Some college, no degree"],"rt":3679,"trial_type":"question","trial_index":0,"trial_index_global":94,"time_elapsed":4383705,"internal_chunk_id":"0-0.16-0"},{"question":"What is the most advanced math class you've completed? If you have multiple classes and you're not sure which one is most advanced, please list them.","response_type":"free","response_choices":[],"correct_response":"","response":"Calculus I","explain":false,"explanation":"","explanation_history":[],"response_history":["Calculur","Calculus *","Calculus I"],"rt":17663,"trial_type":"question","trial_index":0,"trial_index_global":95,"time_elapsed":4401369,"internal_chunk_id":"0-0.16-0"},{"question":"How familiar are you with the concept of modular arithmetic?","response_type":"multi","response_choices":["1 - never heard of it","2 - heard of it but didn't know what it was","3 - seen it used or explained","4 - used it but not often or recently","5 - used it, remember and understand it"],"correct_response":"1","response":"1 - never heard of it","explain":false,"explanation":"","explanation_history":[],"response_history":["1 - never heard of it"],"rt":4231,"trial_type":"question","trial_index":0,"trial_index_global":96,"time_elapsed":4405601,"internal_chunk_id":"0-0.16-0"},{"question":"How familiar are you with the concept of a mathematical group?","response_type":"multi","response_choices":["1 - never  heard of  it","2 - heard of it but didn't know what it was","3 - seen it used or explained","4 - used it but not often or recently","5 - used it, remember and understand it"],"correct_response":"1","response":"1 - never heard of it","explain":false,"explanation":"","explanation_history":[],"response_history":["1 - never heard of it"],"rt":2487,"trial_type":"question","trial_index":0,"trial_index_global":97,"time_elapsed":4408089,"internal_chunk_id":"0-0.16-0"},{"question":"Do you feel you learned something from this HIT?","response_type":"multi","response_choices":["1 - not at all","2 - somewhat","3 - definitely"],"correct_response":"1","response":"3 - definitely","explain":false,"explanation":"","explanation_history":[],"response_history":["3 - definitely"],"rt":4519,"trial_type":"question","trial_index":0,"trial_index_global":98,"time_elapsed":4412610,"internal_chunk_id":"0-0.16-0"},{"question":"Do you feel you understood the concepts in this HIT?","response_type":"multi","response_choices":["1 - not at all","2 - somewhat","3 - definitely"],"correct_response":"1","response":"2 - somewhat","explain":false,"explanation":"","explanation_history":[],"response_history":["2 - somewhat"],"rt":3927,"trial_type":"question","trial_index":0,"trial_index_global":99,"time_elapsed":4416538,"internal_chunk_id":"0-0.16-0"},{"question":"Did you enjoy this HIT?","response_type":"multi","response_choices":["1 - not at all","2 - somewhat","3 - definitely"],"correct_response":"1","response":"3 - definitely","explain":false,"explanation":"","explanation_history":[],"response_history":["3 - definitely"],"rt":2143,"trial_type":"question","trial_index":0,"trial_index_global":100,"time_elapsed":4418681,"internal_chunk_id":"0-0.16-0"},{"question":"What is your gender?","response_type":"multi","response_choices":["Female","Male","Other"],"correct_response":"","response":"Male","explain":false,"explanation":"","explanation_history":[],"response_history":["Male"],"rt":2039,"trial_type":"q uestion","trial_index":0,"trial_index_global":101,"time_elapsed":4420721,"internal_chunk_id":"0-0.16-0"},{"question":"What is/are your native language(s)? (The languages spoken in your household when you were a child.)","response_type":"free","response_choices":[],"correct_response":"","response":"English","explain":false,"explanation":"","explanation_history":[],"response_history":["English"],"rt":5530,"trial_type":"question","trial_index":0,"trial_index_global":102,"time_elapsed":4426252,"internal_chunk_id":"0-0.16-0"},{"question":"Did you use pen and paper at any point on this HIT?","response_type":"free","response_choices":[],"correct_response":"","response":"No","explain":false,"explanation":"","explanation_history":[],"response_history":["No"],"rt":4560,"trial_type":"question","trial_index":0,"trial_index_global":103,"time_elapsed":4430812,"internal_chunk_id":"0-0.16-0"},{"question":"Do you have any comments on this HIT?","response_type":"free","response_choices":[],"correct_response":"","response":"","explain":false,"explanation":"","explanation_history":[],"response_history":[],"rt":2159,"trial_type":"question","trial_index":0,"trial_index_global":104,"time_elapsed":4432972,"internal_chunk_id":"0-0.16-0"}]