[{"nsides":6,"instructions":"Let's define a new operation <img src=./images/hexagon_symbol.png style=width:14px;height:14px>. This operation will give us a way of combining two of the numbers 0, 1, 2, 3, 4, 5 to get another one of them back. Consider the hexagon at the right, where I've labeled each point with one of the numbers. To perform <img src=./images/hexagon_symbol.png style=width:14px;height:14px>, you can use the interactive diagram on the right, or perform the operation in your mind. Point the arrow at the first number on the hexagon by clicking, then click (or click and drag) to move the arrow the second number of points clockwise around the hexagon. The number the arrow arrives at is your result. (The operation is called <img src=./images/hexagon_symbol.png style=width:14px;height:14px> because it uses the hexagon, which has 6 sides.) <br /><br />For example, 3 <img src=./images/hexagon_symbol.png style=width:14px;height:14px> 5 =  2, becau se 5 steps clockwise from 3 on the hexagon brings us to 2. So 3 <img src=./images/hexagon_symbol.png style=width:14px;height:14px> 5 = 2.<br /><br />Similarly, 1 <img src=./images/hexagon_symbol.png style=width:14px;height:14px> 4 = 5, because 4 steps clockwise from 1 brings us to 5. <br /><br />Click Continue when you're ready to move on.","orientation_history":[0],"rt":163632,"trial_type":"polygon-arrow-instructions","trial_index":0,"trial_index_global":1,"time_elapsed":243560,"internal_chunk_id":"0-0"},{"nsides":6,"instructions":"Do you see how <img src=./images/hexagon_symbol.png style=width:14px;height:14px> works? By labeling the points of the hexagon with the numbers from 0 to 5, we ensure that when we combine two numbers under <img src=./images/hexagon_symbol.png style=width:14px;height:14px>, we only produce numbers between 0 and 5.<br /><br />Click Continue when you are ready to move on.","orientation_history":[0],"rt":28818,"trial_type":"polygon-arrow-instructions","trial_index":0,"trial_index_global":2,"time_elapsed":272383,"internal_chunk_id":"0-0"},{"nsides":6,"question":"Now try one on your own! What is 4 <img src=./images/hexagon_symbol.png style=width:14px;height:14px> 5? <br /><br /> (Remember, to perform <img src=./images/hexagon_symbol.png style=width:14px;height:14px>, you can use the interactive diagram on the right, or perform the operation in your mind. Point the arrow at the first number on the hexagon, then move the arrow the second number of points clockwise around the hexagon. The number the arrow arrives at is your result.)","response_type":"free","response_choices":[],"correct_response":"3","response":"3","explain":false,"explanation":"","explanation_history":[],"orientation_history":[[0],[0,0,0,0,0,-0.0006571740565439743,-0.0006571740565439743,-0.0006571740565439743,-0.0006571740565439743,-0.0006571740565439743,-0.0006571740565439743,-0.0006571740565439743,-0.0006571740565439743,-0.0006571740565439743,-0.0006571740565439743,-0.0006571740565439743,-0.0006571740565439743,0,0.014884481676553651,0.06091935064524012,0.1889969494142858,0.33576014565774925,0.4461055489434036,0.5138530838889468,0.5391241642074993,0.5474404480950266,0.5474404480950266,0.5598523586388612,0.5598523586388612,0.5598523586388612,0.5598523586388612,0.5598523586388612,0.5598523586388612,0.5598523586388612,0.5598523586388612,0.5598523586388612,0.5598523586388612,0.5598523586388612,0.5598523586388612,0.5598523586388612,0.5598523586388612,0.7084050495075787,0.7406519319428326,0.7514042057339338,0.7623876387846252,0.7623876387846252,0.7841028273343634,0.8273902706188178,0.8609474088707867,0.8795369474630457,0.9674507799967185,1.0360927690865527,1.0558666316935437,1.081630885439182,1.11930302361431,1.1323518713802567,1.1507792724843235,1.1558792674980642,1.1558792674980642,1.1558792674980642,1.1558792674980642,1.1558792674980642,1.1558792674980642,1.1558792674980642,1.1558792674980642,1.1558792674980642,1.1558792674980642,1.1689160848194875,1.1820809756169197,1.1820809756169197,1.1820809756169197,1.1820809756169197,1.1820809756169197,1.1820809756169197,1.1820809756169197,1.1820809756169197,1.195371206763802,1.2439263631975654,1.2777601860372128,1.307381149466339,1.3498153976036051,1.393498563043607,1.4342039690755435,1.474812927936862,1.526050095340281,1.5635325320319424,1.5990906606434003,1.6578123618182075,1.7142716006450516,1.7682586824499014,1.8374203997381828,1.8785077181669851,1.8785077181669851,2.0943951023931953],[2.0943951023931953,2.0943951023931953,2.0943951023931953,2.0943951023931953,2.0943951023931953,2.0943951023931953,2.0943951023931953,2.0943951023931953,2.0943951023931953,2.0943951023931953,2.0943951023931953,2.0943951023931953,2.1018391336244466,2.1140969863060044,2.133978376330292,2.133978376330292,2.1742250881054326,2.206147013879681,2.2468551444004126,2.276954955524102,2.2977311864214713,2.349899692551785,2.349899692551785,2.401792575516017,2.4225149974085007,2.472600517160438,2.524721715515754,2.532801092230907,2.5721875786267936,2.610852247918974,2.6737022729289843,2.7416948633805003,2.807313193662877,2.8409778197091797,2.8538250785790873,2.889226948196644,2.917275702482305,2.929908009228636,2.9449184291250297,2.9740255477970865,2.9881287664264207,3.014114707743612,3.040633688386337,3.0534644641322175,3.089902347362718,3.1020485680758667,3.1247719289175078,3.1361350761817985,3.1361350761817985,3.1361350761817985,3.158092924795755,3.1906106982202016,3.296962743440447,3.394621084855977,3.443327606005575,3.46239416630594,3.471833532456998,3.4997636560508765,3.5619939726584957,3.622594261534509,3.6893413225856078,3.7385420239340763,3.753568215332941,3.753568215332941,3.753568215332941,3.753568215332941,3.753568215332941,3.753568215332941,3.753568215332941,3.753568215332941,3.753568215332941,3.753568215332941,3.753568215332941,3.7793426962408994,3.852170699107003,3.8971838093947837,3.962071490773129,3.981019051859566,4.0208273134888515,4.0208273134888515,4.026525257521831,4.026525257521831,4.05206714691912,4.064770637746157,4.110078209691681,4.122602112823698,4.130231794948521,4.130231794948521,4.130231794948521,4.142727034119865,4.203473038541576,4.223790744531653,4.272714329579463,4.301480370777167,4.327068162724849,4.35627564125836,4.394342677850018,4.423629834057909,4.434965863965063,4.470857087297761,4.479926545797934,4.489032182606728,4.507346750407633,4.545755799139506,4.554992204302847,4.564252816729317,4.582840644122026,4.582840644122026,4.602380993943525,4.620940750004891,4.630240786089052,4.648873251669073,4.6582024779096205,4.6672739218639006,4.686044734118791,4.695568255712404,4.714796654812112,4.734383701793867,4.74454865663613,4.764764534330986,4.774611149890996,4.795236908203567,4.806225476886299,4.817410692732322,4.828795007352783,4.848992177291249,4.859044693883098,4.89500880248664,4.907395803193822,4.9302908681976,4.945768803490045,4.956170647459745,4.966515106050824,4.990114638711834,5.000371280302641,5.027627723255289,5.051787911108555,5.065891685415179,5.076074632824769,5.076074632824769,5.076074632824769,5.076074632824769,5.076074632824769,5.076074632824769,5.076074632824769,5.076074632824769,5.08617529941009,5.08617529941009,5.08617529941009,5.08617529941009,5.08617529941009,5.08617529941009,5.08617529941009,5.08617529941009,5.08617529941009,5.08617529941009,5.08617529941009,5.08617529941009,5.08617529941009,5.08617529941009,5.08617529941009,5.08617529941009,5.08617529941009,5.08617529941009,5.08617529941009,5.08617529941009,5.08617529941009,5.08617529941009,5.08617529941009,5.08617529941009,5.08617529941009,5.08617529941009,5.08617529941009,5.08617529941009,5.08617529941009,5.08617529941009,5.08617529941009,5.08617529941009,5.08617529941009,5.08617529941009,5.08617529941009,5.08617529941009,5.08617529941009,5.08617529941009,5.08617529941009,5.08617529941009,5.08617529941009,5.08617529941009,5.08617529941009,5.08617529941009,5.08617529941009,5.08617529941009,5.08617529941009,5.08617529941009,5.08617529941009,5.08617529941009,5.08617529941009,5.08617529941009,5.08617529941009,5.08617529941009,5.08617529941009,5.08617529941009,5.08617529941009,5.08617529941009,5.08617529941009,5.08617529941009,5.08617529941009,5.08617529941009,5.08617529941009,5.08617529941009,5.08617529941009,5.08617529941009,5.08617529941009,5.08617529941009,5.08617529941009,5.08617529941009,5.08617529941009,5.08617529941009,5.08617529941009,5.08617529941009,5.08617529941009,5.08617529941009,5.08617529941009,5.08617529941009,5.08617529941009,5.08617529941009,5.08617529941009,5.08617529941009,5.08617529941009,5.08617529941009,5.08617529941009,5.08617529941009,5.08617529941009,5.08617529941009,5.08617529941009,5.08617529941009,5.08617529941009,5.08617529941009,5.08617529941009,5.08617529941009,5.08617529941009,5.08617529941009,5.08617529941009,5.08617529941009,5.08617529941009,5.08617529941009,5.08617529941009,5.08617529941009,5.08617529941009,5.08617529941009,5.08617529941009,5.08617529941009,5.096192642581727,5.129521625106301,5.144291599723125,5.154265410104367,5.154265410104367,5.154265410104367,5.154265410104367,5.154265410104367,5.154265410104367,5.154265410104367,5.164141933241632,5.18421065833213,5.18421065833213,5.18421065833213,5.18421065833213,5.194027666179084,5.209174260435153,5.209174260435153,5.209174260435153,5.209174260435153,5.209174260435153,5.209174260435153,5.209174260435153,5.209174260435153,5.209174260435153,5.209174260435153,5.209174260435153,5.209174260435153,5.209174260435153,5.209174260435153,5.209174260435153,5.209174260435153,5.209174260435153,5.209174260435153,5.209174260435153,5.209174260435153,5.209174260435153,5.209174260435153,5.209174260435153,5.209174260435153,5.209174260435153,5.209174260435153,5.209174260435153,5.209174260435153,5.209174260435153,5.209174260435153,5.209174260435153,5.209174260435153,5.209174260435153,5.209174260435153,5.209174260435153,5.209174260435153,5.209174260435153,5.209174260435153,5.209174260435153,5.209174260435153,5.209174260435153,5.209174260435153,5.209174260435153,5.209174260435153,5.209174260435153,5.209174260435153,5.209174260435153,5.209174260435153,5.209174260435153,5.209174260435153,5.209174260435153,5.209174260435153,5.209174260435153,5.209174260435153,5.209174260435153,5.209174260435153,5.209174260435153,5.209174260435153,5.209174260435153,5.209174260435153,5.209174260435153,5.209174260435153,5.209174260435153,5.209174260435153,5.209174260435153,5.209174260435153,5.209174260435153,5.209174260435153,5.209174260435153,5.209174260435153,5.209174260435153,5.209174260435153,5.209174260435153,5.209174260435153,5.209174260435153,5.209174260435153,5.209174260435153,5.209174260435153,5.209174260435153,5.209174260435153,5.209174260435153,5.224449806465529,5.2614225828204635,5.277221738225995,5.283570859259971,5.283570859259971,5.283570859259971,5.290043260787266,5.290043260787266,5.290043260787266,5.290043260787266,5.290043260787266,5.290043260787266,5.290043260787266,5.290043260787266,5.290043260787266,5.290043260787266,5.290043260787266,5.290043260787266,5.290043260787266,5.290043260787266,5.290043260787266,5.290043260787266,5.290043260787266,5.290043260787266,5.290043260787266,5.290043260787266,5.290043260787266,5.290043260787266,5.290043260787266,5.290043260787266,5.290043260787266,5.290043260787266,5.290043260787266,5.290043260787266,5.290043260787266,5.290043260787266,5.290043260787266,5.290043260787266,5.290043260787266,5.290043260787266,5.290043260787266,5.290043260787266,5.290043260787266,5.290043260787266,5.290043260787266,5.290043260787266,5.290043260787266,5.290043260787266,5.290043260787266,5.290043260787266,5.290043260787266,5.290043260787266,5.290043260787266,5.290043260787266,5.290043260787266,5.290043260787266,5.290043260787266,5.290043260787266,5.290043260787266,5.290043260787266,5.290043260787266,5.290043260787266,5.290043260787266,5.290043260787266,5.290043260787266,5.290043260787266,5.290043260787266,5.290043260787266,5.290043260787266,5.290043260787266,5.290043260787266,5.290043260787266,5.280313541789965,5.270456856982497,5.260472657743181,5.254167571055966,5.254167571055966,5.244117658162931,5.244117658162931,5.244117658162931,5.244117658162931,5.244117658162931,5.227890766945251,5.227890766945251,5.217659869540691,5.217659869540691,5.217659869540691,5.217659869540691,5.217659869540691,5.217659869540691,5.217659869540691,5.217659869540691,5.217659869540691,5.217659869540691,5.217659869540691,5.217659869540691,5.217659869540691,5.217659869540691,5.217659869540691,5.217659869540691,5.217659869540691,5.217659869540691,5.217659869540691,5.217659869540691,5.217659869540691,5.217659869540691,5.217659869540691,5.217659869540691,5.217659869540691,5.217659869540691,5.217659869540691,5.217659869540691,5.217659869540691,5.217659869540691,5.217659869540691,5.217659869540691,5.217659869540691,5.217659869540691,5.217659869540691,5.217659869540691,5.217659869540691,5.217659869540691,5.217659869540691,5.217659869540691,5.217659869540691,5.217659869540691,5.217659869540691,5.217659869540691,5.217659869540691,5.217659869540691,5.217659869540691,5.217659869540691,5.217659869540691,5.217659869540691,5.217659869540691,5.217659869540691,5.217659869540691,5.217659869540691,5.235987755982988],[5.235987755982988,5.235987755982988,5.235987755982988,5.235987755982988,5.235987755982988,5.235987755982988,5.235987755982988,5.235987755982988,5.235987755982988,5.235987755982988,5.235987755982988,5.235987755982988,5.235987755982988,5.235987755982988,5.235987755982988,5.235987755982988,5.235987755982988,5.235987755982988,5.235987755982988,5.248233680642402,5.295080749342453,5.335327461117593,5.376121143985459,5.407957517412573,5.417334906643779,5.50047613853222,5.553059200143162,5.592994759651868,5.633702890172598,5.653900060111065,5.665624815946847,5.697871698382102,5.757799853503309,5.802748637112335,5.8414550920285695,5.8414550920285695,5.8414550920285695,5.8414550920285695,5.8414550920285695,5.8414550920285695,5.8414550920285695,5.8414550920285695,5.847537742071711,5.860424664559626,5.88464550292482,5.902797236392661,5.902797236392661,5.902797236392661,5.902797236392661,5.902797236392661,5.902797236392661,5.920672852141496,5.990433464785949,6.024395486217419,6.024395486217419,6.024395486217419,6.024395486217419,6.024395486217419,6.024395486217419,6.024395486217419,6.0375843926266,6.0375843926266,6.0375843926266,6.0375843926266,6.0375843926266,6.0701081055226265,6.085881345323488,6.114246233548789,6.129272424947653,6.155046905855611,6.168002198732452,6.180997363199435,6.207090340940525,6.221030274376462,6.221030274376462,6.221030274376462,6.221030274376462,6.221030274376462,6.2339729034714955,6.2339729034714955,0.0026889947500823297,0.015346546584134257,0.027683788369002427,0.04017143144174384,0.04017143144174384,0.04017143144174384,0.04017143144174384,0.04017143144174384,0.04017143144174384,0.04017143144174384,0.04017143144174384,0.04017143144174384,0.04017143144174384,0.04017143144174384,0.04017143144174384,0.04017143144174384,0.04017143144174384,0.04017143144174384,0.04017143144174384,0.04017143144174384,0.04017143144174384,0.04017143144174384,0.04017143144174384,0.04017143144174384,0.04017143144174384,0.04017143144174384,0.04017143144174384,0.04017143144174384,0.04017143144174384,0.04017143144174384,0.04017143144174384,0.04017143144174384,0.04017143144174384,0.04017143144174384,0.04017143144174384,0.04017143144174384,0.04017143144174384,0.04017143144174384,0.10361077941737618,0.1950845962660046,0.24766765787694633,0.3525445966071803,0.4092558213446238,0.460686946347304,0.5344130620088878,0.6011078882286195,0.6658919874561755,0.691047772165531,0.7262193122831505,0.7530138276143052,0.7792378316312728,0.805629218204933,0.8488817140223195,0.8834492050499395,0.8929640968777645,0.9102823288388856,0.9102823288388856,0.9275272152388683,0.937409818841228,0.937409818841228,0.9446890351295459,0.9446890351295459,0.9518253992618898,0.9854827179974114,1.0186930944070833,1.0289336133889422,1.0558362121682046,1.0779336480591504,1.0990854387530715,1.0990854387530715,1.0990854387530715,1.0990854387530715,1.0990854387530715,1.0990854387530715,1.0990854387530715,1.0990854387530715,1.0990854387530715,1.0990854387530715,1.0990854387530715,1.0990854387530715,1.0990854387530715,1.0990854387530715,1.0990854387530715,1.0990854387530715,1.0990854387530715,1.0990854387530715,1.0990854387530715,1.0990854387530715,1.0990854387530715,1.0990854387530715,1.0990854387530715,1.0990854387530715,1.0990854387530715,1.1478628532053474,1.1861917183389026,1.247843736201692,1.3136709516991407,1.3881373715492842,1.4043840955436018,1.4299019278985103,1.4432738785805825,1.5038307478164108,1.5619915748299484,1.6511068302823724,1.673153974036141,1.7045969700275256,1.7261346499402441,1.735106676727992,1.7456761360679178,1.7771438475225272,1.7875460051088004,1.8057743105160007,1.8260395973230383,1.8260395973230383,1.836094399562025,1.8560402740145663,1.8659283089970153,1.8855274431075122,1.9048818790092983,1.9048818790092983,1.9299222737651753,1.9392326228073233,1.9539916986573438,1.9539916986573438,1.9630330436050112,1.9720077672113991,1.9809151734461539,1.9858957631423662,2.0032476006416675,2.020327790030743,2.0287649250334927,2.0330007226603324,2.0412481336528963,2.0412481336528963,2.0412481336528963,2.0412481336528963,2.0412481336528963,2.0412481336528963,2.0412481336528963,2.0412481336528963,2.0412481336528963,2.0412481336528963,2.0412481336528963,2.0412481336528963,2.0412481336528963,2.0412481336528963,2.0412481336528963,2.0412481336528963,2.0412481336528963,2.0412481336528963,2.0412481336528963,2.0412481336528963,2.0412481336528963,2.0412481336528963,2.0412481336528963,2.0412481336528963,2.0412481336528963,2.0412481336528963,2.0655805387158077,2.073554064760292,2.089294407021501,2.1015597699713386,2.1092965595054425,2.1216088296430633,2.136801583036947,2.149112319305345,2.173925094724455,2.186420413415597,2.2042829395112262,2.229736194814407,2.2880345253978174,2.332915297730871,2.3395310625269725,2.365335008335396,2.391130367377681,2.4040141099971764,2.429732444487037,2.4425586196098235,2.455357260125014,2.4808556404724484,2.493547392635432,2.5061956490710164,2.536479652225915,2.5438418751603993,2.5612051133207308,2.5809653868479074,2.593208061094658,2.605379597587423,2.6294975565909686,2.641438437412015,2.6573824165286064,2.688355893580331,2.711275786716249,2.7416269947880028,2.757405930608847,2.782552406819943,2.793361650929447,2.8119494783221572,2.8251420540675882,2.8433614139794505,2.8559376842747506,2.8759154374339686,2.8857379258406937,2.8973909416540002,2.9239192239832184,2.933188315117129,2.93480208456078,2.9589336983441807,2.9678411045789357,2.9678411045789357,2.982906537919184,2.998046226160089,3.0066949118695256,3.015231852605619,3.031130666749391,3.031130666749391,3.03861606624002,3.046113369816644,3.05362176113913,3.0692348847434348,3.084650935208706,3.092476191548874,3.1001925909418038,3.10753349329688,3.10753349329688,3.10753349329688,3.10753349329688,3.1148783601358705,3.1222264016463606,3.1222264016463606,3.1222264016463606,3.1222264016463606,3.1222264016463606,3.1222264016463606,3.1222264016463606,3.1222264016463606,3.1222264016463606,3.1222264016463606,3.1222264016463606,3.1222264016463606,3.1222264016463606,3.1222264016463606,3.1222264016463606,3.1222264016463606,3.1222264016463606,3.1222264016463606,3.1222264016463606,3.1222264016463606,3.1222264016463606,3.1222264016463606,3.1222264016463606,3.1222264016463606,3.1222264016463606,3.1222264016463606,3.1222264016463606,3.1222264016463606,3.1222264016463606,3.1222264016463606,3.1222264016463606,3.1222264016463606,3.1222264016463606,3.1222264016463606,3.1222264016463606,3.1222264016463606,3.1222264016463606,3.1222264016463606,3.1222264016463606,3.1222264016463606,3.1222264016463606,3.1222264016463606,3.1222264016463606,3.1222264016463606,3.1222264016463606,3.1222264016463606,3.1222264016463606,3.1222264016463606,3.1222264016463606,3.1222264016463606,3.1222264016463606,3.1222264016463606,3.1222264016463606,3.1222264016463606,3.1222264016463606,3.1222264016463606,3.1222264016463606,3.1222264016463606,3.1222264016463606,3.1222264016463606,3.1222264016463606,3.1222264016463606,3.141592653589793]],"response_history":["3"],"rt":73480,"trial_type":"polygon-arrow-question","trial_index":0,"trial_index_global":3,"time_elapsed":345873,"internal_chunk_id":"0-0.3-0"},{"nsides":6,"feedback":"Correct! 4 <img src=./images/hexagon_symbol.png style=width:14px;height:14px> 5 = 3 because 5 steps clockwise on the hexagon from 4 brings us to 3","orientation_history":[0],"rt":4860,"trial_type":"polygon-arrow-feedback","trial_index":0,"trial_index_global":4,"time_elapsed":350738,"internal_chunk_id":"0-0.3-0"},{"nsides":6,"question":"What is 3 <img src=./images/hexagon_symbol.png style=width:14px;height:14px> 2? <br /><br /> (Remember, to perform <img src=./images/hexagon_symbol.png style=width:14px;height: 14px>,  you can use the interactive diagram on the right, or perform the operation in your mind. Point the arrow at the first number on the hexagon, then move the arrow the second number of points clockwise around the hexagon. The number the arrow arrives at is your result.)","response_type":"free","response_choices":[],"correct_response":"5","response":"5","explain":false,"explanation":"","explanation_history":[],"orientation_history":[[0],[0,0,0,0,0,0,0,0,0,0,0,0,0,0,0,0,0,0,0,0,0,0,0,0,0,0,-6.152460972014161,-6.041643056642709,-5.868428370084383,-5.851784580614034,-5.851784580614034,-5.851784580614034,-5.851784580614034,-5.851784580614034,-5.851784580614034,-5.835361546868628,-5.788759735416838,-5.746749849574854,-5.695182703632018,-5.668872986379096,-5.603911569563634,-5.576292135569744,-5.533345272393595,-5.464287616328014,-5.435712301439654,-5.375715250291273,-5.312617304034804,-5.160357550593535,-5.117584348931242,-4.961351686177406,-4.778597884251414,-4.449448177409968,-4.29547221943408,-4.160639915628552,-4.003762708257019,-3.9193864008335475,-3.8394290265869673,-3.781680806351539,-3.720752451523856,-3.6820121538603767,-3.629820788273273,-3.569704769167801,-3.522787577758826,-3.488800670012571,-3.469970504184115,-3.385466344790676,-3.3787399888355214,-3.3501609328784125,-3.3389882134396736,-3.3126784961867513,-3.2872210341606154,-3.279357500308504,-3.2591582277274362,-3.2591582277274362,-3.2591582277274362,-3.2591582277274362,-3.2388220485517483,-3.2388220485517483,-3.193678202803971,-3.152765373028532,-3.1516379777902834,-3.1516379777902834,-3.1516379777902834,-3.1516379777902834,-3.1516379777902834,-3.1516379777902834,-3.1516379777902834,-3.1516379777902834,-3.1516379777902834,-3.1516379777902834,-3.1516379777902834,-3.1516379777902834,-3.1516379777902834,-3.1516379777902834,-3.1516379777902834,-3.1516379777902834,-3.1516379777902834,-3.1516379777902834,-3.1516379777902834,-3.1516379777902834,-3.1516379777902834,-3.1516379777902834,-3.1516379777902834,-3.1516379777902834,-3.1516379777902834,-3.1516379777902834,-3.1516379777902834,-3.1516379777902834,-3.1516379777902834,-3.1516379777902834,-3.1516379777902834,-3.1516379777902834,-3.1516379777902834,-3.1516379777902834,-3.1516379777902834,-3.1516379777902834,-3.1516379777902834,-3.1516379777902834,-3.1516379777902834,-3.1516379777902834,-3.1516379777902834,-3.1516379777902834,-3.1516379777902834,-3.1516379777902834,-3.1516379777902834,-3.1516379777902834,-3.1516379777902834,-3.1516379777902834,-3.1516379777902834,-3.1516379777902834,-3.1516379777902834,-3.1516379777902834,-3.1516379777902834,-3.1516379777902834,-3.1516379777902834,-3.1516379777902834,-3.1516379777902834,-3.1516379777902834,-3.1516379777902834,-3.1516379777902834,-3.1516379777902834,-3.1516379777902834,-3.1516379777902834,-3.1516379777902834,-3.1516379777902834,-3.1516379777902834,-3.1516379777902834,-3.1516379777902834,-3.1516379777902834,-3.1516379777902834,-3.1516379777902834,-3.1516379777902834,-3.1516379777902834,-3.1516379777902834,-3.1516379777902834,-3.1516379777902834,-3.1516379777902834,-3.1516379777902834,-3.1516379777902834,-3.1516379777902834,-3.1516379777902834,-3.1516379777902834,-3.1516379777902834,-3.1516379777902834,-3.1516379777902834,-3.1516379777902834,-3.1516379777902834,-3.1516379777902834,-3.1516379777902834,-3.1516379777902834,-3.1516379777902834,-3.1516379777902834,-3.1516379777902834,-3.1516379777902834,-3.1516379777902834,-3.1516379777902834,-3.1516379777902834,-3.1516379777902834,-3.1516379777902834,-3.1516379777902834,-3.1516379777902834,-3.1516379777902834,-3.1516379777902834,-3.1516379777902834,-3.1516379777902834,-3.1516379777902834,-3.1516379777902834,-3.1516379777902834,-3.1516379777902834,-3.1516379777902834,-3.1516379777902834,-3.1516379777902834,-3.1516379777902834,-3.1516379777902834,-3.1516379777902834,-3.1516379777902834,-3.1516379777902834,-3.1516379777902834,-3.1516379777902834,-3.1516379777902834,-3.1516379777902834,-3.1516379777902834,-3.1516379777902834,-3.1516379777902834,-3.1516379777902834,-3.1516379777902834,-3.1516379777902834,-3.1516379777902834,-3.1516379777902834,-3.1516379777902834,-3.1516379777902834,-3.1516379777902834,-3.1516379777902834,-3.1516379777902834,-3.1516379777902834,-3.1516379777902834,-3.1516379777902834,-3.1516379777902834,-3.1516379777902834,-3.1516379777902834,-3.1516379777902834,-3.1516379777902834,-3.1516379777902834,-3.1516379777902834,-3.1516379777902834,-3.1516379777902834,-3.1516379777902834,-3.1516379777902834,-3.1516379777902834,-3.1516379777902834,-3.1516379777902834,-3.1516379777902834,-3.1516379777902834,-3.1324521403339975,-3.1324521403339975,-3.1132379494125164,-3.1132379494125164,-3.1132379494125164,-3.1132379494125164,-3.1132379494125164,-3.1132379494125164,-3.0940095503128093,-3.074012216339659,-2.9461601850540537,-2.92541261070338,-2.9007980664650033,-2.9007980664650033,-2.9007980664650033,-2.9007980664650033,-2.8966139904629284,-2.8277575011618836,-2.8004205629040593,-2.730030593803165,-2.700951531130877,-2.692138902872353,-2.6406708544582465,-2.609531621275786,-2.5891481786536827,-2.5378433201923563,-2.4870218862664015,-2.4050851620979476,-2.4050851620979476,-2.390395767533357,-2.3730382263409147,-2.3730382263409147,-2.357752121331381,-2.340858269350615,-2.2610282836383777,-2.1536146449914204,-2.0423593377644353,-1.952975502614601,-1.9281050098029962,-1.9037196006302777,-1.9037196006302777,-1.9037196006302777,-1.9037196006302777,-1.9037196006302777,-1.9037196006302777,-1.9037196006302777,-1.9037196006302777,-1.9037196006302777,-1.9037196006302777,-1.9037196006302777,-1.9037196006302777,-1.9037196006302777,-1.9037196006302777,-1.9037196006302777,-1.9037196006302777,-1.9037196006302777,-1.9037196006302777,-1.9037196006302777,-1.9037196006302777,-1.9037196006302777,-1.9037196006302777,-1.9037196006302777,-1.9037196006302777,-1.9037196006302777,-1.9037196006302777,-1.9037196006302777,-1.9037196006302777,-1.9037196006302777,-1.9037196006302777,-1.9037196006302777,-1.9037196006302777,-1.9037196006302777,-1.9037196006302777,-1.9037196006302777,-1.9037196006302777,-1.9037196006302777,-1.9037196006302777,-1.9037196006302777,-1.9037196006302777,-1.9037196006302777,-1.8146700179957795,-1.7633842313780859,-1.6850506547563358,-1.6883619009325397,-1.6710625887766684,-1.6314838143783685,-1.6118691053853498,-1.5676284387648236,-1.545431788844632,-1.5232132235179128,-1.478798008271002,-1.4345573416504758,-1.4125560023440178,-1.3433597237254347,-1.2151604424941365,-1.1946600529664613,-1.174442219934006,-1.1545173208598625,-1.1155817180602865,-1.0965857303910367,-1.0965857303910367,-1.0965857303910367,-1.0878599483656108,-1.0878599483656108,-1.0878599483656108,-1.0878599483656108,-1.068911136824597,-1.0503066198549833,-1.032049625231653,-1.032049625231653,-1.032049625231653,-1.032049625231653,-1.032049625231653,-1.032049625231653,-1.032049625231653,-1.032049625231653,-1.032049625231653,-1.032049625231653,-1.032049625231653,-1.032049625231653,-1.032049625231653,-1.032049625231653,-1.032049625231653,-1.032049625231653,-1.032049625231653,-1.032049625231653,-1.032049625231653,-1.032049625231653,-1.032049625231653,-1.032049625231653,-1.032049625231653,-1.032049625231653,-1.032049625231653,-1.032049625231653,-1.032049625231653,-1.032049625231653,-1.032049625231653,-1.032049625231653,-1.032049625231653,-1.032049625231653,-1.032049625231653,-1.032049625231653,5.235987755982988]],"response_history":["5"],"rt":13154,"trial_type":"polygon-arrow-question","trial_index":0,"trial_index_global":5,"time_elapsed":363894,"internal_chunk_id":"0-0.3-0"},{"nsides":6,"feedback":"Correct! 3 <img src=./images/hexagon_symbol.png style=width:14px;height:14px> 2 = 5 because 2 steps clockwise on the hexagon from 3 brings us to 5","orientation_history":[0],"rt":1958,"trial_type":"polygon-arrow-feedback","trial_index":0,"trial_index_global":6,"time_elapsed":365854,"internal_chunk_id":"0-0.3-0"},{"nsides":6,"question":"What is 1 <img src=./images/h exagon_s ymbol.png style=width:14px;height:14px> 5? <br /><br /> (Remember, to perform <img src=./images/hexagon_symbol.png style=width:14px;height:14px>, you can use the interactive diagram on the right, or perform the operation in your mind. Point the arrow at the first number on the hexagon, then move the arrow the second number of points clockwise around the hexagon. The number the arrow arrives at is your result.)","response_type":"free","response_choices":[],"correct_response":"0","response":"0","explain":false,"explanation":"","explanation_history":[],"orientation_history":[[0],[0,0,0,0,0,0,0,0,0,-6.267801905398991,-6.267801905398991,-6.252178176778514,-6.252178176778514,-6.252178176778514,-6.252178176778514,-6.252178176778514,-6.252178176778514,-6.252178176778514,-6.236066531870533,-6.218661170982971,-6.201233741623167,-6.200108882705022,-6.164720296876291,-6.143446910852229,-6.125904850794827,-6.125904850794827,-6.108450264495074,-6.073842758139097,-6.07040634554911,-6.027267657453086,-5.986964180777788,-5.915757591083573,-5.915757591083573,-5.812701096830796,-5.727382405128407,-5.7010726878754845,-5.6475524194161695,-5.620409765659062,-5.578001860665383,-5.536405242377511,-5.536405242377511,-5.536405242377511,-5.536405242377511,-5.523476520591997,-5.482403742001543,-5.4413309634110885,-5.399262510113101,-5.371746520827647,-5.359735086497086,-5.344397718344023,-5.344397718344023,-5.344397718344023,-5.344397718344023,-5.317255064586916,-5.306169044264867,-5.274197792477555,-5.237425078874678,-5.185857932931842,-5.143848047089858,-5.119010608506311,-5.077511955716459,-5.077511955716459,-5.077511955716459,-5.077511955716459,-5.077511955716459,-5.077511955716459,-5.077511955716459,-5.077511955716459,-5.077511955716459,-5.077511955716459,-5.077511955716459,-5.077511955716459,-5.077511955716459,-5.077511955716459,-5.077511955716459,-5.077511955716459,-5.077511955716459,-5.077511955716459,-5.077511955716459,-5.077511955716459,-5.0946335701262235,-5.1115124531888805,-5.1115124531888805,-5.1115124531888805,-5.1115124531888805,-5.128144319322876,-5.128144319322876,-5.128144319322876,-5.144525553761264,-5.144525553761264,-5.144525553761264,-5.144525553761264,-5.1606531876049,-5.1606531876049,-5.1606531876049,-5.1606531876049,-5.1606531876049,-5.1606531876049,-5.1606531876049,-5.17652487059669,-5.17652487059669,-5.17652487059669,-5.17652487059669,-5.17652487059669,-5.17652487059669,-5.17652487059669,-5.17652487059669,-5.17652487059669,-5.17652487059669,-5.17652487059669,-5.17652487059669,-5.17652487059669,-5.17652487059669,-5.17652487059669,-5.17652487059669,-5.17652487059669,-5.17652487059669,-5.17652487059669,-5.17652487059669,-5.17652487059669,-5.17652487059669,-5.17652487059669,-5.17652487059669,-5.17652487059669,-5.1606531876049,-5.12067450048161,-5.087612622301781,-5.070732398569648,-5.053625714555526,-5.0129758505570745,-4.9955045101902735,-4.977843303225297,-4.937539826549999,-4.919666519240459,-4.880116395866578,-4.844083933992497,-4.823597705884066,-4.805666794444682,-4.769605032334589,-4.769605032334589,-4.751497034844825,-4.751497034844825,-4.751497034844825,-4.733353199623115,-4.697005578604094,-4.6788257635311155,-4.6788257635311155,-4.642514122363363,-4.6244061248736,-4.5883443627635065,-4.5525640002294505,-4.5525640002294505,-4.5525640002294505,-4.5525640002294505,-4.5348067451407115,-4.517152078811616,-4.482190178202435,-4.464901740528939,-4.430753529453169,-4.413909793304599,-4.413909793304599,-4.38071945069194,-4.348234575020188,-4.332270764339681,-4.300924137039787,-4.285549335190392,-4.2554132162968035,-4.2261117196233915,-4.211778586036758,-4.1837533057378335,-4.170062351414664,-4.170062351414664,-4.15658607833351,-4.15658607833351,-4.15658607833351,-4.15658607833351,-4.15658607833351,-4.15658607833351,-4.15658607833351,-4.15658607833351,-4.15658607833351,-4.15658607833351,-4.15658607833351,-4.15658607833351,-4.15658607833351,-4.15658607833351,-4.15658607833351,-4.15658607833351,-4.15658607833351,-4.15658607833351,-4.130276361080588,-4.117441593310771,-4.092406988510618,-4.068209292188661,-4.04760483324403,-3.9947486470950873,-3.9851587056951856,-3.9431758716944243,-3.911607415206646,-3.890777095170429,-3.8601066042554204,-3.839567349819818,-3.7986877544540434,-3.769710360602482,-3.7381116862438644,-3.7102903068320052,-3.678793602099912,-3.6522756708059614,-3.6333077562015346,-3.626650064956492,-3.626650064956492,-3.626650064956492,-3.626650064956492,-3.626650064956492,-3.626650064956492,-3.620150620728779,-3.5838689084260906,-3.578023093706853,-3.5431073222190914,-3.509107968855141,-3.509107968855141,-3.504351567131799,-3.492464812239975,-3.492464812239975,-3.492464812239975,-3.492464812239975,-3.492464812239975,-3.47176483239091,-3.45583365922994,-3.4164741517382415,-3.3978088435692735,-3.3829175822425834,-3.365440851772858,-3.351247538301803,-3.337302585031944,-3.337302585031944,-3.337302585031944,-3.337302585031944,-3.337302585031944,-3.337302585031944,-3.3258931371842992,-3.323604811659078,-3.310152708346373,-3.310152708346373,-3.310152708346373,-3.310152708346373,-3.310152708346373,-3.310152708346373,-3.310152708346373,-3.310152708346373,-3.310152708346373,-3.310152708346373,-3.310152708346373,-3.310152708346373,-3.310152708346373,-3.310152708346373,-3.310152708346373,-3.310152708346373,-3.310152708346373,-3.2857609727424575,-3.2632754261193853,-3.2281276192900714,-3.1716325312307747,-3.1034858909675567,-3.0694520939871044,-3.0573527625081534,-3.0459224365261814,-3.0345130955493347,-2.951537052800958,-2.926525366434096,-2.8044586974125556,-2.745702874696833,-2.7259685947752237,-2.7213174655241144,-2.6995817586823216,-2.6572425440368757,-2.6144704094938396,-2.5676099364656353,-2.525135497311448,-2.473362620708423,-2.4496232932289943,-2.4239523203001907,-2.407379252187573,-2.390769484133692,-2.390769484133692,-2.382803195633119,-2.382803195633119,-2.382803195633119,-2.366015833738691,-2.3492142519593964,-2.3408110884117495,-2.3156063430848075,-2.29881898119038,-2.2742429246359257,-2.257669856523308,-2.2486360508552874,-2.222719059992655,-2.1989140338075854,-2.172915165161375,-2.172915165161375,-2.172915165161375,-2.172915165161375,-2.172915165161375,-2.172915165161375,-2.172915165161375,-2.172915165161375,-2.172915165161375,-2.172915165161375,-2.172915165161375,-2.172915165161375,-2.172915165161375,-2.172915165161375,-2.172915165161375,-2.172915165161375,-2.1367931088192007,-2.0937874383605317,-2.0135660838118907,-1.9685417572927024,-1.8690335772309998,-1.8690335772309998,-1.768351274593698,-1.7161756656401357,-1.6510110436781416,-1.6101527050641815,-1.5554129250143012,-1.514340146423847,-1.4734054794881155,-1.4462594621054237,-1.4078448537003068,-1.3605490053254288,-1.3479166985790991,-1.3353512223807362,-1.3134923563298964,-1.3012881754586667,-1.2891608758633764,-1.2771132660091897,-1.2604758661654945,-1.2374646336630102,-1.2187381056275735,-1.2187381056275735,-1.196642254743729,-1.179170914376928,-1.1579948411297272,-1.1475449570403908,-1.137188595435072,-1.126926697968524,-1.1167601096324153,-1.1066895810035797,-1.1066895810035797,-1.096715770622338,-1.0673799068407765,-1.0483144206219643,-1.0335786451998912,-1.0094276195085632,-0.9886837074907948,-0.9794943253959483,-0.9553627116125476,-0.9491752608272686,-0.9097236359060163,-0.9010426790437469,-0.8704508736657042,-0.8467866528866308,-0.8396693353454205,-0.8087550592803323,-0.7541430786250629,-0.7216653749649504,-0.6969741963137333,-0.6735409864342659,-0.6486627610460891,-0.6075256523996497,-0.5531411459504447,-0.5169391094522506,-0.4905669974904807,-0.47457392447313307,-0.44826420722021076,-0.42699082119615017,-0.42699082119615017,-0.42699082119615017,-0.40042838724403307,-0.389508384504488,-0.36736010806497976,-0.3561344533661135,-0.3405743363873901,-0.31786089933107764,-0.30636715261604675,-0.2947846590073908,-0.27136200235134655,-0.27136200235134655,-0.27136200235134655,-0.27136200235134655,-0.27136200235134655,-0.2595264397000774,-0.24761132990032397,-0.24761132990032397,-0.24761132990032397,-0.24761132990032397,-0.20191002914242606,-0.15402964210902326,-0.14121847520141984,-0.12835527136773095,-0.12835527136773095,-0.12835527136773095,-0.11544399429346175,-0.10248870141662092,-0.08949353694963857,-0.0503113997718696,0.0020508584864495916,-6.267801905398991,-6.267801905398991,-6.267801905398991,-6.267801905398991,-6.254469362104845,-6.254469362104845,-6.254469362104845,-6.254469362104845,-6.254469362104845,-6.254469362104845,-6.254469362104845,-6.254469362104845,-6.254469362104845,-6.254469362104845,-6.254469362104845,-6.254469362104845,-6.254469362104845,-6.254469362104845,-6.254469362104845,-6.254469362104845,-6.254469362104845,-6.254469362104845,-6.254469362104845,-6.254469362104845,-6.254469362104845,-6.254469362104845,-6.254469362104845,-6.254469362104845,-6.254469362104845,-6.254469362104845,-6.254469362104845,-6.254469362104845,-6.254469362104845,-6.254469362104845,-6.254469362104845,-6.254469362104845,-6.254469362104845,-6.254469362104845,-6.254469362104845,-6.254469362104845,-6.254469362104845,-6.254469362104845,-6.254469362104845,-6.254469362104845,-6.254469362104845,-6.254469362104845,-6.254469362104845,-6.254469362104845,-6.254469362104845,-6.254469362104845,-6.254469362104845,-6.254469362104845,-6.254469362104845,-6.254469362104845,-6.254469362104845,-6.254469362104845,-6.254469362104845,-6.254469362104845,-6.254469362104845,-6.254469362104845,-6.254469362104845,-6.254469362104845,-6.254469362104845,-6.267801905398991,-6.267801905398991,-6.267801905398991,-6.267801905398991,-6.267801905398991,-6.267801905398991,-6.267801905398991,-6.267801905398991,-6.267801905398991,0.0014954058496279288,0.0014954058496279288,0.0014954058496279288,0.0014954058496279288,0.0014954058496279288,0.0014954058496279288,0.0014954058496279288,0.0014954058496279288,0.0014954058496279288,0.0014954058496279288,0.0014954058496279288,0.0014954058496279288,0.0014954058496279288,0.0014954058496279288,0.0014954058496279288,0.0014954058496279288,0.0014954058496279288,-0.012387234812825554,6.283185307179586]],"response_history":["0"],"rt":15537,"trial_type":"polygon-arrow-question","trial_index":0,"trial_index_global":7,"time_elapsed":381393,"internal_chunk_id":"0-0.3-0"},{"nsides":6,"feedback":"Correct! 1 <img src=./images/hexagon_symbol.png style=width:14px;height:14px> 5 = 0 because 5 steps clockwise on the hexagon from 1 brings us to 0","orientation_history":[0],"rt":2443,"trial_type":"polygon-arrow-feedback","trial_index":0,"trial_index_global":8,"time_elapsed":383838,"internal_chunk_id":"0-0.3-0"},{"nsides":6,"question":"What is 1 <img src=./images/hexagon_symbol.png style=width:14px;height:14px> 1? <br /><br /> (Remember, to perform <img src=./images/hexagon_symbol.png style=width:14px;height:14px>, you can use the interactive diagram on the right, or perform the operation in your mind. Point the arrow at the first number on the hexagon, then move the a rrow the  second number of points clockwise around the hexagon. The number the arrow arrives at is your result.)","response_type":"free","response_choices":[],"correct_response":"2","response":"2","explain":false,"explanation":"","explanation_history":[],"orientation_history":[[0],[0,0,0,0,0.000255950851846265,0.000255950851846265,0.000255950851846265,0.000255950851846265,0.000255950851846265,0.000255950851846265,0.000255950851846265,0.000255950851846265,0.000255950851846265,0.000255950851846265,0.000255950851846265,-6.26705767333595,-6.26705767333595,-6.167389020844788,-5.899883839517731,-5.754668213025212,-5.754668213025212,-5.754668213025212,-5.754668213025212,-5.754668213025212,-5.754668213025212,-5.754668213025212,-5.754668213025212,-5.754668213025212,-5.754668213025212,-5.754668213025212,-5.754668213025212,-5.754668213025212,-5.754668213025212,-5.754668213025212,-5.754668213025212,-5.754668213025212,-5.754668213025212,-5.595094501745718,-5.4940045617827264,-5.469314458094277,-5.457274100765783,-5.457274100765783,-5.457274100765783,-5.457274100765783,-5.43291765862857,-5.43291765862857,-5.43291765862857,-5.420009339299242,-5.360307509367738,-5.336349499302799,-5.312558283937125,-5.312558283937125,-5.312558283937125,-5.312558283937125,-5.312558283937125,-5.312558283937125,-5.288958751276116,-5.256621223445896,-5.227985413799859,-5.1822932758811495,-5.167155205521757,-5.137853708848345,-5.0947837922074735,-5.073791541964591,-5.038211173518763,-5.018011900937696,-4.983200099471823,-4.963877651325815,-4.914930292414995,-4.822569463604294,-4.79121305288381,-4.664525973012595,-4.617062275571602,-4.541264604617112,-4.498865786691173,-4.469462498487168,-4.458425419083603,-4.458425419083603,-4.430009297390129,-4.415961690202602,-4.415961690202602,-4.402026781429866,-4.402026781429866,-4.388208565517277,-4.374510792144411,-4.347490342957146,-4.334173938847325,-4.320990523685096,-4.320990523685096,-4.320990523685096,-4.320990523685096,-4.320990523685096,-4.320990523685096,-4.320990523685096,-4.320990523685096,-4.320990523685096,-4.320990523685096,-4.320990523685096,-4.295032547536205,-4.295032547536205,-4.295032547536205,-4.295032547536205,-4.295032547536205,-4.295032547536205,-4.295032547536205,-4.295032547536205,-4.295032547536205,-4.295032547536205,-4.295032547536205,-4.295032547536205,-4.295032547536205,-4.295032547536205,-4.282262343928854,-4.275270772288808,-4.275270772288808,-4.275270772288808,-4.275270772288808,-4.275270772288808,-4.275270772288808,-4.275270772288808,-4.275270772288808,-4.275270772288808,-4.262907497459023,-4.262907497459023,-4.250684059566471,-4.250684059566471,-4.250684059566471,-4.250684059566471,-4.250684059566471,-4.250684059566471,-4.250684059566471,-4.250684059566471,-4.250684059566471,-4.250684059566471,-4.250684059566471,-4.250684059566471,-4.250684059566471,-4.250684059566471,-4.250684059566471,-4.250684059566471,-4.250684059566471,-4.250684059566471,-4.250684059566471,-4.250684059566471,-4.250684059566471,-4.250684059566471,-4.250684059566471,-4.250684059566471,-4.250684059566471,-4.250684059566471,-4.250684059566471,-4.250684059566471,-4.250684059566471,2.0943951023931953]],"response_history":["2"],"rt":9058,"trial_type":"polygon-arrow-question","trial_index":0,"trial_index_global":9,"time_elapsed":392898,"internal_chunk_id":"0-0.3-0"},{"nsides":6,"feedback":"Correct! 1 <img src=./images/hexagon_symbol.png style=width:14px;height:14px> 1 = 2 because 1 step clockwise on the hexagon from 1 brings us to 2","orientation_history":[0],"rt":1898,"trial_type":"polygon-arrow-feedback","trial_index":0,"trial_index_global":10,"time_elapsed":394798,"internal_chunk_id":"0-0.3-0"},{"nsides":6,"question":"What is 3 <img src=./images/hexagon_symbol.png style=width:14px;height:14px> 0? <br /><br /> (Remember, to perform <img src=./images/hexagon_symbol.png style=width:14px;height:14px>, you can use the interactive diagram on the right, or perform the operation in your mind. Poin t the ar row at the first number on the hexagon, then move the arrow the second number of points clockwise around the hexagon. The number the arrow arrives at is your result.)","response_type":"free","response_choices":[],"correct_response":"3","response":"3","explain":false,"explanation":"","explanation_history":[],"orientation_history":[[0],[0,0,0.015541655733097626,0.015541655733097626,0.0303997328158101,0.0303997328158101,0.0303997328158101,0.045224935595150395,0.0615765247017841,0.06318979825033111,0.2089865947665306,0.28300903960772117,0.5293514687567572,0.5924191583898794,0.7413091059993766,0.7774379565121521,0.7774379565121521,0.8493208306994229,0.873071372477303,0.9626235483471679,1.0868646865810887,1.170087133445393,1.2587968469734852,1.3711124414197953,1.4875116674697701,1.6244341767555437,1.7519840486108802,1.7965564253352941,1.8614441067136396,1.999613873059754,2.1147098729443923,2.213831479538264,2.325803206167139,2.3930095319495037,2.419795303627094,2.483733501175153,2.4942737432670365,2.519601659229476,2.554026001478678,2.5938773000676254,2.6106043643804524,2.6650958206211834,2.6880663866655787,2.6948489426398488,2.7387329259211493,2.76004752696394,2.780934342579318,2.780934342579318,2.821406576796285,2.840986983547398,2.8637604153228198,2.8821458964939835,2.900108036341841,2.9202782112420023,2.939413625070036,2.9556065415875574,2.9575789256176037,2.9731486016449598,2.988350133282844,3.001905477527881,3.001905477527881,3.003189644864541,3.003189644864541,3.0187196352025776,3.0187196352025776,3.0334886183573775,3.047545200469779,3.047545200469779,3.047545200469779,3.047545200469779,3.047545200469779,3.06002115950006,3.0604834803177914,3.0853090787434696,3.0853090787434696,3.0853090787434696,3.0854559863375357,3.0854559863375357,3.0854559863375357,3.0854559863375357,3.0854559863375357,3.0854559863375357,3.0854559863375357,3.0854559863375357,3.0854559863375357,3.0854559863375357,3.0855993966334117,3.0855993966334117,3.0855993966334117,3.0855993966334117,3.0855993966334117,3.0855993966334117,3.0855993966334117,3.0855993966334117,3.0855993966334117,3.0855993966334117,3.0855993966334117,3.0855993966334117,3.0855993966334117,3.0855993966334117,3.0975035961917214,3.0975035961917214,3.0975035961917214,3.0975035961917214,3.0975035961917214,3.1092677593414804,3.1092677593414804,3.1092677593414804,3.1092677593414804,3.1092677593414804,3.1092677593414804,3.1092677593414804,3.1092677593414804,3.1092677593414804,3.1092677593414804,3.1092677593414804,3.1092677593414804,3.1092677593414804,3.1092677593414804,3.1092677593414804,3.1092677593414804,3.1092677593414804,3.1092677593414804,3.1092677593414804,3.1092677593414804,3.1092677593414804,3.1092677593414804,3.1092677593414804,3.1092677593414804,3.1092677593414804,3.1092677593414804,3.1092677593414804,3.109130979148105,3.1204880536331734,3.1315813077787293,3.1315813077787293,3.1315813077787293,3.1315813077787293,3.1315813077787293,3.1315813077787293,3.1315813077787293,3.1315813077787293,3.1315813077787293,3.1315813077787293,3.1315813077787293,3.1315813077787293,3.1315813077787293,3.1315813077787293,3.1315813077787293,3.1315813077787293,3.1315813077787293,3.1315813077787293,3.1315813077787293,3.1315813077787293,3.1315813077787293,3.1315813077787293,3.1315813077787293,3.1315813077787293,3.1315813077787293,3.1315813077787293,3.1315813077787293,3.1315813077787293,3.1315813077787293,3.1315813077787293,3.1315813077787293,3.1315813077787293,3.1315813077787293,3.141592653589793]],"response_history":["3"],"rt":11830,"trial_type":"polygon-arrow-question","trial_index":0,"trial_index_global":11,"time_elapsed":406631,"internal_chunk_id":"0-0.3-0"},{"nsides":6,"feedback":"Correct! 3 <img src=./images/hexagon_symbol.png style=width:14px;height:14px> 0 = 3 because 0 steps clockwise on the hexagon from 3 brings us to 3","orientation_history":[0],"rt":1902,"trial_type":"polygon-arrow-feedback","trial_index":0,"trial_index_global":12,"time_elapsed":408537,"internal_chunk_id":"0- 0.3-0"},{"nsides":6,"question":"What is 4 <img src=./images/hexagon_symbol.png style=width:14px;height:14px> 4? <br /><br /> (Remember, to perform <img src=./images/hexagon_symbol.png style=width:14px;height:14px>, you can use the interactive diagram on the right, or perform the operation in your mind. Point the arrow at the first number on the hexagon, then move the arrow the second number of points clockwise around the hexagon. The number the arrow arrives at is your result.)","response_type":"free","response_choices":[],"correct_response":"2","response":"2","explain":false,"explanation":"","explanation_history":[],"orientation_history":[[0],[0.00020699647810307198,0.00020699647810307198,0.00020699647810307198,-6.268693568114086,-6.253988745736235,-6.224604510716015,-6.208161548331979,-6.175216786955497,-6.122209389720525,-6.04445881700499,-5.918379355878685,-5.744774220428887,-5.609383499781228,-5.468803665651138,-5.36950339757293,-5.308623205708399,-5.198910628122779,-5.086215959491655,-4.979129443237484,-4.870088055842128,-4.763022404653576,-4.653482026072279,-4.536522130898498,-4.435777400053717,-4.383665342234852,-4.265489465748652,-4.109894637771623,-4.096823486821441,-3.851967058139634,-3.7749123414513917,-3.6087645920791545,-3.4548394213048486,-3.3210600617841863,-3.2641670888344807,-3.1593477969595467,-3.111229231532503,-3.049134280692751,-3.0046398571069517,-2.9149571615198173,-2.6887643546663353,-2.5428296369433845,-2.473018190109933,-2.473018190109933,-2.473018190109933,-2.473018190109933,-2.473018190109933,-2.4626055154295363,-2.4626055154295363,-2.4626055154295363,-2.4626055154295363,-2.4626055154295363,-2.4626055154295363,-2.4626055154295363,-2.4626055154295363,-2.4626055154295363,-2.4626055154295363,-2.4626055154295363,-2.4626055154295363,-2.4626055154295363,-2.4626055154295363,-2.4626055154295363,-2.4626055154295363,-2.4626055154295363,-2.4523599723007403,-2.4523599723007403,-2.4340320858584437,-2.425617378066036,-2.425617378066036,-2.425617378066036,-2.425617378066036,-2.415641788784785,-2.415641788784785,-2.415641788784785,-2.415641788784785,-2.415641788784785,-2.3972012563725618,-2.360219153194854,-2.360219153194854,-2.3510482734343348,-2.3510482734343348,-2.3510482734343348,-2.332357228819355,-2.2851593141820272,-2.216153014018319,-2.1670305521186055,-2.13670277512327,-2.1251524461507554,-2.094348795555021,-2.0686940480401343,-2.056745400876691,-2.056745400876691,-2.056745400876691,-2.056745400876691,-2.056745400876691,-2.056745400876691,-2.056745400876691,-2.056745400876691,-2.056745400876691,-2.056745400876691,-2.056745400876691,-2.056745400876691,-2.056745400876691,-2.056745400876691,-2.056745400876691,-2.056745400876691,-2.056745400876691,-2.056745400876691,-2.056745400876691,-2.056745400876691,-2.056745400876691,-2.056745400876691,-2.056745400876691,-2.056745400876691,-2.056745400876691,-2.056745400876691,-2.056745400876691,-2.056745400876691,-2.056745400876691,-2.056745400876691,-2.056745400876691,-2.056745400876691,-2.0323739180521576,-1.9817542250994382,-1.968715029326784,-1.968715029326784,-1.9340712456692177,-1.9256382454030216,-1.8582557495596461,-1.8211219176351854,-1.7638008141645987,-1.7156562286333132,-1.7033829431177985,-1.6690321993197745,-1.6345757282506739,-1.6377566320352681,-1.513777053109612,-1.4695662490534112,-1.3113259246025324,-1.2780049287242852,-1.2492588557106057,-1.205576639481193,-1.1669878658962558,-1.0718266586923733,-1.000138357608943,-0.9308195474901675,-0.8673801995145354,-0.8501054953014,-0.8021462577622165,-0.7862898261125437,-0.7406126644131739,-0.7406126644131739,-0.7261601928773329,-0.7261601928773329,-0.7261601928773329,-0.7261601928773329,-0.7261601928773329,-0.7261601928773329,-0.7261601928773329,-0.7261601928773329,-0.7261601928773329,-0.7261601928773329,-0.7261601928773329,-0.7261601928773329,-0.7261601928773329,-0.7261601928773329,-0.7261601928773329,-0.7261601928773329,-0.7103744045498415,-0.7103744045498415,-0.7103744045498415,-0.7103744045498415,-0.7103744045498415,-0.7103744045498415,-0.6802465371312039,-0.6502827557518458,-0.5910529245394702,-0.5618834815256832,-0.5330704968744975,-0.47667185922076083,-0.43080930482218616,-0.40373259051372923,-0.38502375493387486,-0.3395056977663966,-0.3325698644739905,-0.2883931293094717,-0.22567926879467315,-0.14416352312090197,-0.12460420241657122,-0.1049371869528386,-0.1049371869528386,-0.08517691342566192,-0.08517691342566192,-0.08517691342566192,-0.08517691342566192,-0.08517691342566192,-0.08517691342566192,-0.08517691342566192,-0.045436416055707696,-0.025486948057790393,-0.025486948057790393,-0.005505594907650568,-0.005913591621037995,-0.005913591621037995,-0.005913591621037995,-0.005913591621037995,-0.005913591621037995,-0.005913591621037995,-6.268693568114086,-6.226166033494302,-6.2035684047797,-6.178033680913341,-6.107318457693395,-6.103544890699459,-6.029461968150426,-6.00032735720818,-6.00032735720818,-5.939069160693344,-5.897802279301424,-5.8288509852983506,-5.792998349259094,-5.732882330153623,-5.6806909645665185,-5.66494423471665,-5.581022312075357,-5.544443567365939,-5.4628900740301,-5.443316717593348,-5.422147242067337,-5.381606552953561,-5.381606552953561,-5.318146727302011,-5.262466634987289,-5.19950129550831,-5.1493503328717445,-5.113389337260081,-5.044436105753132,-5.003776112724042,-4.9728070827998625,-4.948899927962224,-4.948899927962224,-4.9192116836669815,-4.890597999981575,-4.863045918733817,-4.813656459040001,-4.790653561507334,-4.790653561507334,-4.743320520740767,-4.720115806645909,-4.69789724131919,-4.69789724131919,-4.676623855295128,-4.634153928786502,-4.6129954478694675,-4.573542246772428,-4.539241979132788,-4.519804303087993,-4.5042752484632445,-4.466806574123293,-4.448310315882205,-4.417059516697987,-4.3993983097330105,-4.370497029518964,-4.343191589308249,-4.327005952506528,-4.3110215235881615,-4.301815799754882,-4.301815799754882,-4.286440997905487,-4.286440997905487,-4.286440997905487,-4.256304879011898,-4.241548772762081,-4.227003382338486,-4.227003382338486,-4.220066186327075,-4.206088065330491,-4.206088065330491,-4.186341114148885,-4.186341114148885,-4.186341114148885,-4.173101469669082,-4.173101469669082,-4.173101469669082,-4.173101469669082,-4.173101469669082,-4.173101469669082,-4.173101469669082,-4.173101469669082,-4.173101469669082,-4.173101469669082,-4.173101469669082,-4.173101469669082,-4.173101469669082,-4.173101469669082,-4.173101469669082,-4.173101469669082,-4.173101469669082,-4.173101469669082,-4.173101469669082,-4.173101469669082,-4.173101469669082,-4.173101469669082,-4.173101469669082,-4.173101469669082,-4.173101469669082,-4.173101469669082,-4.173101469669082,2.0943951023931953]],"response_history":["2"],"rt":12177,"trial_type":"polygon-arrow-question","trial_index":0,"trial_index_global":13,"time_elapsed":420716,"internal_chunk_id":"0-0.3-0"},{"nsides":6,"feedback":"Correct! 4 <img src=./images/hexagon_symbol.png style=width:14px;height:14px> 4 = 2 because 4 steps  clockwi se on the hexagon from 4 brings us to 2","orientation_history":[0],"rt":1704,"trial_type":"polygon-arrow-feedback","trial_index":0,"trial_index_global":14,"time_elapsed":422422,"internal_chunk_id":"0-0.3-0"},{"nsides":6,"question":"What is 1 <img src=./images/hexagon_symbol.png style=width:14px;height:14px> 3? <br /><br /> (Remember, to perform <img src=./images/hexagon_symbol.png style=width:14px;height:14px>, you can use the interactive diagram on the right, or perform the operation in your mind. Point the arrow at the first number on the hexagon, then move the arrow the second number of points clockwise around the hexagon. The number the arrow arrives at is your result.)","response_type":"free","response_choices":[],"correct_response":"4","response":"4","explain":false,"explanation":"","explanation_history":[],"orientation_history":[[0],[0,0,0,0,0,0,0,0,0,0.032015825275823584,0.05096617494742417,0.06894235200636745,0.10368772153186079,0.16664167239717687,0.1835177072440981,0.20948589445565458,0.23703797570341334,0.2778316585712788,0.33333016381699565,0.3936398526854288,0.44563754850957094,0.4722472357564955,0.48892499179402527,0.5212785383672062,0.5477025097780065,0.5631744668888476,0.5896157655617138,0.604508281496344,0.6162473366818617,0.6308734787902643,0.6308734787902643,0.6308734787902643,0.6308734787902643,0.6573690437388585,0.6839585203913923,0.6976274902617602,0.7106046642205367,0.7106046642205367,0.7372697508088281,0.7639158946379724,0.7779387078906507,0.8170009362391003,0.8582586494676508,0.869565588085505,0.9213327673645632,0.9720506566113589,0.9969459106013929,1.0456877619113245,1.0694927880963945,1.0694927880963945,1.0694927880963945,1.0694927880963945,1.0694927880963945,1.0694927880963945,1.0856664490346146,1.0856664490346146,1.0928967537205387,1.0928967537205387,1.0928967537205387,1.0928967537205387,1.0928967537205387,1.0928967537205387,1.0928967537205387,1.0928967537205387,1.0928967537205387,1.0928967537205387,1.0928967537205387,1.0928967537205387,1.0928967537205387,1.0928967537205387,1.0928967537205387,1.0928967537205387,1.0928967537205387,1.0928967537205387,1.0928967537205387,1.0928967537205387,1.0928967537205387,1.0928967537205387,1.0928967537205387,1.0928967537205387,1.0928967537205387,1.0928967537205387,1.0928967537205387,1.0928967537205387,1.0928967537205387,1.0928967537205387,1.0928967537205387,1.0928967537205387,1.0928967537205387,1.0928967537205387,1.0928967537205387,1.0928967537205387,1.0928967537205387,1.0928967537205387,1.0928967537205387,1.0928967537205387,1.0928967537205387,1.0928967537205387,1.0928967537205387,1.0928967537205387,1.0928967537205387,1.0928967537205387,1.0928967537205387,1.0928967537205387,1.0928967537205387,1.0928967537205387,1.0928967537205387,1.0928967537205387,1.0928967537205387,1.0928967537205387,1.0928967537205387,1.0928967537205387,1.0928967537205387,1.0928967537205387,1.0928967537205387,1.0928967537205387,1.0928967537205387,1.0928967537205387,1.0928967537205387,1.0928967537205387,1.0928967537205387,1.0928967537205387,1.0928967537205387,1.0928967537205387,1.0928967537205387,1.0928967537205387,1.0928967537205387,1.0928967537205387,1.0928967537205387,1.0928967537205387,1.0928967537205387,1.0928967537205387,1.0928967537205387,1.0928967537205387,1.0928967537205387,1.0928967537205387,1.1421615370939115,1.0471975511965976],[1.307801595113977,1.307801595113977,1.3258176636680323,1.3439974787410107,1.3808080388761808,1.4181469983996313,1.4369853493203057,1.4749371796848834,1.4940244355251184,1.5131678993174227,1.5515679276951893,1.5707963267948966,1.6092389168160846,1.6284247542723704,1.6284247542723704,1.6284247542723704,1.6475682180646747,1.6475682180646747,1.6856729322117956,1.7234456551901618,1.7234456551901618,1.7607846147136124,1.7975951748487824,1.8157749899217608,1.8516340514160994,1.8692952583810758,1.9100889412489412,1.94452314676045,1.9614033704925833,2.0106389096106327,2.026570082771602,2.0576955586061656,2.072886525816891,2.1025203940537023,2.1169628902286846,2.1451011569695986,2.158798930342464,2.1722510336551695,2.1722510336551695,2.1722510336551695,2.1722510336551695,2.1722510336551695,2.1722510336551695,2.1722510336551695,2.1722510336551695,2.1722510336551695,2.1722510336551695,2.1722510336551695,2.1722510336551695,2.1722510336551695,2.2236429578956707,2.279422598922567,2.0943951023931953],[2.0943951023931953,2.0943951023931953,2.0943951023931953,2.0943951023931953,2.0943951023931953,2.0943951023931953,2.0943951023931953,2.0943951023931953,2.0943951023931953,2.1016588971561494,2.1016588971561494,2.1695644055041385,2.1900356833009984,2.2196647706689348,2.271510404372252,2.358131306998044,2.4053933829987364,2.4288050826447134,2.4521268688081044,2.4521268688081044,2.4651275194411513,2.4885346148871776,2.548662716686606,2.5944490770217157,2.6313679988057257,2.639199326686861,2.6536832923018046,2.675687255123353,2.6827756110685814,2.739695579464946,2.7659792078330434,2.8724060942722045,2.9643932858492463,3.0279357855708624,3.1030583298289005,3.1030583298289005,3.1463204662678588,3.2317043761716238,3.431567712750385,3.535151312899161,3.68790653283462,3.7779938299865727,3.843190435426329,3.876805849396537,3.885187004642656,3.885187004642656,3.885187004642656,3.885187004642656,3.885187004642656,3.885187004642656,3.885187004642656,3.885187004642656,3.885187004642656,3.885187004642656,3.885187004642656,3.885187004642656,3.885187004642656,3.885187004642656,3.885187004642656,3.885187004642656,3.885187004642656,3.885187004642656,3.885187004642656,3.885187004642656,3.885187004642656,3.885187004642656,3.885187004642656,3.885187004642656,3.885187004642656,3.89343849348604,3.90156220408612,3.9094340577380238,3.9094340577380238,3.9094340577380238,3.9094340577380238,3.9094340577380238,3.9094340577380238,3.9094340577380238,3.91743388707791,3.91743388707791,3.94142928066978,3.949169260606368,3.949169260606368,3.949169260606368,3.9724962824515804,3.9798526970738677,3.995400520909453,3.995400520909453,3.995400520909453,4.0038324364363564,4.019440804988022,4.034999461215554,4.041788881624672,4.057142761367073,4.057142761367073,4.057142761367073,4.057142761367073,4.057142761367073,4.057142761367073,4.057142761367073,4.057142761367073,4.057142761367073,4.057142761367073,4.057142761367073,4.057142761367073,4.057142761367073,4.057142761367073,4.057142761367073,4.065938775022188,4.065938775022188,4.065938775022188,4.096594386288325,4.1056553923826815,4.175545003461071,4.199988839547498,4.239184441474553,4.25374651886729,4.26356985064727,4.26356985064727,4.26356985064727,4.26356985064727,4.26356985064727,4.26356985064727,4.26356985064727,4.273484709114193,4.273484709114193,4.273484709114193,4.273484709114193,4.273484709114193,4.273484709114193,4.273484709114193,4.273484709114193,4.273484709114193,4.273484709114193,4.273484709114193,4.273484709114193,4.273484709114193,4.273484709114193,4.273484709114193,4.273484709114193,4.273484709114193,4.273484709114193,4.273484709114193,4.273484709114193,4.273484709114193,4.273484709114193,4.273484709114193,4.273484709114193,4.273484709114193,4.273484709114193,4.273484709114193,4.273484709114193,4.273484709114193,4.273484709114193,4.273484709114193,4.273484709114193,4.273484709114193,4.273484709114193,4.273484709114193,4.273484709114193,4.258886325387362,4.244134896083395,4.23425837294613,4.23425837294613,4.23425837294613,4.23425837294613,4.23425837294613,4.23425837294613,4.23425837294613,4.23425837294613,4.23425837294613,4.23425837294613,4.23425837294613,4.23425837294613,4.23425837294613,4.23425837294613,4.23425837294613,4.23425837294613,4.23425837294613,4.23425837294613,4.23425837294613,4.23425837294613,4.23425837294613,4.23425837294613,4.23425837294613,4.23425837294613,4.1887902047863905]],"response_history":["4"],"rt":12878,"trial_type":"polygon-arrow-question","trial_index":0,"trial_index_global":15,"time_elapsed":435302,"internal_chunk_id":"0-0.3-0"},{"nsides":6,"feedback":"Correct! 1 <img src=./images/hexagon_symbol.png  style= width:14px;height:14px> 3 = 4 because 3 steps clockwise on the hexagon from 1 brings us to 4","orientation_history":[0],"rt":2028,"trial_type":"polygon-arrow-feedback","trial_index":0,"trial_index_global":16,"time_elapsed":437333,"internal_chunk_id":"0-0.3-0"},{"nsides":6,"question":"What is 4 <img src=./images/hexagon_symbol.png style=width:14px;height:14px> 3? <br /><br /> (Remember, to perform <img src=./images/hexagon_symbol.png style=width:14px;height:14px>, you can use the interactive diagram on the right, or perform the operation in your mind. Point the arrow at the first number on the hexagon, then move the arrow the second number of points clockwise around the hexagon. The number the arrow arrives at is your result.)","response_type":"free","response_choices":[],"correct_response":"1","response":"1","explain":false,"explanation":"","explanation_history":[],"orientation_history":[[0],[0,-0.00021944261223350026,-0.00021944261223350026,-0.00021944261223350026,-0.00021944261223350026,-0.00021944261223350026,-0.00021944261223350026,-0.00021944261223350026,-0.00021944261223350026,0.01491761967702443,0.08002744135267137,0.17903488226980824,0.27653252948778206,0.42042901016221745,0.5730783385574826,0.7347747857280393,0.9451460974156031,1.079404642331105,1.2341215074081695,1.3247813946089146,1.5836426983982326,1.738040372277575,1.9146427320753838,1.9404767766270252,2.064942950227195,2.1062580094816026,2.2169152306554984,2.2440170269506945,2.3300347429442976,2.4261720186519815,2.546270201205834,2.6397691567884394,2.7084440590204792,2.7820210729816823,2.8124364895153704,2.8419379500769963,2.8594092904437973,2.881689725472844,2.909230969196761,2.9116535068522023,2.9336975786341384,2.9578364865885876,2.9800018948025153,3.0023133940529467,3.013517407009224,3.0247500211188347,3.047290074040135,3.047290074040135,3.047290074040135,3.047290074040135,3.047290074040135,3.047290074040135,3.047290074040135,3.046381573316692,3.150473414784778,3.4066182111235,3.537732935989573,3.5797343819794385,3.5903159976005146,3.6007868191052115,3.6007868191052115,3.6007868191052115,3.6007868191052115,3.6111463176367318,3.6111463176367318,3.6111463176367318,3.621394071083957,3.621394071083957,3.642899059211456,3.648760002427996,3.648760002427996,3.6547428370260677,3.665042901945938,3.775000377686969,3.7919578164302434,3.826072260802916,3.826072260802916,3.868615656605626,3.8775974509976487,3.8948268808026265,3.929306223191686,3.9547756077621603,3.971824378385554,3.9980608431913973,4.022723773171053,4.049132726307344,4.08280176347244,4.0994956644408305,4.0994956644408305,4.109462111847038,4.109462111847038,4.109462111847038,4.109462111847038,4.109462111847038,4.109462111847038,4.109462111847038,4.109462111847038,4.109462111847038,4.109462111847038,4.109462111847038,4.109462111847038,4.109462111847038,4.109462111847038,4.109462111847038,4.109462111847038,4.109462111847038,4.109462111847038,4.109462111847038,4.109462111847038,4.109462111847038,4.109462111847038,4.109462111847038,4.109462111847038,4.109462111847038,4.109462111847038,4.109462111847038,4.109462111847038,4.109462111847038,4.109462111847038,4.109462111847038,4.109462111847038,4.109462111847038,4.109462111847038,4.109462111847038,4.109462111847038,4.109462111847038,4.109462111847038,4.109462111847038,4.140169180277099,4.194065330997951,4.263220394597805,4.2995903577774355,4.311970848465276,4.324476993594544,4.3627278780777905,4.41534098325189,4.425001565990813,4.4630490396707945,4.488441772588341,4.561937001409104,4.576841046814502,4.63600375951184,4.63600375951184,4.666224881964337,4.697464715394605,4.73023985979868,4.746605449810625,4.798811218660273,4.817573450961517,4.908558048617351,4.985520162445231,5.041683398377073,5.071191535360158,5.111971589979391,5.152915786645498,5.1692422265753555,5.185301154054247,5.209854175705343,5.244253556283852,5.285467318942172,5.340965824187889,5.406090987522275,5.431625711388635,5.444906433603738,5.482862878792053,5.482862878792053,5.482862878792053,5.482862878792053,5.482862878792053,5.482862878792053,5.482862878792053,5.482862878792053,5.482862878792053,5.482862878792053,5.482862878792053,5.482862878792053,5.495207930636277,5.495207930636277,5.495207930636277,5.495207930636277,5.495207930636277,5.495207930636277,5.495207930636277,5.495207930636277,5.495207930636277,5.495207930636277,5.495207930636277,5.495207930636277,5.495207930636277,5.495207930636277,5.544513049431312,5.665031189264817,5.762970854090107,5.788086012585975,5.788086012585975,5.804613433188695,5.821418573703737,5.946510487792859,6.000350619766162,6.131858437788554,6.189989901668223,6.229065440262446,6.229065440262446,6.229065440262446,6.229065440262446,6.229065440262446,6.229065440262446,6.229065440262446,6.229065440262446,6.248263708216351,6.247430722153284,0.04749454500587236,0.0699775284596369,0.0699775284596369,0.0699775284596369,0.0699775284596369,0.0699775284596369,0.0699775284596369,0.0699775284596369,0.0699775284596369,0.0699775284596369,0.0699775284596369,0.0699775284596369,0.0699775284596369,0.0699775284596369,0.0699775284596369,0.09334632587037106,0.14284447260586908,0.2534419459158219,0.2909546064147672,0.3559670238225774,0.38996752129499845,0.4487233440107212,0.484422456690045,0.484422456690045,0.5208869729703787,0.5496451286780151,0.6285768438031994,0.690643912695126,0.7093257357580621,0.7704738984073634,0.7908792290939014,0.8536151302958046,0.8948288929541247,0.9596729205073316,0.9596729205073316,1.0256562890281817,1.0659147355510834,1.105210735724178,1.131677653901045,1.1587926165798292,1.1587926165798292,1.1971013915342394,1.2341215074081695,1.261637496693624,1.261637496693624,1.261637496693624,1.261637496693624,1.261637496693624,1.261637496693624,1.261637496693624,1.261637496693624,1.261637496693624,1.261637496693624,1.261637496693624,1.261637496693624,1.261637496693624,1.261637496693624,1.261637496693624,1.261637496693624,1.261637496693624,1.261637496693624,1.261637496693624,1.261637496693624,1.261637496693624,1.261637496693624,1.261637496693624,1.261637496693624,1.261637496693624,1.261637496693624,1.261637496693624,1.261637496693624,1.261637496693624,1.2071010582209045,1.131677653901045,1.0922244528040055,1.0517061003256585,1.0256562890281817,0.9758692875971308,0.9356225758219902,0.9356225758219902,0.9356225758219902,0.9356225758219902,0.9183232636661189,0.9183232636661189,0.9183232636661189,0.9183232636661189,0.9183232636661189,0.9183232636661189,0.9183232636661189,0.9183232636661189,0.9183232636661189,0.9183232636661189,0.9183232636661189,0.9183232636661189,0.9183232636661189,0.9183232636661189,0.9183232636661189,0.9183232636661189,0.9183232636661189,0.9183232636661189,0.9183232636661189,0.9183232636661189,0.9183232636661189,0.9183232636661189,0.9183232636661189,0.9183232636661189,0.9183232636661189,0.9183232636661189,0.9183232636661189,0.9183232636661189,0.9183232636661189,0.9183232636661189,0.9183232636661189,0.9183232636661189,0.9183232636661189,0.9183232636661189,0.9183232636661189,0.9183232636661189,0.9183232636661189,0.9183232636661189,0.9596729205073316,1.0403230543458326,1.079404642331105,1.079404642331105,1.105210735724178,1.105210735724178,1.1434616202074244,1.1806012389488543,1.1806012389488543,1.1806012389488543,1.1806012389488543,1.1806012389488543,1.1806012389488543,1.1806012389488543,1.1806012389488543,1.1806012389488543,1.1806012389488543,1.1806012389488543,1.1806012389488543,1.1806012389488543,1.1806012389488543,1.1806012389488543,1.1806012389488543,1.1806012389488543,1.1806012389488543,1.1806012389488543,1.1806012389488543,1.1806012389488543,1.1806012389488543,1.1806012389488543,1.1806012389488543,1.1806012389488543,1.1806012389488543,1.1806012389488543,1.1806012389488543,1.1806012389488543,1.1806012389488543,1.1806012389488543,1.1806012389488543,1.1806012389488543,1.1806012389488543,1.1175355019468538,1.079404642331105,1.079404642331105,1.079404642331105,1.079404642331105,1.079404642331105,1.079404642331105,1.079404642331105,1.079404642331105,1.079404642331105,1.079404642331105,1.079404642331105,1.079404642331105,1.079404642331105,1.079404642331105,1.079404642331105,1.079404642331105,1.079404642331105,1.079404642331105,1.079404642331105,1.079404642331105,1.079404642331105,1.079404642331105,1.079404642331105,1.079404642331105,1.079404642331105,1.079404642331105,1.079404642331105,1.079404642331105,1.079404642331105,1.079404642331105,1.079404642331105,1.079404642331105,1.079404642331105,1.079404642331105,1.079404642331105,1.079404642331105,1.079404642331105,1.079404642331105,1.079404642331105,1.079404642331105,1.079404642331105,1.079404642331105,1.079404642331105,1.079404642331105,1.079404642331105,1.0471975511965976]],"response_history":["1"],"rt":15183,"trial_type":"polygon-arrow-question","trial_index":0,"trial_index_global":17,"time_elapsed":452518,"internal_chunk_id":"0-0.3-0"},{"nsides":6,"feedback":"Correct! 4 <img src=./images/hexagon_symbol.png style=width:14px;height:14px> 3 = 1 becau se 3 ste ps clockwise on the hexagon from 4 brings us to 1","orientation_history":[0],"rt":2904,"trial_type":"polygon-arrow-feedback","trial_index":0,"trial_index_global":18,"time_elapsed":455424,"internal_chunk_id":"0-0.3-0"},{"nsides":6,"question":"What is 0 <img src=./images/hexagon_symbol.png style=width:14px;height:14px> 5? <br /><br /> (Remember, to perform <img src=./images/hexagon_symbol.png style=width:14px;height:14px>, you can use the interactive diagram on the right, or perform the operation in your mind. Point the arrow at the first number on the hexagon, then move the arrow the second number of points clockwise around the hexagon. The number the arrow arrives at is your result.)","response_type":"free","response_choices":[],"correct_response":"5","response":"5","explain":false,"explanation":"","explanation_history":[],"orientation_history":[[0],[0,0,0,0,0,0,0,0,0,0,0,0,0.013871942505167434,0.18629004697040052,0.3374308131947521,0.4420118647652611,0.4420118647652611,0.4726701765538732,0.4726701765538732,0.522082546083164,0.541077221827938,0.5486045839977627,0.5602319669541466,0.5795345885728298,0.5908737143313261,0.6101903626760893,0.618531585321956,0.6381986007856889,0.67779754109179,0.7071653527871714,0.7273337668852522,0.7475268602187054,0.7475268602187054,0.7677281933893492,0.7879212867228024,0.8175556819252352,0.8482874140047725,0.8593163785671043,0.8794699638239445,0.9510548535148747,0.9708320461934815,0.9951621586996402,1.0026061899308916,1.0026061899308916,1.0098699846938457,1.02211590935326,1.02211590935326,1.02211590935326,1.02211590935326,1.02211590935326,1.02211590935326,1.02211590935326,1.02211590935326,1.02211590935326,1.02211590935326,1.02211590935326,1.02211590935326,1.02211590935326,1.02211590935326,1.02211590935326,1.02211590935326,1.02211590935326,1.02211590935326,1.02211590935326,1.066558270727769,1.0857474218193328,1.1893225441203539,1.2529387578804476,1.2980470270746114,1.3732474162331372,1.5019529116110215,1.596308541761168,1.6360894189258937,1.725194000674239,1.747902407238584,1.7603191211244966,1.7971504397571096,1.8092777393524009,1.8332905901305199,1.8415246217876549,1.8531937509894616,1.8762699913131482,1.898983428369461,1.9213196815429352,1.9323424120346164,1.9432663472354497,1.9432663472354497,1.9432663472354497,1.9432663472354497,1.9432663472354497,1.9432663472354497,1.9432663472354497,1.9432663472354497,1.9387152822560583,1.9387152822560583,1.9387152822560583,1.9387152822560583,1.9387152822560583,1.9387152822560583,1.9387152822560583,1.9387152822560583,1.949444192857621,2.0066732992022818,2.016877026696236,2.0369670591210567,2.0873061751474555,2.1028226097629,2.1246791727150667,2.1500133542478834,2.175163651730469,2.20707185302816,2.2639970141733703,2.360670736034178,2.424897628781511,2.5040160155491042,2.5753145602847995,2.6745598171682845,2.71319763012705,2.775123932793325,2.858639626375554,2.873855843217726,2.888545237782317,2.9104859329680965,2.945431859848842,2.996713272429508,3.0478800272151023,3.0860513804029512,3.0860513804029512,3.095305614928363,3.095305614928363,3.095305614928363,3.095305614928363,3.095305614928363,3.095305614928363,3.095305614928363,3.095305614928363,3.095305614928363,3.095305614928363,3.095305614928363,3.095305614928363,3.095305614928363,3.095305614928363,3.095305614928363,3.095305614928363,3.095305614928363,3.104563022334249,3.1323384190643813,3.2945215402756647,3.4823221099839268,3.6011805965015626,3.613168738676502,3.620920521388709,3.620920521388709,3.620920521388709,3.620920521388709,3.620920521388709,3.62524201566221,3.632968131242895,3.6373977811183864,3.6373977811183864,3.6373977811183864,3.6373977811183864,3.6496332549568358,3.6542415172669562,3.6743315496917774,3.6993120630170955,3.7193666806013423,3.7573231257896564,3.8292707953530387,3.8612637352055064,3.8612637352055064,3.8612637352055064,3.8612637352055064,3.8612637352055064,3.8612637352055064,3.8612637352055064,3.8612637352055064,3.8612637352055064,3.8612637352055064,3.8612637352055064,3.8612637352055064,3.8612637352055064,3.8612637352055064,3.8612637352055064,3.8612637352055064,3.8612637352055064,3.8612637352055064,3.9057560350397518,3.9397385328721675,4.039144850967938,4.055088381792143,4.116331495128725,4.138963289264277,4.206952961428519,4.2442223576009255,4.292278199575753,4.352558876248383,4.4048012352680255,4.453527676595372,4.487222783941388,4.498560166642265,4.507909487721233,4.531074561251713,4.541034950144801,4.561783104913373,4.586172184578635,4.59841277011549,4.621411511893808,4.6589829352695915,4.697604626711441,4.724597030914558,4.7386198441672365,4.753004687381773,4.780216462455109,4.795275564965164,4.810706438855859,4.854396617759607,4.882013903641149,4.912475392508369,4.926184050886595,4.953321368426439,4.970669785508586,4.984150332861192,4.997519571671654,5.010774156034722,5.023910958245313,5.036927068465411,5.062586655287542,5.0804687851286845,5.105608918043514,5.13019563076585,5.13019563076585,5.142278000408162,5.142278000408162,5.148265952792075,5.148265952792075,5.172213469714282,5.183965065471399,5.183965065471399,5.2136488148709175,5.225037844061853,5.236273326319815,5.2473555665523515,5.2473555665523515,5.2473555665523515,5.2473555665523515,5.2473555665523515,5.2473555665523515,5.2473555665523515,5.2473555665523515,5.2473555665523515,5.258285011959429,5.258285011959429,5.258285011959429,5.258285011959429,5.258285011959429,5.258285011959429,5.258285011959429,5.258285011959429,5.258285011959429,5.258285011959429,5.258285011959429,5.258285011959429,5.258285011959429,5.258285011959429,5.258285011959429,5.258285011959429,5.258285011959429,5.258285011959429,5.258285011959429,5.258285011959429,5.258285011959429,5.258285011959429,5.258285011959429,5.258285011959429,5.235987755982988]],"response_history":["5"],"rt":16899,"trial_type":"polygon-arrow-question","trial_index":0,"trial_index_global":19,"time_elapsed":472325,"internal_chunk_id":"0-0.3-0"},{"nsides":6,"feedback":"Correct! 0 <img src=./ima ges/hexa gon_symbol.png style=width:14px;height:14px> 5 = 5 because 5 steps clockwise on the hexagon from 0 brings us to 5","orientation_history":[0],"rt":1341,"trial_type":"polygon-arrow-feedback","trial_index":0,"trial_index_global":20,"time_elapsed":473669,"internal_chunk_id":"0-0.3-0"},{"nsides":6,"question":"What is 2 <img src=./images/hexagon_symbol.png style=width:14px;height:14px> 5? <br /><br /> (Remember, to perform <img src=./images/hexagon_symbol.png style=width:14px;height:14px>, you can use the interactive diagram on the right, or perform the operation in your mind. Point the arrow at the first number on the hexagon, then move the arrow the second number of points clockwise around the hexagon. The number the arrow arrives at is your result.)","response_type":"free","response_choices":[],"correct_response":"1","response":"1","explain":false,"explanation":"","explanation_history":[],"orientation_history":[[0]],"response_history":["1"],"rt":18704,"trial_type":"polygon-arrow-question","trial_index":0,"trial_index_global":21,"time_elapsed":492375,"internal_chunk_id":"0-0.3-0"},{"nsides":6,"feedback":"Correct! 2 <img src=./images/hexagon_symbol.png style=width:14px;height:14px> 5 = 1 because 5 steps clockwise on the hexagon from 2 brings us to 1","orientation_history":[0],"rt":1229,"trial_type":"polygon-arrow-feedback","trial_index":0,"trial_index_global":22,"time_elapsed":493605,"internal_chunk_id":"0-0.3-0"},{"nsides":6,"instructions":"Now we're going to discuss a couple special properties of this new operation, <img src=./images/hexagon_symbol.png style=width:14px;height:14px> that we've learned. First, notice that the number 0 behaves in a special way under <img src=./images/hexagon_symbol.png style=width:14px;height:14px>. Whenever we combine 0 with anything else, we get that same thing back. We'll say that 0 is the <i>identity</i> under <img src=./images/hexagon_symbol.png style=width:14px;height :14px> , because when you combine it with something it gives you that identical thing back.","orientation_history":[0],"rt":51447,"trial_type":"polygon-arrow-instructions","trial_index":0,"trial_index_global":23,"time_elapsed":545067,"internal_chunk_id":"0-0"},{"nsides":6,"instructions":"Now that we know 0 is the identity under <img src=./images/hexagon_symbol.png style=width:14px;height:14px>, we're going to make a new definition. We'll say that the <i>inverse</i> of a number is the element that you combine with it to produce the identity under our operation. For example, 5 <img src=./images/hexagon_symbol.png style=width:14px;height:14px> 1 = 0, so we say 1 is the inverse of 5 under <img src=./images/hexagon_symbol.png style=width:14px;height:14px>, (remember 0 is the identity under <img src=./images/hexagon_symbol.png style=width:14px;height:14px>). Similarly, 3 is its own inverse under <img src=./images/hexagon_symbol.png style=width:14px;h eight:14 px>, because 3 <img src=./images/hexagon_symbol.png style=width:14px;height:14px> 3 = 0.","orientation_history":[0],"rt":230151,"trial_type":"polygon-arrow-instructions","trial_index":0,"trial_index_global":24,"time_elapsed":775220,"internal_chunk_id":"0-0"},{"nsides":6,"question":"Now you try! What is the inverse of 4 under <img src=./images/hexagon_symbol.png style=width:14px;height:14px>? <br /><br /> (Remember, the inverse of an element is the thing which you combine with it to produce the identity.)","response_type":"free","response_choices":[],"correct_response":"2","response":"6","explain":false,"explanation":"","explanation_history":[],"orientation_history":[[0]],"response_history":["6"],"rt":55149,"trial_type":"polygon-arrow-question","trial_index":0,"trial_index_global":25,"time_elapsed":830373,"internal_chunk_id":"0-0.7-0"},{"nsides":6,"feedback":"Sorry, that was incorrect. The inverse of 4 under <img src=./images/hexagon_symbol.png style=w idth:14p x;height:14px> is 2 because 4 <img src=./images/hexagon_symbol.png style=width:14px;height:14px> 2 = 0, and 0 is the identity under <img src=./images/hexagon_symbol.png style=width:14px;height:14px>.","orientation_history":[0],"rt":27736,"trial_type":"polygon-arrow-feedback","trial_index":0,"trial_index_global":26,"time_elapsed":858112,"internal_chunk_id":"0-0.7-0"},{"nsides":6,"question":"What is the inverse of 1 under <img src=./images/hexagon_symbol.png style=width:14px;height:14px>? <br /><br /> (Remember, the inverse of an element is the thing which you combine with it to produce the identity.)","response_type":"free","response_choices":[],"correct_response":"5","response":"5","explain":false,"explanation":"","explanation_history":[],"orientation_history":[[0]],"response_history":["5"],"rt":10118,"trial_type":"polygon-arrow-question","trial_index":0,"trial_index_global":27,"time_elapsed":868231,"internal_chunk_id":"0-0.7-0"},{"nsides":6,"feedback":"Cor rect! The inverse of 1 under <img src=./images/hexagon_symbol.png style=width:14px;height:14px> is 5 because 1 <img src=./images/hexagon_symbol.png style=width:14px;height:14px> 5 = 0, and 0 is the identity under <img src=./images/hexagon_symbol.png style=width:14px;height:14px>.","orientation_history":[0],"rt":2075,"trial_type":"polygon-arrow-feedback","trial_index":0,"trial_index_global":28,"time_elapsed":870307,"internal_chunk_id":"0-0.7-0"},{"nsides":6,"question":"What is the inverse of 3 under <img src=./images/hexagon_symbol.png style=width:14px;height:14px>? <br /><br /> (Remember, the inverse of an element is the thing which you combine with it to produce the identity.)","response_type":"free","response_choices":[],"correct_response":"3","response":"3","explain":false,"explanation":"","explanation_history":[],"orientation_history":[[0]],"response_history":["3"],"rt":7010,"trial_type":"polygon-arrow-question","trial_index":0,"trial_index_global":29,"time_elapsed":877320,"internal_chunk_id":"0-0.7-0"},{"nsides":6,"feedback":"Correct! The inverse of 3 under <img src=./images/hexagon_symbol.png style=width:14px;height:14px> is 3 because 3 <img src=./images/hexagon_symbol.png style=width:14px;height:14px> 3 = 0, and 0 is the identity under <img src=./images/hexagon_symbol.png style=width:14px;height:14px>.","orientation_history":[0],"rt":1599,"trial_type":"polygon-arrow-feedback","trial_index":0,"trial_index_global":30,"time_elapsed":878920,"internal_chunk_id":"0-0.7-0"},{"nsides":6,"question":"What is the inverse of 2 under <img src=./images/hexagon_symbol.png style=width:14px;height:14px>? <br /><br /> (Remember, the inverse of an element is the thing which you combine with it to produce the identity.)","response_type":"free","response_choices":[],"correct_response":"4","response":"4","explain":false,"explanation":"","explanation_history":[],"orientation_history":[[0]],"response_history":["4"],"rt":5742,"trial_type":"polygon-arrow-question","trial_index":0,"trial_index_global":31,"time_elapsed":884664,"internal_chunk_id":"0-0.7-0"},{"nsides":6,"feedback":"Correct! The inverse of 2 under <img src=./images/hexagon_symbol.png style=width:14px;height:14px> is 4 because 2 <img src=./images/hexagon_symbol.png style=width:14px;height:14px> 4 = 0, and 0 is the identity under <img src=./images/hexagon_symbol.png style=width:14px;height:14px>.","orientation_history":[0],"rt":1697,"trial_type":"polygon-arrow-feedback","trial_index":0,"trial_index_global":32,"time_elapsed":886363,"internal_chunk_id":"0-0.7-0"},{"nsides":6,"question":"What is the inverse of 0 under <img src=./images/hexagon_symbol.png style=width:14px;height:14px>? <br /><br /> (Remember, the inverse of an element is the thing which you combine with it to produce the identity.)","response_type":"free","response_choices":[],"correct_response":"0","response":"6","explain":false,"explanation":"","explanation_history":[],"orientation_history":[[0]],"response_history":["6"],"rt":18064,"trial_type":"polygon-arrow-question","trial_index":0,"trial_index_global":33,"time_elapsed":904428,"internal_chunk_id":"0-0.7-0"},{"nsides":6,"feedback":"Sorry, that was incorrect. The inverse of 0 under <img src=./images/hexagon_symbol.png style=width:14px;height:14px> is 0 because 0 <img src=./images/hexagon_symbol.png style=width:14px;height:14px> 0 = 0, and 0 is the identity under <img src=./images/hexagon_symbol.png style=width:14px;height:14px>.","orientation_history":[0],"rt":3277,"trial_type":"polygon-arrow-feedback","trial_index":0,"trial_index_global":34,"time_elapsed":907709,"internal_chunk_id":"0-0.7-0"},{"instructions":"It is also possible to successively apply <img src=./images/hexagon_symbol.png style=width:14px;height:14px>, and the operation can simply be performed starting with the left-most pair. For example, 2 <img src=./ima ges/hexa gon_symbol.png style=width:14px;height:14px> 3 <img src=./images/hexagon_symbol.png style=width:14px;height:14px> 4 = 5 <img src=./images/hexagon_symbol.png style=width:14px;height:14px> 4 = 3.","rt":168149,"trial_type":"instructions","trial_index":0,"trial_index_global":35,"time_elapsed":1075861,"internal_chunk_id":"0-0"},{"nsides":6,"instructions":"We have one last definition to learn today, using the successive operations we just learned. Let's start with an example. Under our operation <img src=./images/hexagon_symbol.png style=width:14px;height:14px> we can make every other number using just 1: 2 = 1 <img src=./images/hexagon_symbol.png style=width:14px;height:14px> 1, 3 = 1 <img src=./images/hexagon_symbol.png style=width:14px;height:14px> 1 <img src=./images/hexagon_symbol.png style=width:14px;height:14px> 1, 4 = 1 <img src=./images/hexagon_symbol.png style=width:14px;height:14px> 1 <img src=./images/hexa gon_symb ol.png style=width:14px;height:14px> 1 <img src=./images/hexagon_symbol.png style=width:14px;height:14px> 1, 5 = 1 <img src=./images/hexagon_symbol.png style=width:14px;height:14px> 1 <img src=./images/hexagon_symbol.png style=width:14px;height:14px> 1 <img src=./images/hexagon_symbol.png style=width:14px;height:14px> 1 <img src=./images/hexagon_symbol.png style=width:14px;height:14px> 1, and 0 = 1 <img src=./images/hexagon_symbol.png style=width:14px;height:14px> 1 <img src=./images/hexagon_symbol.png style=width:14px;height:14px> 1 <img src=./images/hexagon_symbol.png style=width:14px;height:14px> 1 <img src=./images/hexagon_symbol.png style=width:14px;height:14px> 1 <img src=./images/hexagon_symbol.png style=width:14px;height:14px> 1. Because 1 can make every other element under <img src=./images/hexagon_symbol.png style=width:14px;height:14px>, we say that 1 is a <i>generator</i > under  <img src=./images/hexagon_symbol.png style=width:14px;height:14px>. <br /><br /> However, 2 is not a generator under <img src=./images/hexagon_symbol.png style=width:14px;height:14px>, because 4 = 2 <img src=./images/hexagon_symbol.png style=width:14px;height:14px> 2, and 0 = 2 <img src=./images/hexagon_symbol.png style=width:14px;height:14px> 2 <img src=./images/hexagon_symbol.png style=width:14px;height:14px> 2, but there is no way to make 1, 3, or 5 using just 2.","orientation_history":[0],"rt":157645,"trial_type":"polygon-arrow-instructions","trial_index":0,"trial_index_global":36,"time_elapsed":1233512,"internal_chunk_id":"0-0"},{"nsides":6,"question":"Now you try! Is 3 a generator under <img src=./images/hexagon_symbol.png style=width:14px;height:14px>? <br /><br /> (Remember, a generator is an element which can make every other element.)","response_type":"multi","response_choices":["Yes","No"],"correct_response":"No","response":"No","explain":false,"explanation":"","explanation_history":[],"orientation_history":[[0]],"response_history":["No"],"rt":50137,"trial_type":"polygon-arrow-question","trial_index":0,"trial_index_global":37,"time_elapsed":1283653,"internal_chunk_id":"0-0.10-0"},{"nsides":6,"feedback":"Correct! 3 is not a generator under <img src=./images/hexagon_symbol.png style=width:14px;height:14px>, because 3 = 3, 0 = 3 <img src=./images/hexagon_symbol.png style=width:14px;height:14px> 3, but there is no way to make 1, 2, 4, or 5 using just 3.","orientation_history":[0],"rt":18220,"trial_type":"polygon-arrow-feedback","trial_index":0,"trial_index_global":38,"time_elapsed":1301875,"internal_chunk_id":"0-0.10-0"},{"nsides":6,"question":"Is 5 a generator under <img src=./images/hexagon_symbol.png style=width:14px;height:14px>? <br /><br /> (Remember, a generator is an element which can make every other element.)","response_type":"multi","response_choices":["Yes","No"],"correct_response":"Yes","response":"No","explain":false,"explanation":"","explanation_history":[],"orientation_history":[[0]],"response_history":["No"],"rt":38097,"trial_type":"polygon-arrow-question","trial_index":0,"trial_index_global":39,"time_elapsed":1339974,"internal_chunk_id":"0-0.10-0"},{"nsides":6,"feedback":"Sorry, that's incorrect. 5 is a generator under <img src=./images/hexagon_symbol.png style=width:14px;height:14px>, because 5 = 5, 4 = 5 <img src=./images/hexagon_symbol.png style=width:14px;height:14px> 5, 3 = 5 <img src=./images/hexagon_symbol.png style=width:14px;height:14px> 5 <img src=./images/hexagon_symbol.png style=width:14px;height:14px> 5, 2 = 5 <img src=./images/hexagon_symbol.png style=width:14px;height:14px> 5 <img src=./images/hexagon_symbol.png style=width:14px;height:14px> 5 <img src=./images/hexagon_symbol.png style=width:14px;height:14px> 5, 1 = 5 <img src=./images/hexagon_symbol.png style= width: 14px;height:14px> 5 <img src=./images/hexagon_symbol.png style=width:14px;height:14px> 5 <img src=./images/hexagon_symbol.png style=width:14px;height:14px> 5 <img src=./images/hexagon_symbol.png style=width:14px;height:14px> 5, and 0 = 5 <img src=./images/hexagon_symbol.png style=width:14px;height:14px> 5 <img src=./images/hexagon_symbol.png style=width:14px;height:14px> 5 <img src=./images/hexagon_symbol.png style=width:14px;height:14px> 5 <img src=./images/hexagon_symbol.png style=width:14px;height:14px> 5 <img src=./images/hexagon_symbol.png style=width:14px;height:14px> 5, so you can make all of the numbers under <img src=./images/hexagon_symbol.png style=width:14px;height:14px> using 5","orientation_history":[0],"rt":92140,"trial_type":"polygon-arrow-feedback","trial_index":0,"trial_index_global":40,"time_elapsed":1432117,"internal_chunk_id":"0-0.10-0"},{"nsides":6,"question":"Is 4 a generator und er <img  src=./images/hexagon_symbol.png style=width:14px;height:14px>? <br /><br /> (Remember, a generator is an element which can make every other element.)","response_type":"multi","response_choices":["Yes","No"],"correct_response":"No","response":"No","explain":false,"explanation":"","explanation_history":[],"orientation_history":[[0]],"response_history":["No"],"rt":33397,"trial_type":"polygon-arrow-question","trial_index":0,"trial_index_global":41,"time_elapsed":1465516,"internal_chunk_id":"0-0.10-0"},{"nsides":6,"feedback":"Correct! 4 is not a generator under <img src=./images/hexagon_symbol.png style=width:14px;height:14px>, because 4 = 4, 2 = 4 <img src=./images/hexagon_symbol.png style=width:14px;height:14px> 4, and 0 = 4 <img src=./images/hexagon_symbol.png style=width:14px;height:14px> 4 <img src=./images/hexagon_symbol.png style=width:14px;height:14px> 4, but there is no way to make 1, 3, or 5 using just 4.","orientation_history":[0],"rt":2591,"trial_type":"polygon-arrow-feedback","trial_index":0,"trial_index_global":42,"time_elapsed":1468109,"internal_chunk_id":"0-0.10-0"},{"nsides":6,"question":"Is 0 a generator under <img src=./images/hexagon_symbol.png style=width:14px;height:14px>? <br /><br /> (Remember, a generator is an element which can make every other element.)","response_type":"multi","response_choices":["Yes","No"],"correct_response":"No","response":"Yes","explain":false,"explanation":"","explanation_history":[],"orientation_history":[[0]],"response_history":["Yes"],"rt":34288,"trial_type":"polygon-arrow-question","trial_index":0,"trial_index_global":43,"time_elapsed":1502398,"internal_chunk_id":"0-0.10-0"},{"nsides":6,"feedback":"Sorry, that's incorrect. 0 is not a generator under <img src=./images/hexagon_symbol.png style=width:14px;height:14px>, because 0 = 0, but there is no way to make 1, 2, 3, 4, or 5 using just 0.","orientation_history":[0],"rt":7672,"trial_type":"polygon-ar row-feed back","trial_index":0,"trial_index_global":44,"time_elapsed":1510072,"internal_chunk_id":"0-0.10-0"},{"nsides":9,"instructions":"Now we are going to ask you some questions about a new operation, <img src=./images/nonagon_symbol.png style=width:14px;height:14px>, on the numbers 0, 1, 2, 3, 4, 5, 6, 7, 8. It works exactly like <img src=./images/hexagon_symbol.png style=width:14px;height:14px>, except now you use the nonagon shown at the right. <br /><br />Do you see how <img src=./images/nonagon_symbol.png style=width:14px;height:14px> works just like <img src=./images/hexagon_symbol.png style=width:14px;height:14px>? By labeling the points of the nonagon with the numbers from 0 to 8, we ensure that when we combine two numbers under <img src=./images/nonagon_symbol.png style=width:14px;height:14px>, we only produce numbers between 0 and 8. <br /><br />We'll give you one practice question with feedback to make sure you understand the new  operatio n. After that, try to complete the remaining questions as accurately as possible.","orientation_history":[0],"rt":63364,"trial_type":"polygon-arrow-instructions","trial_index":0,"trial_index_global":45,"time_elapsed":1573438,"internal_chunk_id":"0-0"},{"nsides":9,"question":"Practice: What is 5 <img src=./images/nonagon_symbol.png style=width:14px;height:14px> 5?","response_type":"free","response_choices":[],"correct_response":"1","response":"1","explain":false,"explanation":"","explanation_history":[],"orientation_history":[[0]],"response_history":["1"],"rt":30089,"trial_type":"polygon-arrow-question","trial_index":0,"trial_index_global":46,"time_elapsed":1603531,"internal_chunk_id":"0-0.12-0"},{"nsides":9,"feedback":"Correct! 5 <img src=./images/nonagon_symbol.png style=width:14px;height:14px> 5 = 1 because 5 steps clockwise on the nonagon from 5 brings us to 1","orientation_history":[0],"rt":1812,"trial_type":"polygon-arrow-feedback","trial_index":0,"trial_index_global":47,"time_elapsed":1605345,"internal_chunk_id":"0-0.12-0"},{"nsides":9,"question":"What is 3 <img src=./images/nonagon_symbol.png style=width:14px;height:14px> 3?","response_type":"free","response_choices":[],"correct_response":"6","response":"6","explain":false,"explanation":"","explanation_history":[],"orientation_history":[[0]],"response_history":["6"],"rt":6305,"trial_type":"polygon-arrow-question","trial_index":0,"trial_index_global":48,"time_elapsed":1611651,"internal_chunk_id":"0-0.12-0"},{"nsides":9,"question":"What is 7 <img src=./images/nonagon_symbol.png style=width:14px;height:14px> 4?","response_type":"free","response_choices":[],"correct_response":"2","response":"2","explain":false,"explanation":"","explanation_history":[],"orientation_history":[[0]],"response_history":["2"],"rt":6821,"trial_type":"polygon-arrow-question","trial_index":0,"trial_index_global":49,"time_elapsed":1618474,"internal_chunk_id":"0-0.12-0"},{"nsides":9,"question":" What is  1 <img src=./images/nonagon_symbol.png style=width:14px;height:14px> 8?","response_type":"free","response_choices":[],"correct_response":"0","response":"0","explain":false,"explanation":"","explanation_history":[],"orientation_history":[[0]],"response_history":["0"],"rt":13871,"trial_type":"polygon-arrow-question","trial_index":0,"trial_index_global":50,"time_elapsed":1632348,"internal_chunk_id":"0-0.12-0"},{"nsides":9,"question":"What is 5 <img src=./images/nonagon_symbol.png style=width:14px;height:14px> 4?","response_type":"free","response_choices":[],"correct_response":"0","response":"0","explain":false,"explanation":"","explanation_history":[],"orientation_history":[[0]],"response_history":["0"],"rt":8949,"trial_type":"polygon-arrow-question","trial_index":0,"trial_index_global":51,"time_elapsed":1641299,"internal_chunk_id":"0-0.12-0"},{"nsides":9,"question":"What is 6 <img src=./images/nonagon_symbol.png style=width:14px;height:14px> 6?","response_type":"free","response_choices":[],"correct_response":"3","response":"2","explain":false,"explanation":"","explanation_history":[],"orientation_history":[[0]],"response_history":["2"],"rt":7619,"trial_type":"polygon-arrow-question","trial_index":0,"trial_index_global":52,"time_elapsed":1648923,"internal_chunk_id":"0-0.12-0"},{"nsides":9,"instructions":"On the following question, and several others later in the HIT, we will ask you to explain how you got your answer. On these questions, you will be given one box for your answer to the question, and a second for your explanation. Please explain your thought process in as much detail as possible (at least one sentence, and more if you can).","orientation_history":[0],"rt":15047,"trial_type":"polygon-arrow-instructions","trial_index":0,"trial_index_global":53,"time_elapsed":1663972,"internal_chunk_id":"0-0.12-0"},{"nsides":9,"question":"What is 4 <img src=./images/nonagon_symbol.png style=width:14px;height:14px> 1? Please exp lain in  words how you got your answer.","response_type":"free","response_choices":[],"correct_response":"5","response":"5","explain":true,"explanation":"1 is the inverse of 4 under this","explanation_history":["4","5=","5","1 is the inverse of 4 under this"],"orientation_history":[[0]],"response_history":["5"],"rt":168411,"trial_type":"polygon-arrow-question","trial_index":0,"trial_index_global":54,"time_elapsed":1832387,"internal_chunk_id":"0-0.12-0"},{"nsides":9,"question":"What is 8 <img src=./images/nonagon_symbol.png style=width:14px;height:14px> 4? Please explain in words how you got your answer.","response_type":"free","response_choices":[],"correct_response":"3","response":"3","explain":true,"explanation":"4 is the inverse of 8","explanation_history":["4 is the inverse of 8"],"orientation_history":[[0]],"response_history":["3"],"rt":49516,"trial_type":"polygon-arrow-question","trial_index":0,"trial_index_global":55,"time_elapsed":1881906,"internal_chunk_id":"0-0.12-0 "},{"nsides":9,"question":"What is the identity under <img src=./images/nonagon_symbol.png style=width:14px;height:14px>? Please explain in words how you got your answer.","response_type":"free","response_choices":[],"correct_response":"0","response":"0","explain":true,"explanation":"0 combine with it and gives identical back","explanation_history":["