[{"nsides":6,"instructions":"Let's define a new operation <img src=./images/hexagon_symbol.png style=width:14px;height:14px>. This operation will give us a way of combining two of the numbers 0, 1, 2, 3, 4, 5 to get another one of them back. To perform <img src=./images/hexagon_symbol.png style=width:14px;height:14px>, you can either use a method based on the hexagon at right, or a method based on arithmetic.<br /><b>Hexagon method:</b> you can use the interactive diagram on the right, or perform the operation in your mind. Point the arrow at the first number on the hexagon by clicking, then click (or click and drag) to move the arrow the second number of points clockwise around the hexagon. The number the arrow arrives at is your result. (The operation is called <img src=./images/hexagon_symbol.png style=width:14px;height:14px> because it uses the hexagon, which has 6 sides.) <br ><b>Arithmetic method:</b> you start with the first number, and then add  the sec ond one to it. If the sum is smaller than 6, that's your result. If the sum is 6 or bigger, you subtract 6 to get your result. <br /><br />For example, 3 <img src=./images/hexagon_symbol.png style=width:14px;height:14px> 5 = 2, because 5 steps clockwise from 3 on the hexagon brings us to 2. Equivalently, 3 + 5 = 8, and 8 is bigger than 6, so we subtract 6, and 8 - 6 = 2. So 3 <img src=./images/hexagon_symbol.png style=width:14px;height:14px> 5 = 2.<br /><br />Similarly, 1 <img src=./images/hexagon_symbol.png style=width:14px;height:14px> 4 = 5, because 1 + 4 = 5, and 5 is less than 6 so we leave it alone. Equivalently, 4 steps clockwise from 1 on the hexagon brings us to 5. <br /><br />Click Continue when you're ready to move on.","orientation_history":[0],"rt":70855,"trial_type":"polygon-arrow-instructions","trial_index":0,"trial_index_global":1,"time_elapsed":82409,"internal_chunk_id":"0-0"},{"nsides":6,"instructions":"Do you see how the differe nt ways  of performing <img src=./images/hexagon_symbol.png style=width:14px;height:14px> give the same result? By labeling the points of the hexagon with the numbers from 0 to 5, we ensure that when we combine two numbers using the hexagon, we only produce numbers between 0 and 5. When we use the arithmetic strategy, adding the second number to the first mimics counting around the hexagon, and subtracting 6 each time we get above 5 makes sure the results correspond to the numbers on the points of the hexagon. <br /><br />Click Continue when you're ready to move on.","orientation_history":[0],"rt":27407,"trial_type":"polygon-arrow-instructions","trial_index":0,"trial_index_global":2,"time_elapsed":109821,"internal_chunk_id":"0-0"},{"nsides":6,"question":"Now try one on your own! What is 4 <img src=./images/hexagon_symbol.png style=width:14px;height:14px> 5? <br /><br /> (Remember, to perform <img src=./images/hexagon_symbol.png style=width:14px;height:14px >, you c an either use a method based on the hexagon at right, or a method based on arithmetic.<br /><br /><b>Hexagon method:</b> you can use the interactive diagram on the right, or perform the operation in your mind. Point the arrow at the first number, then move the arrow the second number of points clockwise around the hexagon. The number the arrow arrives at is your result. <br /><br /><b>Arithmetic method:</b> you start with the first number, and then add the second one to it. If the sum is smaller than 6, that's your result. If the sum is 6 or bigger, you subtract 6 to get your result.)","response_type":"free","response_choices":[],"correct_response":"3","response":"3","explain":false,"explanation":"","explanation_history":[],"orientation_history":[[0],[3.1630947155760243,3.1630947155760243,3.1630947155760243,3.1630947155760243,3.1630947155760243,3.1630947155760243,3.1630947155760243,3.1630947155760243,3.1630947155760243,3.141592653589793],[4.264046298708076,4.2487413713838835,4.2487413713838835,4.2487413713838835,4.2487413713838835,4.243560070599646,4.243560070599646,4.1887902047863905],[5.308889962904515,5.308889962904515,5.308889962904515,5.308889962904515,5.308889962904515,5.308889962904515,5.308889962904515,5.308889962904515,5.235987755982988],[0.03569911267932402,0.03569911267932402,0.03569911267932402,0.03569911267932402,0],[0.03569911267932402,0.03569911267932402,0.03569911267932402,0.03569911267932402,0.03569911267932402,0.03569911267932402,0],[0.9987668055492562,0.9987668055492562,0.9987668055492562,0.9987668055492562,0.9987668055492562,0.9987668055492562,0.9987668055492562,1.0471975511965976],[2.0951170390983185,2.0951170390983185,2.0951170390983185,2.0951170390983185,2.0951170390983185,2.0951170390983185,2.0951170390983185,2.0943951023931953],[3.118869292748152,3.118869292748152,3.118869292748152,3.118869292748152,3.118869292748152,3.118869292748152,3.118869292748152,3.141592653589793],[4.21304225870456,4.21304225870456,4.21304225870456,4.21304225870456,4.21304225870456,4.21304225870456,4.21304225870456,4.21304225870456,4.1887902047863905],[5.272070546387968,5.272070546387968,5.2775384203914495,5.2775384203914495,5.2775384203914495,5.2775384203914495,5.2775384203914495,5.2775384203914495,5.2775384203914495,5.235987755982988],[0.1019183674808739,0.1019183674808739,0.1019183674808739,0.1019183674808739,0.1019183674808739,0.1019183674808739,0.1019183674808739,0.1019183674808739,0.1019183674808739,0],[1.0472205626728825,1.0472205626728825,1.0472205626728825,1.0472205626728825,1.0472205626728825,1.0472205626728825,1.0472205626728825,1.0472205626728825,1.0472205626728825,1.0471975511965976],[1.995628489714239,1.995628489714239,1.995628489714239,1.995628489714239,1.995628489714239,1.995628489714239,1.995628489714239,1.995628489714239,1.995628489714239,1.995628489714239,2.0943951023931953],[3.1626421757268397,3.1626421757268397,3.1626421757268397,3.1626421757268397,3.1626421757268397,3.1626421757268397,3.1626421757268397,3.1626421757268397,3.1626421757268397,3.141592653589793]],"response_history":["3"],"rt":66612,"trial_type":"polygon-arrow-question","trial_index":0,"trial_index_global":3,"time_elapsed":176438,"internal_chunk_id":"0-0.3-0"},{"nsides":6,"feedback":"Correct! 4 <img src=./images/hexagon_symbol.png style=width:14px;height:14px> 5 = 3 because 5 steps clockwise on the hexagon from 4 brings us to 3. Equivalently, 4 + 5 = 9 and 9 - 6 = 3.","orientation_history":[0],"rt":4443,"trial_type":"polygon-arrow-feedback","trial_index":0,"trial_index_global":4,"time_elapsed":180886,"internal_chunk_id":"0-0.3-0"},{"nsides":6,"question":"What is 3 <img src=./images/hexagon_symbol.png style=width:14px;height:14px> 2? Try to solve this problem using the hexagon. <br /><br /> (Remember, to perform <img src=./images/hexagon_symbol.png style=width:14px;height:14px> on the hexagon, you can use the interactive diagram on the right, or perform the operation in your mind. Point the arrow at th e first  number on the hexagon, and then move the arrow the second number of points clockwise around the hexagon.)","response_type":"free","response_choices":[],"correct_response":"5","response":"5","explain":false,"explanation":"","explanation_history":[],"orientation_history":[[0],[3.165397679774863,3.165397679774863,3.165397679774863,3.165397679774863,3.165397679774863,3.165397679774863,3.165397679774863,3.165397679774863,3.165397679774863,3.141592653589793],[4.303481151433765,4.303481151433765,4.303481151433765,4.303481151433765,4.303481151433765,4.303481151433765,4.1887902047863905],[5.224778440695427,5.224778440695427,5.224778440695427,5.224778440695427,5.224778440695427,5.224778440695427,5.235987755982988]],"response_history":["5"],"rt":9293,"trial_type":"polygon-arrow-question","trial_index":0,"trial_index_global":5,"time_elapsed":190182,"internal_chunk_id":"0-0.3-0"},{"nsides":6,"feedback":"Correct! 3 <img src=./images/hexagon_symbol.png style=width:14px;height:14px>  2 = 5 b ecause 2 steps clockwise on the hexagon from 3 brings us to 5. Equivalently, 3 + 2 = 5 and 5 is less than 6.","orientation_history":[0],"rt":3229,"trial_type":"polygon-arrow-feedback","trial_index":0,"trial_index_global":6,"time_elapsed":193413,"internal_chunk_id":"0-0.3-0"},{"nsides":6,"question":"What is 1 <img src=./images/hexagon_symbol.png style=width:14px;height:14px> 5? Try to solve this probem using the arithmetic technique. <br /><br /> (Remember, to perform <img src=./images/hexagon_symbol.png style=width:14px;height:14px> by arithmetic, you start with the first number, and then add the second one to it. If the sum is smaller than 6, that's your result. If the sum is 6 or bigger, you subtract 6 to get your result.)","response_type":"free","response_choices":[],"correct_response":"0","response":"0","explain":false,"explanation":"","explanation_history":[],"orientation_history":[[0]],"response_history":["0"],"rt":6703,"trial_type":"polygon-arrow-quest ion","trial_index":0,"trial_index_global":7,"time_elapsed":200117,"internal_chunk_id":"0-0.3-0"},{"nsides":6,"feedback":"Correct! 1 <img src=./images/hexagon_symbol.png style=width:14px;height:14px> 5 = 0 because 1 + 5 = 6 and 6 - 6 = 0.  Equivalently, 5 steps clockwise on the hexagon from 1 brings us to 0.","orientation_history":[0],"rt":5029,"trial_type":"polygon-arrow-feedback","trial_index":0,"trial_index_global":8,"time_elapsed":205149,"internal_chunk_id":"0-0.3-0"},{"nsides":6,"question":"What is 1 <img src=./images/hexagon_symbol.png style=width:14px;height:14px> 1? Try to solve this problem using the hexagon. <br /><br /> (Remember, to perform <img src=./images/hexagon_symbol.png style=width:14px;height:14px> on the hexagon, you can use the interactive diagram on the right, or perform the operation in your mind. Point the arrow at the first number on the hexagon, and then move the arrow the second number of points clockwise around the hexagon.)","response_type":"free","response_choices":[],"correct_response":"2","response":"2","explain":false,"explanation":"","explanation_history":[],"orientation_history":[[0]],"response_history":["2"],"rt":5567,"trial_type":"polygon-arrow-question","trial_index":0,"trial_index_global":9,"time_elapsed":210717,"internal_chunk_id":"0-0.3-0"},{"nsides":6,"feedback":"Correct! 1 <img src=./images/hexagon_symbol.png style=width:14px;height:14px> 1 = 2 because 1 step clockwise on the hexagon from 1 brings us to 2. Equivalently, 1 + 1 = 2 and 2 is less than 6.","orientation_history":[0],"rt":4112,"trial_type":"polygon-arrow-feedback","trial_index":0,"trial_index_global":10,"time_elapsed":214830,"internal_chunk_id":"0-0.3-0"},{"nsides":6,"question":"What is 3 <img src=./images/hexagon_symbol.png style=width:14px;height:14px> 0? Try to solve this problem using the arithmetic technique. <br /><br /> (Remember, to perform <img src=./images/hexagon_symbol.png style=width:14px;height:14p x> usi ng arithmetic, you start with the first number, and then add the second one to it. If the sum is smaller than 6, that's your result. If the sum is 6 or bigger, you subtract 6 to get your result.)","response_type":"free","response_choices":[],"correct_response":"3","response":"3","explain":false,"explanation":"","explanation_history":[],"orientation_history":[[0]],"response_history":["3"],"rt":6357,"trial_type":"polygon-arrow-question","trial_index":0,"trial_index_global":11,"time_elapsed":221190,"internal_chunk_id":"0-0.3-0"},{"nsides":6,"feedback":"Correct! 3 <img src=./images/hexagon_symbol.png style=width:14px;height:14px> 0 = 3 because 3 + 0 = 3 and 3 - 6 = 3.  Equivalently, 0 steps clockwise on the hexagon from 3 brings us to 3.","orientation_history":[0],"rt":1925,"trial_type":"polygon-arrow-feedback","trial_index":0,"trial_index_global":12,"time_elapsed":223117,"internal_chunk_id":"0-0.3-0"},{"nsides":6,"question":"What is 4 <img src=./images/hexagon_symbol. png st yle=width:14px;height:14px> 4? Try to solve this problem using the hexagon. <br /><br /> (Remember, to perform <img src=./images/hexagon_symbol.png style=width:14px;height:14px> on the hexagon, you can use the interactive diagram on the right, or perform the operation in your mind. Point the arrow at the first number on the hexagon, and then move the arrow the second number of points clockwise around the hexagon.)","response_type":"free","response_choices":[],"correct_response":"2","response":"2","explain":false,"explanation":"","explanation_history":[],"orientation_history":[[0]],"response_history":["2"],"rt":3438,"trial_type":"polygon-arrow-question","trial_index":0,"trial_index_global":13,"time_elapsed":226556,"internal_chunk_id":"0-0.3-0"},{"nsides":6,"feedback":"Correct! 4 <img src=./images/hexagon_symbol.png style=width:14px;height:14px> 4 = 2 because 4 steps clockwise on the hexagon from 4 brings us to 2. Equivalently, 4 + 4 = 8 and 8 - 6 = 2.","orientation_history":[0],"rt":1479,"trial_type":"polygon-arrow-feedback","trial_index":0,"trial_index_global":14,"time_elapsed":228036,"internal_chunk_id":"0-0.3-0"},{"nsides":6,"question":"What is 1 <img src=./images/hexagon_symbol.png style=width:14px;height:14px> 3? Try to solve this problem using the arithmetic technique. <br /><br /> (Remember, to perform <img src=./images/hexagon_symbol.png style=width:14px;height:14px> by arithmetic, you start with the first number, and then add the second one to it. If the sum is smaller than 6, that's your result. If the sum is 6 or bigger, you subtract 6 to get your result.)","response_type":"free","response_choices":[],"correct_response":"4","response":"4","explain":false,"explanation":"","explanation_history":[],"orientation_history":[[0]],"response_history":["4"],"rt":2951,"trial_type":"polygon-arrow-question","trial_index":0,"trial_index_global":15,"time_elapsed":230988,"internal_chunk_id":"0-0.3-0"},{"nsides":6,"feedback":"Corre ct! 1 <img src=./images/hexagon_symbol.png style=width:14px;height:14px> 3 = 4 because 1 + 3 = 4 and 4 - 6 = 4.  Equivalently, 3 steps clockwise on the hexagon from 1 brings us to 4.","orientation_history":[0],"rt":1415,"trial_type":"polygon-arrow-feedback","trial_index":0,"trial_index_global":16,"time_elapsed":232404,"internal_chunk_id":"0-0.3-0"},{"nsides":6,"question":"What is 4 <img src=./images/hexagon_symbol.png style=width:14px;height:14px> 3? <br /><br /> (Remember, to perform <img src=./images/hexagon_symbol.png style=width:14px;height:14px>, you can either use a method based on the hexagon at right, or a method based on arithmetic.<br /><br /><b>Hexagon method:</b> you can use the interactive diagram on the right, or perform the operation in your mind. Point the arrow at the first number, then move the arrow the second number of points clockwise around the hexagon. The number the arrow arrives at is your result. <br /><br /><b>Arithmetic met hod:</b>  you start with the first number, and then add the second one to it. If the sum is smaller than 6, that's your result. If the sum is 6 or bigger, you subtract 6 to get your result.)","response_type":"free","response_choices":[],"correct_response":"1","response":"1","explain":false,"explanation":"","explanation_history":[],"orientation_history":[[0]],"response_history":["1"],"rt":4663,"trial_type":"polygon-arrow-question","trial_index":0,"trial_index_global":17,"time_elapsed":237068,"internal_chunk_id":"0-0.3-0"},{"nsides":6,"feedback":"Correct! 4 <img src=./images/hexagon_symbol.png style=width:14px;height:14px> 3 = 1 because 3 steps clockwise on the hexagon from 4 brings us to 1. Equivalently, 4 + 3 = 7 and 7 - 6 = 1.","orientation_history":[0],"rt":1861,"trial_type":"polygon-arrow-feedback","trial_index":0,"trial_index_global":18,"time_elapsed":238931,"internal_chunk_id":"0-0.3-0"},{"nsides":6,"question":"What is 0 <img src=./images/hexagon_symbol.png style=w idth:14p x;height:14px> 5? <br /><br /> (Remember, to perform <img src=./images/hexagon_symbol.png style=width:14px;height:14px>, you can either use a method based on the hexagon at right, or a method based on arithmetic.<br /><br /><b>Hexagon method:</b> you can use the interactive diagram on the right, or perform the operation in your mind. Point the arrow at the first number, then move the arrow the second number of points clockwise around the hexagon. The number the arrow arrives at is your result. <br /><br /><b>Arithmetic method:</b> you start with the first number, and then add the second one to it. If the sum is smaller than 6, that's your result. If the sum is 6 or bigger, you subtract 6 to get your result.)","response_type":"free","response_choices":[],"correct_response":"5","response":"5","explain":false,"explanation":"","explanation_history":[],"orientation_history":[[0]],"response_history":["5"],"rt":4848,"trial_type":"polygon-arrow-question","trial_index":0,"trial_index_global":19,"time_elapsed":243781,"internal_chunk_id":"0-0.3-0"},{"nsides":6,"feedback":"Correct! 0 <img src=./images/hexagon_symbol.png style=width:14px;height:14px> 5 = 5 because 5 steps clockwise on the hexagon from 0 brings us to 5. Equivalently, 0 + 5 = 5 and 5 is less than 6.","orientation_history":[0],"rt":1085,"trial_type":"polygon-arrow-feedback","trial_index":0,"trial_index_global":20,"time_elapsed":244868,"internal_chunk_id":"0-0.3-0"},{"nsides":6,"question":"What is 2 <img src=./images/hexagon_symbol.png style=width:14px;height:14px> 5? <br /><br /> (Remember, to perform <img src=./images/hexagon_symbol.png style=width:14px;height:14px>, you can either use a method based on the hexagon at right, or a method based on arithmetic.<br /><br /><b>Hexagon method:</b> you can use the interactive diagram on the right, or perform the operation in your mind. Point the arrow at the first number, then move the arrow the second number of points clock wise aro und the hexagon. The number the arrow arrives at is your result. <br /><br /><b>Arithmetic method:</b> you start with the first number, and then add the second one to it. If the sum is smaller than 6, that's your result. If the sum is 6 or bigger, you subtract 6 to get your result.)","response_type":"free","response_choices":[],"correct_response":"1","response":"1","explain":false,"explanation":"","explanation_history":[],"orientation_history":[[0]],"response_history":["1"],"rt":3214,"trial_type":"polygon-arrow-question","trial_index":0,"trial_index_global":21,"time_elapsed":248084,"internal_chunk_id":"0-0.3-0"},{"nsides":6,"feedback":"Correct! 2 <img src=./images/hexagon_symbol.png style=width:14px;height:14px> 5 = 1 because 5 steps clockwise on the hexagon from 2 brings us to 1. Equivalently, 2 + 5 = 7 and 7 - 6 = 1.","orientation_history":[0],"rt":1743,"trial_type":"polygon-arrow-feedback","trial_index":0,"trial_index_global":22,"time_elapsed":249828,"internal_chunk_id":" 0-0.3-0"},{"nsides":6,"instructions":"Now we're going to discuss a couple special properties of this new operation, <img src=./images/hexagon_symbol.png style=width:14px;height:14px> that we've learned. First, notice that the number 0 behaves in a special way under <img src=./images/hexagon_symbol.png style=width:14px;height:14px>. Whenever we combine 0 with anything else, we get that same thing back. We'll say that 0 is the <i>identity</i> under <img src=./images/hexagon_symbol.png style=width:14px;height:14px>, because when you combine it with something it gives you that identical thing back.","orientation_history":[0],"rt":14177,"trial_type":"polygon-arrow-instructions","trial_index":0,"trial_index_global":23,"time_elapsed":264012,"internal_chunk_id":"0-0"},{"nsides":6,"instructions":"Now that we know 0 is the identity under <img src=./images/hexagon_symbol.png style=width:14px;height:14px>, we're going to make a new definition. We'll say t hat the  <i>inverse</i> of a number is the element that you combine with it to produce the identity. For example, 5 <img src=./images/hexagon_symbol.png style=width:14px;height:14px> 1 = 0, so we say 1 is the inverse of 5 under <img src=./images/hexagon_symbol.png style=width:14px;height:14px>, (remember 0 is the identity under <img src=./images/hexagon_symbol.png style=width:14px;height:14px>). Similarly, 3 is its own inverse under <img src=./images/hexagon_symbol.png style=width:14px;height:14px>, because 3 <img src=./images/hexagon_symbol.png style=width:14px;height:14px> 3 = 0.","orientation_history":[0],"rt":2999,"trial_type":"polygon-arrow-instructions","trial_index":0,"trial_index_global":24,"time_elapsed":267012,"internal_chunk_id":"0-0"},{"nsides":6,"question":"Now you try! What is the inverse of 4 under <img src=./images/hexagon_symbol.png style=width:14px;height:14px>? <br /><br /> (Remember, the inverse of an element is the  thing wh ich you combine with it to produce the identity.)","response_type":"free","response_choices":[],"correct_response":"2","response":"2","explain":false,"explanation":"","explanation_history":[],"orientation_history":[[0]],"response_history":["2"],"rt":20279,"trial_type":"polygon-arrow-question","trial_index":0,"trial_index_global":25,"time_elapsed":287292,"internal_chunk_id":"0-0.7-0"},{"nsides":6,"feedback":"Correct! The inverse of 4 under <img src=./images/hexagon_symbol.png style=width:14px;height:14px> is 2 because 4 <img src=./images/hexagon_symbol.png style=width:14px;height:14px> 2 = 0, and 0 is the identity under <img src=./images/hexagon_symbol.png style=width:14px;height:14px>.","orientation_history":[0],"rt":3806,"trial_type":"polygon-arrow-feedback","trial_index":0,"trial_index_global":26,"time_elapsed":291099,"internal_chunk_id":"0-0.7-0"},{"nsides":6,"question":"What is the inverse of 1 under <img src=./images/hexagon_symbol.png style= width: 14px;height:14px>? <br /><br /> (Remember, the inverse of an element is the thing which you combine with it to produce the identity.)","response_type":"free","response_choices":[],"correct_response":"5","response":"5","explain":false,"explanation":"","explanation_history":[],"orientation_history":[[0]],"response_history":["5"],"rt":8302,"trial_type":"polygon-arrow-question","trial_index":0,"trial_index_global":27,"time_elapsed":299403,"internal_chunk_id":"0-0.7-0"},{"nsides":6,"feedback":"Correct! The inverse of 1 under <img src=./images/hexagon_symbol.png style=width:14px;height:14px> is 5 because 1 <img src=./images/hexagon_symbol.png style=width:14px;height:14px> 5 = 0, and 0 is the identity under <img src=./images/hexagon_symbol.png style=width:14px;height:14px>.","orientation_history":[0],"rt":2025,"trial_type":"polygon-arrow-feedback","trial_index":0,"trial_index_global":28,"time_elapsed":301429,"internal_chunk_id":"0-0.7-0"},{"nsides":6,"question":"W hat is the inverse of 3 under <img src=./images/hexagon_symbol.png style=width:14px;height:14px>? <br /><br /> (Remember, the inverse of an element is the thing which you combine with it to produce the identity.)","response_type":"free","response_choices":[],"correct_response":"3","response":"3","explain":false,"explanation":"","explanation_history":[],"orientation_history":[[0]],"response_history":["3"],"rt":4453,"trial_type":"polygon-arrow-question","trial_index":0,"trial_index_global":29,"time_elapsed":305884,"internal_chunk_id":"0-0.7-0"},{"nsides":6,"feedback":"Correct! The inverse of 3 under <img src=./images/hexagon_symbol.png style=width:14px;height:14px> is 3 because 3 <img src=./images/hexagon_symbol.png style=width:14px;height:14px> 3 = 0, and 0 is the identity under <img src=./images/hexagon_symbol.png style=width:14px;height:14px>.","orientation_history":[0],"rt":1479,"trial_type":"polygon-arrow-feedback","trial_index":0,"trial_index_global":30,"time_elapsed":307364,"internal_chunk_id":"0-0.7-0"},{"nsides":6,"question":"What is the inverse of 2 under <img src=./images/hexagon_symbol.png style=width:14px;height:14px>? <br /><br /> (Remember, the inverse of an element is the thing which you combine with it to produce the identity.)","response_type":"free","response_choices":[],"correct_response":"4","response":"4","explain":false,"explanation":"","explanation_history":[],"orientation_history":[[0]],"response_history":["4"],"rt":2431,"trial_type":"polygon-arrow-question","trial_index":0,"trial_index_global":31,"time_elapsed":309796,"internal_chunk_id":"0-0.7-0"},{"nsides":6,"feedback":"Correct! The inverse of 2 under <img src=./images/hexagon_symbol.png style=width:14px;height:14px> is 4 because 2 <img src=./images/hexagon_symbol.png style=width:14px;height:14px> 4 = 0, and 0 is the identity under <img src=./images/hexagon_symbol.png style=width:14px;height:14px>.","orientation_history":[0],"rt":1103,"trial_type":"polygon-arrow-feedback","trial_index":0,"trial_index_global":32,"time_elapsed":310900,"internal_chunk_id":"0-0.7-0"},{"nsides":6,"question":"What is the inverse of 0 under <img src=./images/hexagon_symbol.png style=width:14px;height:14px>? <br /><br /> (Remember, the inverse of an element is the thing which you combine with it to produce the identity.)","response_type":"free","response_choices":[],"correct_response":"0","response":"0","explain":false,"explanation":"","explanation_history":[],"orientation_history":[[0]],"response_history":["0"],"rt":6887,"trial_type":"polygon-arrow-question","trial_index":0,"trial_index_global":33,"time_elapsed":317788,"internal_chunk_id":"0-0.7-0"},{"nsides":6,"feedback":"Correct! The inverse of 0 under <img src=./images/hexagon_symbol.png style=width:14px;height:14px> is 0 because 0 <img src=./images/hexagon_symbol.png style=width:14px;height:14px> 0 = 0, and 0 is the identity under <img s rc=./i mages/hexagon_symbol.png style=width:14px;height:14px>.","orientation_history":[0],"rt":1463,"trial_type":"polygon-arrow-feedback","trial_index":0,"trial_index_global":34,"time_elapsed":319252,"internal_chunk_id":"0-0.7-0"},{"nsides":6,"instructions":"It is also possible to successively apply <img src=./images/hexagon_symbol.png style=width:14px;height:14px>, and the operation can simply be performed starting with the left-most pair. For example, 2 <img src=./images/hexagon_symbol.png style=width:14px;height:14px> 3 <img src=./images/hexagon_symbol.png style=width:14px;height:14px> 4 = 5 <img src=./images/hexagon_symbol.png style=width:14px;height:14px> 4 = 3.","orientation_history":[0],"rt":11407,"trial_type":"polygon-arrow-instructions","trial_index":0,"trial_index_global":35,"time_elapsed":330660,"internal_chunk_id":"0-0"},{"nsides":6,"instructions":"We have one last definition to learn today, using the successive operations we just l earned.  Let's start with an example. Under our operation <img src=./images/hexagon_symbol.png style=width:14px;height:14px> we can make every other number using just 1: 2 = 1 <img src=./images/hexagon_symbol.png style=width:14px;height:14px> 1, 3 = 1 <img src=./images/hexagon_symbol.png style=width:14px;height:14px> 1 <img src=./images/hexagon_symbol.png style=width:14px;height:14px> 1, 4 = 1 <img src=./images/hexagon_symbol.png style=width:14px;height:14px> 1 <img src=./images/hexagon_symbol.png style=width:14px;height:14px> 1 <img src=./images/hexagon_symbol.png style=width:14px;height:14px> 1, 5 = 1 <img src=./images/hexagon_symbol.png style=width:14px;height:14px> 1 <img src=./images/hexagon_symbol.png style=width:14px;height:14px> 1 <img src=./images/hexagon_symbol.png style=width:14px;height:14px> 1 <img src=./images/hexagon_symbol.png style=width:14px;height:14px> 1, and 0 = 1 <img src=. /images/ hexagon_symbol.png style=width:14px;height:14px> 1 <img src=./images/hexagon_symbol.png style=width:14px;height:14px> 1 <img src=./images/hexagon_symbol.png style=width:14px;height:14px> 1 <img src=./images/hexagon_symbol.png style=width:14px;height:14px> 1 <img src=./images/hexagon_symbol.png style=width:14px;height:14px> 1. Because 1 can make every other element under <img src=./images/hexagon_symbol.png style=width:14px;height:14px>, we say that 1 is a <i>generator</i> under <img src=./images/hexagon_symbol.png style=width:14px;height:14px>. <br /><br /> However, 2 is not a generator under <img src=./images/hexagon_symbol.png style=width:14px;height:14px>, because 4 = 2 <img src=./images/hexagon_symbol.png style=width:14px;height:14px> 2, and 0 = 2 <img src=./images/hexagon_symbol.png style=width:14px;height:14px> 2 <img src=./images/hexagon_symbol.png style=width:14px;height:14px> 2, bu t there  is no way to make 1, 3, or 5 using just 2.","orientation_history":[0],"rt":42879,"trial_type":"polygon-arrow-instructions","trial_index":0,"trial_index_global":36,"time_elapsed":373541,"internal_chunk_id":"0-0"},{"nsides":6,"question":"Now you try! Is 3 a generator under <img src=./images/hexagon_symbol.png style=width:14px;height:14px>? <br /><br /> (Remember, a generator is an element which can make every other element.)","response_type":"multi","response_choices":["Yes","No"],"correct_response":"No","response":"No","explain":false,"explanation":"","explanation_history":[],"orientation_history":[[0]],"response_history":["No"],"rt":7783,"trial_type":"polygon-arrow-question","trial_index":0,"trial_index_global":37,"time_elapsed":381325,"internal_chunk_id":"0-0.10-0"},{"nsides":6,"feedback":"Correct! 3 is not a generator under <img src=./images/hexagon_symbol.png style=width:14px;height:14px>, because 3 = 3, 0 = 3 <img src=./images/hexagon_symbol.png style =width :14px;height:14px> 3, but there is no way to make 1, 2, 4, or 5 using just 3.","orientation_history":[0],"rt":5894,"trial_type":"polygon-arrow-feedback","trial_index":0,"trial_index_global":38,"time_elapsed":387221,"internal_chunk_id":"0-0.10-0"},{"nsides":6,"question":"Is 5 a generator under <img src=./images/hexagon_symbol.png style=width:14px;height:14px>? <br /><br /> (Remember, a generator is an element which can make every other element.)","response_type":"multi","response_choices":["Yes","No"],"correct_response":"Yes","response":"No","explain":false,"explanation":"","explanation_history":[],"orientation_history":[[0]],"response_history":["No"],"rt":3591,"trial_type":"polygon-arrow-question","trial_index":0,"trial_index_global":39,"time_elapsed":390813,"internal_chunk_id":"0-0.10-0"},{"nsides":6,"feedback":"Sorry, that's incorrect. 5 is a generator under <img src=./images/hexagon_symbol.png style=width:14px;height:14px>, because 5 = 5, 4 = 5 <img src= ./imag es/hexagon_symbol.png style=width:14px;height:14px> 5, 3 = 5 <img src=./images/hexagon_symbol.png style=width:14px;height:14px> 5 <img src=./images/hexagon_symbol.png style=width:14px;height:14px> 5, 2 = 5 <img src=./images/hexagon_symbol.png style=width:14px;height:14px> 5 <img src=./images/hexagon_symbol.png style=width:14px;height:14px> 5 <img src=./images/hexagon_symbol.png style=width:14px;height:14px> 5, 1 = 5 <img src=./images/hexagon_symbol.png style=width:14px;height:14px> 5 <img src=./images/hexagon_symbol.png style=width:14px;height:14px> 5 <img src=./images/hexagon_symbol.png style=width:14px;height:14px> 5 <img src=./images/hexagon_symbol.png style=width:14px;height:14px> 5, and 0 = 5 <img src=./images/hexagon_symbol.png style=width:14px;height:14px> 5 <img src=./images/hexagon_symbol.png style=width:14px;height:14px> 5 <img src=./images/hexagon_symbol.png style=w idth:14p x;height:14px> 5 <img src=./images/hexagon_symbol.png style=width:14px;height:14px> 5 <img src=./images/hexagon_symbol.png style=width:14px;height:14px> 5, so you can make all of the numbers under <img src=./images/hexagon_symbol.png style=width:14px;height:14px> using 5","orientation_history":[0],"rt":5982,"trial_type":"polygon-arrow-feedback","trial_index":0,"trial_index_global":40,"time_elapsed":396796,"internal_chunk_id":"0-0.10-0"},{"nsides":6,"question":"Is 4 a generator under <img src=./images/hexagon_symbol.png style=width:14px;height:14px>? <br /><br /> (Remember, a generator is an element which can make every other element.)","response_type":"multi","response_choices":["Yes","No"],"correct_response":"No","response":"No","explain":false,"explanation":"","explanation_history":[],"orientation_history":[[0]],"response_history":["No"],"rt":5063,"trial_type":"polygon-arrow-question","trial_index":0,"trial_index_global":41,"time_elapsed":401861,"internal_chunk_id":"0-0.10-0"},{"nsides":6,"feedback":"Correct! 4 is not a generator under <img src=./images/hexagon_symbol.png style=width:14px;height:14px>, because 4 = 4, 2 = 4 <img src=./images/hexagon_symbol.png style=width:14px;height:14px> 4, and 0 = 4 <img src=./images/hexagon_symbol.png style=width:14px;height:14px> 4 <img src=./images/hexagon_symbol.png style=width:14px;height:14px> 4, but there is no way to make 1, 3, or 5 using just 4.","orientation_history":[0],"rt":2895,"trial_type":"polygon-arrow-feedback","trial_index":0,"trial_index_global":42,"time_elapsed":404757,"internal_chunk_id":"0-0.10-0"},{"nsides":6,"question":"Is 0 a generator under <img src=./images/hexagon_symbol.png style=width:14px;height:14px>? <br /><br /> (Remember, a generator is an element which can make every other element.)","response_type":"multi","response_choices":["Yes","No"],"correct_response":"No","response":"No","explain":false,"explanation":"","explanation_history":[],"orientation_history":[[0]],"response_history":["No"],"rt":3503,"trial_type":"polygon-arrow-question","trial_index":0,"trial_index_global":43,"time_elapsed":408261,"internal_chunk_id":"0-0.10-0"},{"nsides":6,"feedback":"Correct! 0 is not a generator under <img src=./images/hexagon_symbol.png style=width:14px;height:14px>, because 0 = 0, but there is no way to make 1, 2, 3, 4, or 5 using just 0.","orientation_history":[0],"rt":2807,"trial_type":"polygon-arrow-feedback","trial_index":0,"trial_index_global":44,"time_elapsed":411069,"internal_chunk_id":"0-0.10-0"},{"nsides":9,"instructions":"Now we are going to ask you some questions about a new operation, <img src=./images/nonagon_symbol.png style=width:14px;height:14px>, on the numbers 0, 1, 2, 3, 4, 5, 6, 7, 8. It works exactly like <img src=./images/hexagon_symbol.png style=width:14px;height:14px>, except now you use the nonagon shown at the right. Equivalently, after adding the t wo numbe rs you subtract 9 if your result is 9 or greater.<br /><br />Do you see how the different ways of performing <img src=./images/nonagon_symbol.png style=width:14px;height:14px> give the same result, just like with <img src=./images/hexagon_symbol.png style=width:14px;height:14px>? By labeling the points of the nonagon with the numbers from 0 to 8, we ensure that when we combine two numbers under <img src=./images/nonagon_symbol.png style=width:14px;height:14px>, we only produce numbers between 0 and 8. When we use the arithmetic strategy, adding the second number to the first mimics counting around the nonagon, and subtracting 9 each time we get above 8 makes sure the results correspond to the numbers on the points of the nonagon.<br /><br />We'll give you one practice question with feedback to make sure you understand the new operation. After that, try to complete the remaining questions as accurately as possible.","orientation_history":[0],"rt":50712,"trial_type":"polygon-arrow-instructions","trial_index":0,"trial_index_global":45,"time_elapsed":461782,"internal_chunk_id":"0-0"},{"nsides":9,"question":"Practice: What is 5 <img src=./images/nonagon_symbol.png style=width:14px;height:14px> 5?","response_type":"free","response_choices":[],"correct_response":"1","response":"1","explain":false,"explanation":"","explanation_history":[],"orientation_history":[[0]],"response_history":["1"],"rt":3858,"trial_type":"polygon-arrow-question","trial_index":0,"trial_index_global":46,"time_elapsed":465644,"internal_chunk_id":"0-0.12-0"},{"nsides":9,"feedback":"Correct! 5 <img src=./images/nonagon_symbol.png style=width:14px;height:14px> 5 = 1 because 5 steps clockwise on the nonagon from 5 brings us to 1. Equivalently, 5 + 5 = 10 and 10 - 9 = 1.","orientation_history":[0],"rt":1311,"trial_type":"polygon-arrow-feedback","trial_index":0,"trial_index_global":47,"time_elapsed":466957,"internal_chunk_id":"0-0.12-0"},{"nsides":9,"question":" What is 3 <img src=./images/nonagon_symbol.png style=width:14px;height:14px> 3?","response_type":"free","response_choices":[],"correct_response":"6","response":"6","explain":false,"explanation":"","explanation_history":[],"orientation_history":[[0]],"response_history":["6"],"rt":4164,"trial_type":"polygon-arrow-question","trial_index":0,"trial_index_global":48,"time_elapsed":471124,"internal_chunk_id":"0-0.12-0"},{"nsides":9,"question":"What is 7 <img src=./images/nonagon_symbol.png style=width:14px;height:14px> 4?","response_type":"free","response_choices":[],"correct_response":"2","response":"2","explain":false,"explanation":"","explanation_history":[],"orientation_history":[[0]],"response_history":["2"],"rt":2862,"trial_type":"polygon-arrow-question","trial_index":0,"trial_index_global":49,"time_elapsed":473988,"internal_chunk_id":"0-0.12-0"},{"nsides":9,"question":"What is 1 <img src=./images/nonagon_symbol.png style=width:14px;height:14px> 8?","response_type":"free","response_choices":[],"correct_response":"0","response":"0","explain":false,"explanation":"","explanation_history":[],"orientation_history":[[0]],"response_history":["0"],"rt":4511,"trial_type":"polygon-arrow-question","trial_index":0,"trial_index_global":50,"time_elapsed":478500,"internal_chunk_id":"0-0.12-0"},{"nsides":9,"question":"What is 5 <img src=./images/nonagon_symbol.png style=width:14px;height:14px> 4?","response_type":"free","response_choices":[],"correct_response":"0","response":"0","explain":false,"explanation":"","explanation_history":[],"orientation_history":[[0]],"response_history":["0"],"rt":4319,"trial_type":"polygon-arrow-question","trial_index":0,"trial_index_global":51,"time_elapsed":482821,"internal_chunk_id":"0-0.12-0"},{"nsides":9,"question":"What is 6 <img src=./images/nonagon_symbol.png style=width:14px;height:14px> 6?","response_type":"free","response_choices":[],"correct_response":"3","response":"3","explain":false,"explanation":"","explanation_history":[],"orientation_history":[[0]],"response_history":["3"],"rt":3294,"trial_type":"polygon-arrow-question","trial_index":0,"trial_index_global":52,"time_elapsed":486117,"internal_chunk_id":"0-0.12-0"},{"nsides":9,"instructions":"On the following question, and several others later in the HIT, we will ask you to explain how you got your answer. On these questions, you will be given one box for your answer to the question, and a second for your explanation. Please explain your thought process in as much detail as possible (at least one sentence, and more if you can).","orientation_history":[0],"rt":12312,"trial_type":"polygon-arrow-instructions","trial_index":0,"trial_index_global":53,"time_elapsed":498430,"internal_chunk_id":"0-0.12-0"},{"nsides":9,"question":"What is 4 <img src=./images/nonagon_symbol.png style=width:14px;height:14px> 1? Please explain in words how you got your answer.","response_type":"free","response_choices":[],"correct_response":"5","response":"5","explain":true,"explanation":"Setting the arrow at 4 and moving it one to the left ends up at 5.","explanation_history":["se","s","Setting the arrow at 5","Setting the arrow at 4 and moving it one to the left gives 5.","Setting the arrow at 4 and moving it one to the left give 5.","Setting the arrow at 4 and moving it one to the left giv 5.","Setting the arrow at 4 and moving it one to the left gi 5.","Setting the arrow at 4 and moving it one to the left g 5.","Setting the arrow at 4 and moving it one to the left  5.","Setting the arrow at 4 and moving it one to the left e 5.","Setting the arrow at 4 and moving it one to the left en 5.","Setting the arrow at 4 and moving it one to the left ends 5.","Setting the arrow at 4 and moving it one to the left ends  5.","Setting the arrow at 4 and moving it one to the left ends u 5.","Setting the arrow at 4 and moving it one to the left ends up  5.","Setting the arrow at 4 and moving it one to the left ends up a 5. ","Setti ng the arrow at 4 and moving it one to the left ends up at 5."],"orientation_history":[[0],[2.7712692238870185,2.7712692238870185,2.76510231914327,2.76510231914327,2.76510231914327,2.76510231914327,2.76510231914327,2.76510231914327,2.76510231914327,2.792526803190927],[3.563011860477597,3.563011860477597,3.563011860477597,3.563011860477597,3.563011860477597,3.563011860477597,3.563011860477597,3.563011860477597,3.490658503988659]],"response_history":["5"],"rt":44605,"trial_type":"polygon-arrow-question","trial_index":0,"trial_index_global":54,"time_elapsed":543037,"internal_chunk_id":"0-0.12-0"},{"nsides":9,"question":"What is 8 <img src=./images/nonagon_symbol.png style=width:14px;height:14px> 4? Please explain in words how you got your answer.","response_type":"free","response_choices":[],"correct_response":"3","response":"3","explain":true,"explanation":"Putting the arrow at 8 and moving 4 clockwise leaves us at 3, or (8+4)-9=3","explanation_history":["Putting the a rrow at  8 and moving 4 clockwise leaves us at 3. ","Putting the arrow at 8 and moving 4 clockwise leaves us at 3.","Putting the arrow at 8 and moving 4 clockwise leaves us at 3, or (8+4)-9=3"],"orientation_history":[[0]],"response_history":["3"],"rt":82229,"trial_type":"polygon-arrow-question","trial_index":0,"trial_index_global":55,"time_elapsed":625269,"internal_chunk_id":"0-0.12-0"},{"nsides":9,"question":"What is the identity under <img src=./images/nonagon_symbol.png style=width:14px;height:14px>? Please explain in words how you got your answer.","response_type":"free","response_choices":[],"correct_response":"0","response":"0","explain":true,"explanation":"It always gives back the number it is added to- 0+8=8, 0+6=6, 0+3=3. etc","explanation_history":["It is always itself when","It always gives baack the number it is added to","It always gives back the number it is added to. ","It always gives back the number it is added to.","It always gives back the number it is adde d to- 0+ 8=8, 0+6=6, 0+3=3. etc"],"orientation_history":[[0]],"response_history":["0"],"rt":115212,"trial_type":"polygon-arrow-question","trial_index":0,"trial_index_global":56,"time_elapsed":740484,"internal_chunk_id":"0-0.12-0"},{"nsides":9,"question":"What is the inverse of 5 under <img src=./images/nonagon_symbol.png style=width:14px;height:14px>?","response_type":"free","response_choices":[],"correct_response":"4","response":"4","explain":false,"explanation":"","explanation_history":[],"orientation_history":[[0]],"response_history":["4"],"rt":75214,"trial_type":"polygon-arrow-question","trial_index":0,"trial_index_global":57,"time_elapsed":815700,"internal_chunk_id":"0-0.12-0"},{"nsides":9,"question":"What is the inverse of 2 under <img src=./images/nonagon_symbol.png style=width:14px;height:14px>?","response_type":"free","response_choices":[],"correct_response":"7","response":"7","explain":false,"explanation":"","explanation_history":[],"orientation_history":[[0]],"response_history":["7"],"rt":3245,"trial_type":"polygon-arrow-question","trial_index":0,"trial_index_global":58,"time_elapsed":818949,"internal_chunk_id":"0-0.12-0"},{"nsides":9,"question":"What is the inverse of 0 under <img src=./images/nonagon_symbol.png style=width:14px;height:14px>?","response_type":"free","response_choices":[],"correct_response":"0","response":"0","explain":false,"explanation":"","explanation_history":[],"orientation_history":[[0]],"response_history":["0"],"rt":4550,"trial_type":"polygon-arrow-question","trial_index":0,"trial_index_global":59,"time_elapsed":823500,"internal_chunk_id":"0-0.12-0"},{"nsides":9,"question":"What is the inverse of 3 under <img src=./images/nonagon_symbol.png style=width:14px;height:14px>? Please explain in words how you got your answer.","response_type":"free","response_choices":[],"correct_response":"6","response":"6","explain":true,"explanation":"The inverse is what will give you 0, and for 3 that is 6. (3+6)-9 =0","explanation_history":["The inverse is what will give you 0, and for 3 that is 6. (3+6)-9=0"],"orientation_history":[[0]],"response_history":["6"],"rt":66271,"trial_type":"polygon-arrow-question","trial_index":0,"trial_index_global":60,"time_elapsed":889772,"internal_chunk_id":"0-0.12-0"},{"nsides":9,"question":"Is 2 a generator under <img src=./images/nonagon_symbol.png style=width:14px;height:14px>? Please explain in words how you got your answer.","response_type":"multi","response_choices":["Yes","No"],"correct_response":"Yes","response":"Yes","explain":true,"explanation":" 2+2+2+2+2+2+2+2+2-9=0, 2+2+2+2+2-9=1, 2=2, 2+2+2+2+2+2-9=3,2+2=4, 2+2+2+2+2+2+2-9=5, 2+2+2=6, 2+2+2+2+2+2+2+2-9=7, 2+2+2+2=8..... So all the numbers in the system can be generated using 2.","explanation_history":["2=2, 2+2=4, 222=6, 2222=8, 22222=1, 222222,3","2=2, 2+2=4, 222=6, 2222=8, 22222=1, 222222,","2=2, 2+2=4, 222=6, 2222=8, 22222=1, 222222=3,2222222=5, 22222222=7, 2222222220","2=2, 2+2= 222 2222220"," 2222222220"," 222222222=0"," 2+22222222=0"," 2++2222222=0"," 2+++222222=0"," 2++222222=0"," 2+222222=0"," 2+2=22222=0"," 2+2=2=2222=0"," 2+2=2=2+222=0"," 2+2=22+222=0"," 2+2=2+2+222=0"," 2+2+2+2+222=0"," 2+2+2+2+2+22=0"," 2+2+2+2+2+2+2=0"," 2+2+2+2+2+2+2+=0"," 2+2+2+2+2+2+2+2=0"," 2+2+2+2+2+2+2+2+=0"," 2+2+2+2+2+2+2+2+2=0"," 2+2+2+2+2+2+2+2+2-=0"," 2+2+2+2+2+2+2+2+2-9=0, 2+2@"," 2+2+2+2+2+2+2+2+2-9=0, 2+2+2+2+2-9=1, 2=2, 2+@"," 2+2+2+2+2+2+2+2+2-9=0, 2+2+2+2+2-9=1, 2=2, 2+2+2+2+2+2-9=3,2+2=4, 2+2+2+2+2+2+="," 2+2+2+2+2+2+2+2+2-9=0, 2+2+2+2+2-9=1, 2=2, 2+2+2+2+2+2-9=3,2+2=4, 2+2+2+2+2+2++"," 2+2+2+2+2+2+2+2+2-9=0, 2+2+2+2+2-9=1, 2=2, 2+2+2+2+2+2-9=3,2+2=4, 2+2+2+2+2+2+2-9=5, 2+2+2=6, 2+2+2+2+2+2+2+2-9=7, 2+2+2+2=8..... Sp"," 2+2+2+2+2+2+2+2+2-9=0, 2+2+2+2+2-9=1, 2=2, 2+2+2+2+2+2-9=3,2+2=4, 2+2+2+2+2+2+2-9=5, 2+2+2=6, 2+2+2+2+2+2+2+2-9=7, 2+2+2+2=8..... So all the numbers in the system can be generates"," 2+2+2+2+2+2+2+2+2-9=0, 2+2+2+2+2-9=1, 2=2, 2+2+2+2+2+2-9=3,2+2=4, 2+2 +2+2+2+2 +2-9=5, 2+2+2=6, 2+2+2+2+2+2+2+2-9=7, 2+2+2+2=8..... So all the numbers in the system can be generated using 2."],"orientation_history":[[0]],"response_history":["No","Yes"],"rt":485945,"trial_type":"polygon-arrow-question","trial_index":0,"trial_index_global":61,"time_elapsed":1375719,"internal_chunk_id":"0-0.12-0"},{"nsides":9,"question":"Is 3 a generator under <img src=./images/nonagon_symbol.png style=width:14px;height:14px>? Please explain in words how you got your answer.","response_type":"multi","response_choices":["Yes","No"],"correct_response":"No","response":"No","explain":true,"explanation":"Only 3, 6, and 0 can be created just using 3.","explanation_history":["Only 3, 6, and 0 can be created just using 3."],"orientation_history":[[0]],"response_history":["No"],"rt":106762,"trial_type":"polygon-arrow-question","trial_index":0,"trial_index_global":62,"time_elapsed":1482491,"internal_chunk_id":"0-0.12-0"},{"nsides":9,"question":"Is 5 a generator under <img s rc=./i mages/nonagon_symbol.png style=width:14px;height:14px>? Please explain in words how you got your answer.","response_type":"multi","response_choices":["Yes","No"],"correct_response":"Yes","response":"Yes","explain":true,"explanation":"Yes all the numbers in the system can be generated using just 5.","explanation_history":["5=5, 52=1, 53=6,54=2,557","5=5, 52=1, 53=6,54=2,55=7,56=3,57=8,58=4,59=0","Yes all the numbers in the system can be generated using just 5."],"orientation_history":[[0],[3.448638385608584,3.448638385608584,3.448638385608584,3.448638385608584,3.448638385608584,3.448638385608584,3.448638385608584,3.448638385608584,3.490658503988659],[0.6833912454873362,0.6833912454873362,0.6833912454873362,0.6833912454873362,0.6833912454873362,0.6833912454873362,0.6833912454873362,0.6833912454873362,0.6981317007977318],[4.158534587912892,4.158534587912892,4.158534587912892,4.158534587912892,4.158534587912892,4.158534587912892,4.158534587912892,4.1887902047863905],[0.7168036599431736,0.7168036599431736,0.7168036599431736,0.7168036599431736,0.7168036599431736,0.7168036599431736,0.7168036599431736,0.7168036599431736,0.6981317007977318],[4.201900658467914,4.201900658467914,4.201900658467914,4.201900658467914,4.201900658467914,4.201900658467914,4.201900658467914,4.201900658467914,4.201900658467914,4.201900658467914,4.1887902047863905],[1.3918791563168027,1.3918791563168027,1.3918791563168027,1.3918791563168027,1.3918791563168027,1.3918791563168027,1.3918791563168027,1.3962634015954636],[4.8383016060704875,4.8383016060704875,4.8383016060704875,4.8383016060704875,4.8383016060704875,4.8383016060704875,4.8383016060704875,4.886921905584122],[2.0778948311872334,2.0778948311872334,2.0778948311872334,2.0778948311872334,2.0778948311872334,2.0778948311872334,2.0778948311872334,2.0778948311872334,2.0943951023931953],[5.626110371467933,5.626110371467933,5.626110371467933,5.626110371467933,5.626110371467933,5.626110371467933,5.585053606381854],[3.5354612643261545,3.5354612643261545,3.5354612643261545,3.5354612643261545,3.5354612643261545,3.5354612643261545,3.490658503988659],[0.6372381426656168,0.6372381426656168,0.6372381426656168,0.6435011087932844,0.6435011087932844,0.6435011087932844,0.6435011087932844,0.6435011087932844,0.6981317007977318],[3.4392928633010937,3.4392928633010937,3.4392928633010937,3.4392928633010937,3.4392928633010937,3.4392928633010937,3.4392928633010937,3.4392928633010937,3.4392928633010937,3.490658503988659],[0.6797325812975925,0.6797325812975925,0.6797325812975925,0.6797325812975925,0.6797325812975925,0.6797325812975925,0.6797325812975925,0.6797325812975925,0.6981317007977318],[4.099851423774386,4.099851423774386,4.099851423774386,4.099851423774386,4.099851423774386,4.099851423774386,4.099851423774386,4.099851423774386,4.1887902047863905],[1.3205957790172558,1.3205957790172558,1.3205957790172558,1.3205957790172558,1.3205957790172558,1.3205957790172558,1.3205957790172558,1.3205957790172558,1.3205957790172558,1.3962634015954636],[4.799127319060675,4.799127319060675,4.799127319060675,4.799127319060675,4.799127319060675,4.799127319060675,4.799127319060675,4.799127319060675,4.799127319060675,4.799127319060675,4.886921905584122],[2.001745314195273,2.001745314195273,2.001745314195273,2.001745314195273,2.001745314195273,2.001745314195273,2.001745314195273,2.001745314195273,2.001745314195273,2.0943951023931953],[5.676947642992554,5.676947642992554,5.676947642992554,5.676947642992554,5.676947642992554,5.676947642992554,5.676947642992554,5.676947642992554,5.676947642992554,5.585053606381854],[2.7719083647944918,2.7719083647944918,2.7719083647944918,2.7719083647944918,2.7719083647944918,2.7719083647944918,2.7719083647944918,2.7719083647944918,2.7719083647944918,2.792526803190927],[0.06731387579270498,0.06731387579270498,0.06731387579270498,0.06731387579270498,0.06731387579270498,0.06731387579270498,0.06731387579270498,0.06731387579270498,0]],"response_history":["Yes"],"rt":441886,"trial_type":"polygon-arrow -questio n","trial_index":0,"trial_index_global":63,"time_elapsed":1924381,"internal_chunk_id":"0-0.12-0"},{"nsides":9,"question":"Is 6 a generator under <img src=./images/nonagon_symbol.png style=width:14px;height:14px>? Please explain in words how you got your answer.","response_type":"multi","response_choices":["Yes","No"],"correct_response":"No","response":"No","explain":true,"explanation":"Only 0, 3, and 6 can be generated using 6, those answers always come up in that order, 6=6, 6+6-9=3, 6+6+6-9=0, and then it just repeats continually.","explanation_history":["6,3,0,","Only 0, 3, and 6 can be generated using 6.","Only 0, 3, and 6 can be generated using 6, those answers always come up in that order, 6=6 ","Only 0, 3, and 6 can be generated using 6, those answers always come up in that order, 6=6, 6+6-9=3, 6+6+7","Only 0, 3, and 6 can be generated using 6, those answers always come up in that order, 6=6, 6+6-9=3, 6+6+6-9=0, and then it just repeats continually."],"orientation_history":[[0],[4.235349314907639,4.235349314907639,4.235349314907639,4.235349314907639,4.235349314907639,4.235349314907639,4.235349314907639,4.1887902047863905],[2.0632820926668214,2.0632820926668214,2.0632820926668214,2.0632820926668214,2.0632820926668214,2.0632820926668214,2.0632820926668214,2.0632820926668214,2.0632820926668214,2.0943951023931953],[0,0,0,0,0,0,0,0,0],[4.19193053093354,4.19193053093354,4.19193053093354,4.19193053093354,4.19193053093354,4.19193053093354,4.19193053093354,4.1887902047863905]],"response_history":["No"],"rt":185979,"trial_type":"polygon-arrow-question","trial_index":0,"trial_index_global":64,"time_elapsed":2110371,"internal_chunk_id":"0-0.12-0"},{"nsides":"n","instructions":"Now we'd like to ask you some questions about <img src=./images/ngon_symbol.png style=width:14px;height:14px>, where n could be any postive counting number. For example, n could be 3, and the polygon a triangle, or n could be any other counting number you can think of,  in whic h case the corresponding polygon would have n sides. Just as before, you can use either the polygon or arithmetic methods. If you need to write the operation, you can use (n), and your answers can include n to stand in for the arbitrary value if necessary. (You can use the polygon at the right to think, but it doesn't necessarily correspond to the real polygon, which is why we've left most of it dashed.)","orientation_history":[0],"rt":29444,"trial_type":"polygon-arrow-instructions","trial_index":0,"trial_index_global":65,"time_elapsed":2139819,"internal_chunk_id":"0-0"},{"nsides":"n","question":"What is the formula for the inverse of 1 under <img src=./images/ngon_symbol.png style=width:14px;height:14px>?","response_type":"free","response_choices":[],"correct_response":"n-1","response":"1+2=0","explain":false,"explanation":"","explanation_history":[],"orientation_history":[[0]],"response_history":["1+2=0"],"rt":35718,"trial_type":"polygon-arrow-question","trial_index":0,"trial_index_global":66,"time_elapsed":2175539,"internal_chunk_id":"0-0.14-0"},{"nsides":"n","question":"What is the formula for the inverse of an element x under <img src=./images/ngon_symbol.png style=width:14px;height:14px>? Please explain in words how you got your answer.","response_type":"free","response_choices":[],"correct_response":"n-x","response":"Inverse + x=n ","explain":true,"explanation":"The inverse is the number when added to x gives (n) as a result.","explanation_history":["The inverse is the number when added to x gives the ","The inverse is the number when added to x gives the","The inverse is the number when added to x gives th","The inverse is the number when added to x gives t","The inverse is the number when added to x gives (n) as a result."],"orientation_history":[[0],[2.608290470860419,2.608290470860419,2.608290470860419,2.608290470860419,2.608290470860419,2.608290470860419,2.608290470860419,2.608290470860419,2.608290470860419],[0.03332099587824722,0.03332099587824722,0.03332099587824722,0.03332099587824722,0.03332099587824722,0.03332099587824722,0.03332099587824722,0.03332099587824722,0.03332099587824722,0.03332099587824722,0.03332099587824722],[1.287895473266811,1.287895473266811,1.287895473266811,1.287895473266811,1.287895473266811,1.287895473266811,1.287895473266811,1.287895473266811,1.287895473266811],[2.008808527274025,2.008808527274025,2.008808527274025,2.008808527274025,2.008808527274025,2.008808527274025,2.008808527274025,2.008808527274025,2.008808527274025],[2.8461518164460733,2.8461518164460733,2.8461518164460733,2.8461518164460733,2.8461518164460733,2.8461518164460733],[3.9009097756964892,3.9009097756964892,3.9009097756964892,3.9009097756964892,3.9009097756964892,3.9009097756964892,3.9009097756964892,3.9009097756964892,3.9009097756964892],[4.6707464012861015,4.6707464012861015,4.6707464012861015,4.6707464012861015,4.6707464012861015,4.6707464012861015,4.6707464012861015,4.6707464012861015],[5.724585991836024,5.724585991836024,5.724585991836024,5.724585991836024,5.724585991836024,5.724585991836024,5.724585991836024,5.724585991836024],[2.1434627095007346,2.1434627095007346,2.1434627095007346,2.1434627095007346,2.1434627095007346,2.1434627095007346,2.1434627095007346],[1.8847345401314377,1.8847345401314377,1.8847345401314377,1.8847345401314377,1.8847345401314377,1.8847345401314377,1.8847345401314377,1.8847345401314377,1.8847345401314377],[2.7985687131690895,2.7985687131690895,2.7985687131690895,2.7985687131690895,2.7985687131690895,2.7985687131690895,2.7985687131690895,2.7985687131690895],[3.348466602569536,3.348466602569536,3.348466602569536,3.348466602569536,3.348466602569536,3.348466602569536,3.348466602569536,3.348466602569536,3.348466602569536,3.348466602569536],[4.068887871591405,4.068887871591405,4.068887871591405,4.068887871591405,4.068887871591405,4.068887871591405,4.068887871591405],[4.774807790380647,4.799666693334151,4.799666693334151,4.799666693334151,4.799666693334151,4.799666693334151,4.799666693334151,4.799666693334151,4.799666693334151],[5.332638466367511,5.332638466367511,5.332638466367511,5.332638466367511,5.332638466367511,5.332638466367511,5.332638466367511,5.332638466367511,5.332638466367511,5.332638466367511,5.332638466367511],[0.6435011087932844,0.6435011087932844,0.6435011087932844,0.6435011087932844,0.6435011087932844,0.6435011087932844,0.6435011087932844,0.6435011087932844,0.6435011087932844,0.6435011087932844]],"response_history":["x=","x","Inverse + x=n "],"rt":421071,"trial_type":"polygon-arrow-question","trial_index":0,"trial_index_global":67,"time_elapsed":2596612,"internal_chunk_id":"0-0.14-0"},{"nsides":"n","question":"Is there a pattern to which elements are generators? How can you know if an element x is a generator under <img src=./images/ngon_symbol.png style=width:14px;height:14px> without seeing whether it can make all the elements?.","response_type":"free","response_choices":[],"correct_response":"","response":"It n eeds to  be a prime number within the set? ","explain":false,"explanation":"","explanation_history":[],"orientation_history":[[0]],"response_history":["It needs to be a prime number within the set? so no","It needs to be a prime number within the set? so n","It needs to be a prime number within the set? so ","It needs to be a prime number within the set? so","It needs to be a prime number within the set? s","It needs to be a prime number within the set? "],"rt":174954,"trial_type":"polygon-arrow-question","trial_index":0,"trial_index_global":68,"time_elapsed":2771580,"internal_chunk_id":"0-0.14-0"},{"nsides":"n","question":"True or false: If x is an odd number, it must be a generator under <img src=./images/ngon_symbol.png style=width:14px;height:14px>.","response_type":"multi","response_choices":["True","False"],"correct_response":"False","response":"False","explain":false,"explanation":"","explanation_history":[],"orientation_history":[[0]],"response_history":["False"],"rt":18178,"trial_type":"polygon-arrow-question","trial_index":0,"trial_index_global":69,"time_elapsed":2789770,"internal_chunk_id":"0-0.14-0"},{"nsides":"n","question":"True or false: If x is an even number, it must not be a generator under <img src=./images/ngon_symbol.png style=width:14px;height:14px>.","response_type":"multi","response_choices":["True","False"],"correct_response":"False","response":"True","explain":false,"explanation":"","explanation_history":[],"orientation_history":[[0]],"response_history":["True"],"rt":55222,"trial_type":"polygon-arrow-question","trial_index":0,"trial_index_global":70,"time_elapsed":2844993,"internal_chunk_id":"0-0.14-0"},{"nsides":"n","question":"True or false: If x is not a generator under <img src=./images/ngon_symbol.png style=width:14px;height:14px>, x must be a divisor of n, that is, x must divide n evenly, with no remainder.","response_type":"multi","response_choices":["True","False"],"correct_response":"False","response":" False","explain":false,"explanation":"","explanation_history":[],"orientation_history":[[0]],"response_history":["False"],"rt":13021,"trial_type":"polygon-arrow-question","trial_index":0,"trial_index_global":71,"time_elapsed":2858025,"internal_chunk_id":"0-0.14-0"},{"nsides":"n","question":"True or false: If x is not a generator under <img src=./images/ngon_symbol.png style=width:14px;height:14px>, x must be a multiple of a divisor of n. Please explain in words how you got your answer.","response_type":"multi","response_choices":["True","False"],"correct_response":"True","response":"True","explain":true,"explanation":"That would make it a non prime number, and cause it to skip many numbers in the set.","explanation_history":["That would make it a non prime number, and cause it to sh","That would make it a non prime number, and cause it to skip many numbers in the set."],"orientation_history":[[0]],"response_history":["True"],"rt":66432,"trial_type":"polygon-arrow-question","trial_index":0,"trial_index_global":72,"time_elapsed":2924460,"internal_chunk_id":"0-0.14-0"},{"nsides":"n","question":"If an element x is a generator under <img src=./images/ngon_symbol.png style=width:14px;height:14px>, is its inverse a generator under <img src=./images/ngon_symbol.png style=width:14px;height:14px> always, sometimes, or never?","response_type":"multi","response_choices":["Always","Sometimes","Never"],"correct_response":"Always","response":"Always","explain":false,"explanation":"","explanation_history":[],"orientation_history":[[0]],"response_history":["Always"],"rt":26810,"trial_type":"polygon-arrow-question","trial_index":0,"trial_index_global":73,"time_elapsed":2951283,"internal_chunk_id":"0-0.14-0"},{"nsides":"n","question":"if an element x is a generator under <img src=./images/ngon_symbol.png style=width:14px;height:14px>, is x <img src=./images/ngon_symbol.png style=width:14px;height:14px> x a generator under <img src=./imag es/ngon_ symbol.png style=width:14px;height:14px> always, sometimes, or never? Please explain in words how you got your answer.","response_type":"multi","response_choices":["Always","Sometimes","Never"],"correct_response":"Sometimes","response":"Never","explain":true,"explanation":"x(n)x is no longer a prime and is now not a generator, but a product of generator anything that it generates can be broken back down to simply x.","explanation_history":["x(n)x is no longer a prime and is now not a b","x(n)x is no longer a prime and is now not a generator, but a product of generator any ","x(n)x is no longer a prime and is now not a generator, but a product of generator anything that it generates can be broken bacl","x(n)x is no longer a prime and is now not a generator, but a product of generator anything that it generates can be broken back down to simply x."],"orientation_history":[[0]],"response_history":["Never"],"rt":167751,"trial_type":"polygon-arrow-question","trial_index":0,"trial_index_global":74,"time_elapsed":3119043,"internal_chunk_id":"0-0.14-0"},{"nsides":"n","question":"If an element x is not a generator under <img src=./images/ngon_symbol.png style=width:14px;height:14px>, is x <img src=./images/ngon_symbol.png style=width:14px;height:14px> x a generator under <img src=./images/ngon_symbol.png style=width:14px;height:14px> always, sometimes, or never?","response_type":"multi","response_choices":["Always","Sometimes","Never"],"correct_response":"Never","response":"Never","explain":false,"explanation":"","explanation_history":[],"orientation_history":[[0]],"response_history":["Never"],"rt":10717,"trial_type":"polygon-arrow-question","trial_index":0,"trial_index_global":75,"time_elapsed":3129770,"internal_chunk_id":"0-0.14-0"},{"instructions":"Now we'd like you to do a few of the questions and tell us how much you're using the arithmetic and polygon methods to solve them. We'll give you a demonstration of the response scree n first. <br /><br />Press continue when you're ready to begin.","rt":8262,"trial_type":"instructions","trial_index":0,"trial_index_global":76,"time_elapsed":3138034,"internal_chunk_id":"0-0.15-0"},{"nsides":9,"added_prompt":"<i>This is a demo response screen. You can respond independently to both questions, so it's okay to say you used both methods.</i><br /><br />","polygon_response":"1","modular_response":"3","rt":16213,"trial_type":"polygon-arrow-which-representation","trial_index":0,"trial_index_global":77,"time_elapsed":3154250,"internal_chunk_id":"0-0.15-0"},{"question":"<i>This is a demo response screen.</i><br /><br />Please describe in as much detail as possible how you used the arithmetic method, polygon method, or both for the problem.","response_type":"free","response_choices":[],"correct_response":"","response":"My brain hurts, abstract algebra= pain to the 3rd power.","explain":false,"explanation":"","explanation_history":[],"response_history":["My brain hurts, abstrac t algebr a= pain th","My brain hurts, abstract algebra= pain to the 3rd power."],"rt":1051112,"trial_type":"question","trial_index":0,"trial_index_global":78,"time_elapsed":4205366,"internal_chunk_id":"0-0.15-0"},{"instructions":"Great! Now we have a few questions for you to do (some of which you may have seen earlier), and after each question you will tell us how much you used the polygon and arithmetic methods.<br /><br />Press continue when you're ready to begin.","rt":5407,"trial_type":"instructions","trial_index":0,"trial_index_global":79,"time_elapsed":4210784,"internal_chunk_id":"0-0.15-0"},{"nsides":9,"question":"Please answer the following question:<br /><br />What is the inverse of 4 under <img src=./images/nonagon_symbol.png style=width:14px;height:14px>?","response_type":"free","response_choices":[],"correct_response":"5","response":"5","explain":false,"explanation":"","explanation_history":[],"orientation_history":[[0],[2.7367008673047097,2.7367008673047097,2.7367008673047097,2.7319465449649556,2.7319465449649556,2.7319465449649556,2.7319465449649556,2.7319465449649556,2.792526803190927],[3.5654602641195723,3.5654602641195723,3.545011686889605,3.545011686889605,3.5494606215637035,3.5494606215637035,3.5494606215637035,3.5494606215637035,3.490658503988659],[4.253245845422452,4.253245845422452,4.253245845422452,4.253245845422452,4.253245845422452,4.253245845422452,4.253245845422452,4.253245845422452,4.1887902047863905],[4.804085136644552,4.804085136644552,4.81547058890739,4.81547058890739,4.81547058890739,4.886921905584122],[5.639684198386302,5.639684198386302,5.639684198386302,5.639684198386302,5.639684198386302,5.639684198386302,5.639684198386302,5.585053606381854],[6.193681488827976,6.193681488827976,6.206413415909808,6.219170329345242,6.219170329345242,6.219170329345242,6.219170329345242,6.283185307179586]],"response_history":["5"],"rt":20906,"trial_type":"polygon-arrow-question","trial_index":0,"trial_index_global":80,"time_elapsed":4231696,"internal_chunk_id":"0-0.15-0"},{"nsides":9,"question":"Please answer the following question:<br /><br />What is the inverse of 4 under <img src=./images/nonagon_symbol.png style=width:14px;height:14px>?","added_prompt":"","polygon_response":"3","modular_response":"2","rt":7415,"trial_type":"polygon-arrow-which-representation","trial_index":0,"trial_index_global":81,"time_elapsed":4239114,"internal_chunk_id":"0-0.15-0"},{"question":"Please describe in as much detail as possible how you used the arithmetic method, polygon method, or both for the problem.","response_type":"free","response_choices":[],"correct_response":"","response":"It was simple to use it as a visual aid for the arithmetic, and so I did, I did the arithmetic, then double checked with the polygon so I made no stupid mistake.","explain":false,"explanation":"","explanation_history":[],"response_history":["I t","I ","It was simple to use it as a viu","It was simple to use it as a vi","It was simple to use it  as a vis ual aid for the arithmetic, and so I did, I did the arithmetic, then double checked with the polyhgon so I made no stupid mistake.","It was simple to use it as a visual aid for the arithmetic, and so I did, I did the arithmetic, then double checked with the polygon so I made no stupid mistake."],"rt":75202,"trial_type":"question","trial_index":0,"trial_index_global":82,"time_elapsed":4314321,"internal_chunk_id":"0-0.15-0"},{"nsides":9,"question":"Please answer the following question:<br /><br />What is the inverse of 0 under <img src=./images/nonagon_symbol.png style=width:14px;height:14px>?","response_type":"free","response_choices":[],"correct_response":"0","response":"0","explain":false,"explanation":"","explanation_history":[],"orientation_history":[[0]],"response_history":["0"],"rt":16691,"trial_type":"polygon-arrow-question","trial_index":0,"trial_index_global":83,"time_elapsed":4331024,"internal_chunk_id":"0-0.15-0"},{"nsides":9,"question":"Please answer the f ollowing  question:<br /><br />What is the inverse of 0 under <img src=./images/nonagon_symbol.png style=width:14px;height:14px>?","added_prompt":"","polygon_response":"0","modular_response":"4","rt":4311,"trial_type":"polygon-arrow-which-representation","trial_index":0,"trial_index_global":84,"time_elapsed":4335338,"internal_chunk_id":"0-0.15-0"},{"question":"Please describe in as much detail as possible how you used the arithmetic method, polygon method, or both for the problem.","response_type":"free","response_choices":[],"correct_response":"","response":"no need for the [polygon just needed to keep it at 0. So only arithmentic","explain":false,"explanation":"","explanation_history":[],"response_history":["no need for the [polygon just needed to keepo","no need for the [polygon just needed to keep","no need for the [polygon just needed to keep it at 0. So only arithmentic"],"rt":39570,"trial_type":"question","trial_index":0,"trial_index_global":85,"time_elapsed":4374913,"internal_chunk_id":"0-0.15-0"},{"nsides":9,"question":"Please answer the following question:<br /><br />Is 4 a generator under <img src=./images/nonagon_symbol.png style=width:14px;height:14px>?","response_type":"Multi","response_choices":["Yes","No"],"correct_response":"Yes","response":"Yes","explain":false,"explanation":"","explanation_history":[],"orientation_history":[[0],[2.7908647053415896,2.7908647053415896,2.7908647053415896,2.7908647053415896,2.7908647053415896,2.7908647053415896,2.7908647053415896,2.792526803190927],[5.529026977212406,5.529026977212406,5.529026977212406,5.529026977212406,5.529026977212406,5.529026977212406,5.529026977212406,5.529026977212406,5.585053606381854],[1.4016951007935194,1.4016951007935194,1.4016951007935194,1.4016951007935194,1.4016951007935194,1.4016951007935194,1.4016951007935194,1.4016951007935194,1.3962634015954636],[4.228941978817491,4.228941978817491,4.228941978817491,4.228941978817491,4.228941978817491,4.228941978817491,4.228941978817491,4.228941978817491,4.228941978817491,4.1887902047863905],[6.250230209565288,6.250230209565288,6.250230209565288,6.250230209565288,6.250230209565288,6.250230209565288,6.250230209565288,6.283185307179586],[2.697173443688694,2.697173443688694,2.697173443688694,2.697173443688694,2.697173443688694,2.697173443688694,2.697173443688694,2.697173443688694,2.697173443688694,2.697173443688694,2.792526803190927],[5.573400287018968,5.573400287018968,5.573400287018968,5.573400287018968,5.573400287018968,5.573400287018968,5.573400287018968,5.585053606381854],[0.0821675223617,0.0821675223617,0.0821675223617,0.0821675223617,0.0821675223617,0.0821675223617,0.0821675223617,0],[0.5909180471823426,0.5909180471823426,0.5995962869690177,0.5995962869690177,0.5995962869690177,0.5995962869690177,0.5995962869690177,0.6981317007977318],[1.481038152604946,1.481038152604946,1.481038152604946,1.481038152604946,1.481038152604946,1.481038152604946,1.481038152604946,1.481038152604946,1.3962634015954636],[1.9333405640594041,1.9333405640594041,1.9333405640594041,1.9333405640594041,1.9333405640594041,1.9333405640594041,1.9333405640594041,2.0943951023931953],[4.954460674955809,4.954460674955809,4.954460674955809,4.954460674955809,4.954460674955809,4.954460674955809,4.954460674955809,4.886921905584122],[1.306307944245664,1.306307944245664,1.306307944245664,1.306307944245664,1.306307944245664,1.306307944245664,1.306307944245664,1.306307944245664,1.3962634015954636],[4.231983163801646,4.231983163801646,4.231983163801646,4.231983163801646,4.231983163801646,4.231983163801646,4.231983163801646,4.231983163801646,4.1887902047863905],[0.6475910655379812,0.6475910655379812,0.6475910655379812,0.6475910655379812,0.6475910655379812,0.6475910655379812,0.6475910655379812,0.6475910655379812,0.6981317007977318],[3.5280989587037133,3.5280989587037133,3.5280989587037133,3.5280989587037133,3.5380339368082345,3.5380339368082345,3.5380339368082345,3.5380339368082345,3.490658503988659],[0.011363147264290774,0.011363147264290774,0.011363147264290774,0.011363147264290774,0.011363147264290774,0.011363147264290774,0.011363147264290774,0.011363147264290774,0],[2.826834992198484,2.826834992198484,2.826834992198484,2.826834992198484,2.826834992198484,2.826834992198484,2.826834992198484,2.826834992198484,2.8373841592505533,2.792526803190927],[5.6172160698004765,5.6172160698004765,5.6172160698004765,5.626110371467933,5.626110371467933,5.626110371467933,5.626110371467933,5.626110371467933,5.585053606381854],[2.025515601615866,2.025515601615866,2.025515601615866,2.025515601615866,2.025515601615866,2.025515601615866,2.025515601615866,2.025515601615866,2.0943951023931953],[4.957367643511554,4.957367643511554,4.957367643511554,4.957367643511554,4.957367643511554,4.957367643511554,4.957367643511554,4.886921905584122]],"response_history":["Yes"],"rt":83732,"trial_type":"polygon-arrow-question","trial_index":0,"trial_index_global":86,"time_elapsed":4458656,"internal_chunk_id":"0-0.15-0"},{"nsides":9,"question":"Pleas e answer the following question:<br /><br />Is 4 a generator under <img src=./images/nonagon_symbol.png style=width:14px;height:14px>?","added_prompt":"","polygon_response":"4","modular_response":"0","rt":5332,"trial_type":"polygon-arrow-which-representation","trial_index":0,"trial_index_global":87,"time_elapsed":4463992,"internal_chunk_id":"0-0.15-0"},{"question":"Please describe in as much detail as possible how you used the arithmetic method, polygon method, or both for the problem.","response_type":"free","response_choices":[],"correct_response":"","response":"I added 4 all around the polygon until I had come up with all the nubers in the set.","explain":false,"explanation":"","explanation_history":[],"response_history":["I did ","I did","I di","I d","I added 4 all around the polygon until I had come up with all the nubers in the set."],"rt":37237,"trial_type":"question","trial_index":0,"trial_index_global":88,"time_elapsed":4501233,"internal_chunk_id":"0-0.15-0"},{"nsides":"n","question":"Please answer the following question:<br /><br />True or false: If x divides n, it must not be a generator under <img src=./images/ngon_symbol.png style=width:14px;height:14px>.","response_type":"multi","response_choices":["True","False"],"correct_response":"True","response":"True","explain":false,"explanation":"","explanation_history":[],"orientation_history":[[0]],"response_history":["True"],"rt":36978,"trial_type":"polygon-arrow-question","trial_index":0,"trial_index_global":89,"time_elapsed":4538216,"internal_chunk_id":"0-0.15-0"},{"nsides":"n","question":"Please answer the following question:<br /><br />True or false: If x divides n, it must not be a generator under <img src=./images/ngon_symbol.png style=width:14px;height:14px>.","added_prompt":"","polygon_response":"0","modular_response":"2","rt":5117,"trial_type":"polygon-arrow-which-representation","trial_index":0,"trial_index_global":90,"time_elapsed":4543336,"internal_chunk_id":"0-0.15- 0"},{"question":"Please describe in as much detail as possible how you used the arithmetic method, polygon method, or both for the problem.","response_type":"free","response_choices":[],"correct_response":"","response":"Generator needs to be a prime that n is not divisible by, and if x divides n then that is not the case. So I did not use the polygon at all in giving this likely grossly wrong answer.","explain":false,"explanation":"","explanation_history":[],"response_history":["Generator needs to be a prime, and if x divides n","Generator needs to be a prime and if x divides n","Generator needs to be a prime  and if x divides n","Generator needs to be a prime t and if x divides n","Generator needs to be a prime tha and if x divides n","Generator needs to be a prime that and if x divides n","Generator needs to be a prime that  and if x divides n","Generator needs to be a prime that n and if x divides n","Generator needs to be a prime that n  and if x divides n","Generator ne eds to b e a prime that n i and if x divides n","Generator needs to be a prime that n is and if x divides n","Generator needs to be a prime that n is  and if x divides n","Generator needs to be a prime that n is n and if x divides n","Generator needs to be a prime that n is no and if x divides n","Generator needs to be a prime that n is not and if x divides n","Generator needs to be a prime that n is not  and if x divides n","Generator needs to be a prime that n is not d and if x divides n","Generator needs to be a prime that n is not di and if x divides n","Generator needs to be a prime that n is not div and if x divides n","Generator needs to be a prime that n is not divi and if x divides n","Generator needs to be a prime that n is not divis and if x divides n","Generator needs to be a prime that n is not divisi and if x divides n","Generator needs to be a prime that n is not divisib and if x divides n","Generator needs to be a prime that n is not divisibl and if x divides n","Gene rator ne eds to be a prime that n is not divisible  and if x divides n","Generator needs to be a prime that n is not divisible b and if x divides n","Generator needs to be a prime that n is not divisible bu and if x divides n","Generator needs to be a prime that n is not divisible buy and if x divides n","Generator needs to be a prime that n is not divisible bu and if x divides n","Generator needs to be a prime that n is not divisible b and if x divides n","Generator needs to be a prime that n is not divisible by and if x divides n","Generator needs to be a prime that n is not divisible by, and if x divides n then that is not the case. So I did not use rthe","Generator needs to be a prime that n is not divisible by, and if x divides n then that is not the case. So I did not use rth","Generator needs to be a prime that n is not divisible by, and if x divides n then that is not the case. So I did not use rt","Generator needs to be a prime that n is not divisible by, and if x divides n  then tha t is not the case. So I did not use r","Generator needs to be a prime that n is not divisible by, and if x divides n then that is not the case. So I did not use the polygon at all in giving this likely grossly wrong answer."],"rt":122931,"trial_type":"question","trial_index":0,"trial_index_global":91,"time_elapsed":4666273,"internal_chunk_id":"0-0.15-0"},{"instructions":"We would like to ask you some questions about your background. Please press Continue to continue.","rt":2478,"trial_type":"instructions","trial_index":0,"trial_index_global":92,"time_elapsed":4668759,"internal_chunk_id":"0-0.16-0"},{"question":"What is your age?","response_type":"free","response_choices":[],"correct_response":"","response":"44","explain":false,"explanation":"","explanation_history":[],"response_history":["44"],"rt":2758,"trial_type":"question","trial_index":0,"trial_index_global":93,"time_elapsed":4671519,"internal_chunk_id":"0-0.16-0"},{"question":"What is your level of education?","response_type":"multi","response_choices":["Did not graduate high school","High school diploma","Some college, no degree","Associates Degree","Bachelors Degree","Some graduate school, no degree","Masters Degree","Doctorate, M.D., etc."],"correct_response":"","response":"High school diploma","explain":false,"explanation":"","explanation_history":[],"response_history":["High school diploma"],"rt":2822,"trial_type":"question","trial_index":0,"trial_index_global":94,"time_elapsed":4674343,"internal_chunk_id":"0-0.16-0"},{"question":"What is the most advanced math class you've completed? If you have multiple classes and you're not sure which one is most advanced, please list them.","response_type":"free","response_choices":[],"correct_response":"","response":"The most basic of algebra, barely, and 30 years ago. ","explain":false,"explanation":"","explanation_history":[],"response_history":["The most basic of algebra, barely, and 30 years ago. h","The most basic of algebra, barely, and 30 ye ars ago.  "],"rt":36809,"trial_type":"question","trial_index":0,"trial_index_global":95,"time_elapsed":4711154,"internal_chunk_id":"0-0.16-0"},{"question":"How familiar are you with the concept of modular arithmetic?","response_type":"multi","response_choices":["1 - never heard of it","2 - heard of it but didn't know what it was","3 - seen it used or explained","4 - used it but not often or recently","5 - used it, remember and understand it"],"correct_response":"1","response":"1 - never heard of it","explain":false,"explanation":"","explanation_history":[],"response_history":["1 - never heard of it"],"rt":12974,"trial_type":"question","trial_index":0,"trial_index_global":96,"time_elapsed":4724136,"internal_chunk_id":"0-0.16-0"},{"question":"How familiar are you with the concept of a mathematical group?","response_type":"multi","response_choices":["1 - never heard of it","2 - heard of it but didn't know what it was","3 - seen it used or explained","4 - used it but not often or recentl y","5 -  used it, remember and understand it"],"correct_response":"1","response":"1 - never heard of it","explain":false,"explanation":"","explanation_history":[],"response_history":["1 - never heard of it"],"rt":3717,"trial_type":"question","trial_index":0,"trial_index_global":97,"time_elapsed":4727856,"internal_chunk_id":"0-0.16-0"},{"question":"Do you feel you learned something from this HIT?","response_type":"multi","response_choices":["1 - not at all","2 - somewhat","3 - definitely"],"correct_response":"1","response":"2 - somewhat","explain":false,"explanation":"","explanation_history":[],"response_history":["2 - somewhat"],"rt":4230,"trial_type":"question","trial_index":0,"trial_index_global":98,"time_elapsed":4732087,"internal_chunk_id":"0-0.16-0"},{"question":"Do you feel you understood the concepts in this HIT?","response_type":"multi","response_choices":["1 - not at all","2 - somewhat","3 - definitely"],"correct_response":"1","response":"2 - somewhat","explain":false,"explanation":"","explanation_history":[],"response_history":["2 - somewhat"],"rt":4903,"trial_type":"question","trial_index":0,"trial_index_global":99,"time_elapsed":4736991,"internal_chunk_id":"0-0.16-0"},{"question":"Did you enjoy this HIT?","response_type":"multi","response_choices":["1 - not at all","2 - somewhat","3 - definitely"],"correct_response":"1","response":"1 - not at all","explain":false,"explanation":"","explanation_history":[],"response_history":["2 - somewhat","1 - not at all"],"rt":5767,"trial_type":"question","trial_index":0,"trial_index_global":100,"time_elapsed":4742760,"internal_chunk_id":"0-0.16-0"},{"question":"What is your gender?","response_type":"multi","response_choices":["Female","Male","Other"],"correct_response":"","response":"Male","explain":false,"explanation":"","explanation_history":[],"response_history":["Male"],"rt":2558,"trial_type":"question","trial_index":0,"trial_index_global":101,"time_elapsed":4745319,"internal_chunk_id":"0-0.16-0"},{"question":"What is /are your native language(s)? (The languages spoken in your household when you were a child.)","response_type":"free","response_choices":[],"correct_response":"","response":"English","explain":false,"explanation":"","explanation_history":[],"response_history":["English and ASL","English ","English"],"rt":16344,"trial_type":"question","trial_index":0,"trial_index_global":102,"time_elapsed":4761664,"internal_chunk_id":"0-0.16-0"},{"question":"Did you use pen and paper at any point on this HIT?","response_type":"free","response_choices":[],"correct_response":"","response":"No, I used these typing boxes kind of like scratch pads a couple times though.","explain":false,"explanation":"","explanation_history":[],"response_history":["No, I used th","No, I used these typing boxes kind of like scratch pads a couple times though."],"rt":45296,"trial_type":"question","trial_index":0,"trial_index_global":103,"time_elapsed":4806961,"internal_chunk_id":"0-0.16-0"},{"question":"Do y ou have  any comments on this HIT?","response_type":"free","response_choices":[],"correct_response":"","response":"The hit was interesting, but a struggle.","explain":false,"explanation":"","explanation_history":[],"response_history":["I am","I a","I feel really dumb. H","I feel","I fee","I fe","I f","I ","I","The hit was interesting, but I struggle with anything over simple math, which su","The hit was interesting, but I struggle with anything over simple math, which s","The hit was interesting, but I struggle with anything over simple math, which is too bad because simple math has always come easily to me. b","The hit was interesting, but I struggle with anything over simple math, which is too bad because simple math has always come easily to me. But algebra and aboc","The hit was interesting, but I struggle with anything over simple math, which is too bad because simple math has always come easily to me. But algebra and above are like a brisck wa","The hit was interesting, but a s truggle. "],"rt":106388,"trial_type":"question","trial_index":0,"trial_index_global":104,"time_elapsed":4913351,"internal_chunk_id":"0-0.16-0"}]