[{"nsides":6,"instructions":"Let's define a new operation <img src=./images/hexagon_symbol.png style=width:14px;height:14px>. This operation will give us a way of combining two of the numbers 0, 1, 2, 3, 4, 5 to get another one of them back. To perform <img src=./images/hexagon_symbol.png style=width:14px;height:14px>, you can either use a method based on the hexagon at right, or a method based on arithmetic.<br /><b>Hexagon method:</b> you can use the interactive diagram on the right, or perform the operation in your mind. Point the arrow at the first number on the hexagon by clicking, then click (or click and drag) to move the arrow the second number of points clockwise around the hexagon. The number the arrow arrives at is your result. (The operation is called <img src=./images/hexagon_symbol.png style=width:14px;height:14px> because it uses the hexagon, which has 6 sides.) <br ><b>Arithmetic method:</b> you start with the first number, and then add  the sec ond one to it. If the sum is smaller than 6, that's your result. If the sum is 6 or bigger, you subtract 6 to get your result. <br /><br />For example, 3 <img src=./images/hexagon_symbol.png style=width:14px;height:14px> 5 = 2, because 5 steps clockwise from 3 on the hexagon brings us to 2. Equivalently, 3 + 5 = 8, and 8 is bigger than 6, so we subtract 6, and 8 - 6 = 2. So 3 <img src=./images/hexagon_symbol.png style=width:14px;height:14px> 5 = 2.<br /><br />Similarly, 1 <img src=./images/hexagon_symbol.png style=width:14px;height:14px> 4 = 5, because 1 + 4 = 5, and 5 is less than 6 so we leave it alone. Equivalently, 4 steps clockwise from 1 on the hexagon brings us to 5. <br /><br />Click Continue when you're ready to move on.","orientation_history":[0],"rt":109191,"trial_type":"polygon-arrow-instructions","trial_index":0,"trial_index_global":1,"time_elapsed":115362,"internal_chunk_id":"0-0"},{"nsides":6,"instructions":"Do you see how the diffe rent way s of performing <img src=./images/hexagon_symbol.png style=width:14px;height:14px> give the same result? By labeling the points of the hexagon with the numbers from 0 to 5, we ensure that when we combine two numbers using the hexagon, we only produce numbers between 0 and 5. When we use the arithmetic strategy, adding the second number to the first mimics counting around the hexagon, and subtracting 6 each time we get above 5 makes sure the results correspond to the numbers on the points of the hexagon. <br /><br />Click Continue when you're ready to move on.","orientation_history":[0],"rt":46672,"trial_type":"polygon-arrow-instructions","trial_index":0,"trial_index_global":2,"time_elapsed":162037,"internal_chunk_id":"0-0"},{"nsides":6,"question":"Now try one on your own! What is 4 <img src=./images/hexagon_symbol.png style=width:14px;height:14px> 5? <br /><br /> (Remember, to perform <img src=./images/hexagon_symbol.png style=width:14px;height:14px >, you  can either use a method based on the hexagon at right, or a method based on arithmetic.<br /><br /><b>Hexagon method:</b> you can use the interactive diagram on the right, or perform the operation in your mind. Point the arrow at the first number, then move the arrow the second number of points clockwise around the hexagon. The number the arrow arrives at is your result. <br /><br /><b>Arithmetic method:</b> you start with the first number, and then add the second one to it. If the sum is smaller than 6, that's your result. If the sum is 6 or bigger, you subtract 6 to get your result.)","response_type":"free","response_choices":[],"correct_response":"3","response":"3","explain":false,"explanation":"","explanation_history":[],"orientation_history":[[0],[0,0,0,0,0,0,0,0,0,0,0,-6.248998106178652,-6.196177194734726,-6.1418827828264195,-6.1418827828264195,-6.1418827828264195,-6.1418827828264195,-6.104038943909799,-6.065283513685085,-6.047568831499239,-6.047568831499239,-6.047568831499239,-6.047568831499239,-6.047568831499239,-6.047568831499239,-6.043576836736817,-6.003243045692262,-5.938499270592626,-5.896331709916623,-5.8714466576734194,-5.8714466576734194,-5.8714466576734194,-5.8714466576734194,-5.8714466576734194,-5.8714466576734194,-5.8714466576734194,-5.8714466576734194,-5.8714466576734194,-5.8714466576734194,-5.8714466576734194,-5.8714466576734194,-5.8714466576734194,-5.8714466576734194,-5.8714466576734194,-5.8714466576734194,-5.8714466576734194,-5.8714466576734194,-5.8714466576734194,-5.8714466576734194,-5.8714466576734194,-5.8714466576734194,-5.8714466576734194,-5.8714466576734194,-5.8714466576734194,-5.8714466576734194,-5.8714466576734194,-5.8714466576734194,-5.8714466576734194,-5.8714466576734194,-5.8714466576734194,-5.8714466576734194,-5.8714466576734194,-5.8714466576734194,-5.8714466576734194,-5.8714466576734194,-5.8714466576734194,-5.8714466576734194,-5.8714466576734194,-5.8714466576734194,-5.8714466576734194,-5.8714466576734194,-5.8714466576734194,-5.8714466576734194,-5.8714466576734194,-5.8714466576734194,-5.8714466576734194,-5.8714466576734194,-5.8714466576734194,-5.8714466576734194,-5.8714466576734194,-5.8714466576734194,-5.8714466576734194,-5.8714466576734194,-5.8714466576734194,-5.8714466576734194,-5.8714466576734194,-5.8714466576734194,-5.8714466576734194,-5.8714466576734194,-5.8714466576734194,-5.8714466576734194,-5.8714466576734194,-5.8714466576734194,-5.8714466576734194,-5.8714466576734194,-5.8714466576734194,-5.8714466576734194,-5.8714466576734194,-5.8714466576734194,-5.8714466576734194,-5.8714466576734194,-5.8714466576734194,-5.8714466576734194,-5.8714466576734194,-5.8714466576734194,-5.8714466576734194,-5.8714466576734194,-5.8714466576734194,-5.8714466576734194,-5.8714466576734194,-5.8714466576734194,-5.8714466576734194,-5.8714466576734194,-5.8714466576734194,-5.8714466576734194,-5.8714466576734194,-5.8714466576734194,-5.8714466576734194,-5.8714466576734194,-5.8714466576734194,-5.8714466576734194,-5.8714466576734194,-5.8714466576734194,-5.8714466576734194,-5.8714466576734194,-5.8714466576734194,-5.8714466576734194,-5.8714466576734194,-5.8714466576734194,-5.8714466576734194,-5.8714466576734194,-5.8714466576734194,-5.8714466576734194,-5.8714466576734194,-5.8714466576734194,-5.8714466576734194,-5.8714466576734194,-5.8714466576734194,-5.8714466576734194,-5.8714466576734194,-5.8714466576734194,-5.8714466576734194,-5.8714466576734194,-5.8714466576734194,-5.8714466576734194,-5.8714466576734194,-5.8714466576734194,-5.8714466576734194,-5.8714466576734194,-5.8714466576734194,-5.8714466576734194,-5.8714466576734194,-5.8714466576734194,-5.8714466576734194,-5.8714466576734194,-5.8714466576734194,-5.8714466576734194,-5.8714466576734194,-5.8714466576734194,-5.8714466576734194,-5.8714466576734194,-5.8714466576734194,-5.8714466576734194,-5.8714466576734194,-5.8714466576734194,-5.8714466576734194,-5.8714466576734194,-5.8714466576734194,-5.8714466576734194,-5.8714466576734194,-5.8714466576734194,-5.8714466576734194,-5.8714466576734194,-5.8714466576734194,-5.8714466576734194,-5.8714466576734194,-5.8714466576734194,-5.8714466576734194,-5.8714466576734194,-5.8714466576734194,-5.8714466576734194,-5.8714466576734194,-5.8714466576734194,-5.8714466576734194,-5.8714466576734194,-5.8714466576734194,-5.8714466576734194,-5.8714466576734194,-5.8714466576734194,-5.8714466576734194,-5.8714466576734194,-5.8714466576734194,-5.8714466576734194,-5.8714466576734194,-5.8714466576734194,-5.8714466576734194,-5.8714466576734194,-5.8714466576734194,-5.8714466576734194,-5.8714466576734194,-5.8714466576734194,-5.8714466576734194,-5.8714466576734194,-5.8714466576734194,-5.8714466576734194,-5.8714466576734194,-5.8714466576734194,-5.8714466576734194,-5.8714466576734194,-5.8714466576734194,-5.8714466576734194,-5.8714466576734194,-5.8714466576734194,-5.8714466576734194,-5.8714466576734194,-5.8714466576734194,-5.8714466576734194,-5.8714466576734194,-5.8714466576734194,-5.8714466576734194,-5.8714466576734194,-5.8714466576734194,-5.8714466576734194,-5.8714466576734194,-5.8714466576734194,-5.8714466576734194,-5.8714466576734194,-5.8714466576734194,-5.8714466576734194,-5.8714466576734194,-5.8714466576734194,-5.8714466576734194,-5.8714466576734194,-5.8714466576734194,-5.8714466576734194,-5.8714466576734194,-5.8714466576734194,-5.8714466576734194,-5.8714466576734194,-5.8714466576734194,-5.8714466576734194,-5.8714466576734194,-5.8714466576734194,-5.8714466576734194,-5.8714466576734194,-5.8714466576734194,-5.8714466576734194,-5.8714466576734194,-5.8714466576734194,-5.8714466576734194,-5.8714466576734194,-5.8714466576734194,-5.8714466576734194,-5.8714466576734194,-5.8714466576734194,-5.8714466576734194,-5.8714466576734194,-5.8714466576734194,-5.8714466576734194,-5.8714466576734194,-5.8714466576734194,-5.8714466576734194,-5.8714466576734194,-5.8714466576734194,-5.8714466576734194,-5.8714466576734194,-5.8714466576734194,-5.8714466576734194,-5.8714466576734194,-5.8714466576734194,-5.8714466576734194,-5.8714466576734194,-5.8714466576734194,-5.8714466576734194,-5.8714466576734194,-5.8714466576734194,-5.8714466576734194,-5.8714466576734194,-5.8714466576734194,-5.8714466576734194,-5.8714466576734194,-5.8714466576734194,-5.8714466576734194,-5.8714466576734194,-5.8714466576734194,-5.8714466576734194,-5.8714466576734194,-5.8714466576734194,-5.8714466576734194,-5.8714466576734194,-5.8714466576734194,-5.8714466576734194,-5.8714466576734194,-5.8714466576734194,-5.8714466576734194,-5.8714466576734194,-5.8714466576734194,-5.8714466576734194,-5.8714466576734194,-5.8714466576734194,-5.8714466576734194,-5.8714466576734194,-5.8714466576734194,-5.8714466576734194,-5.8714466576734194,-5.8714466576734194,-5.8714466576734194,-5.8714466576734194,-5.8714466576734194,-5.8714466576734194,-5.8714466576734194,-5.8714466576734194,-5.8714466576734194,-5.8714466576734194,-5.8714466576734194,-5.8714466576734194,-5.8714466576734194,-5.8714466576734194,-5.8714466576734194,-5.8714466576734194,-5.8714466576734194,-5.8714466576734194,-5.8714466576734194,-5.8714466576734194,-5.8714466576734194,-5.8714466576734194,-5.8714466576734194,-5.8714466576734194,-5.8714466576734194,-5.8714466576734194,-5.8714466576734194,-5.8714466576734194,-5.8714466576734194,-5.8714466576734194,-5.8714466576734194,-5.8714466576734194,-5.8714466576734194,-5.8714466576734194,-5.8714466576734194,-5.8714466576734194,-5.8714466576734194,-5.8714466576734194,-5.8714466576734194,-5.8714466576734194,-5.8714466576734194,-5.8714466576734194,-5.8714466576734194,-5.8714466576734194,-5.8714466576734194,-5.8714466576734194,-5.8714466576734194,-5.8714466576734194,-5.8714466576734194,-5.8714466576734194,-5.8714466576734194,-5.8714466576734194,-5.8714466576734194,-5.8714466576734194,-5.8714466576734194,-5.8714466576734194,-5.8714466576734194,-5.8714466576734194,-5.8714466576734194,-5.8714466576734194,-5.8714466576734194,-5.8714466576734194,-5.8714466576734194,-5.8714466576734194,-5.8714466576734194,-5.8714466576734194,-5.8714466576734194,-5.8714466576734194,-5.8714466576734194,-5.8714466576734194,-5.8714466576734194,-5.8714466576734194,-5.8714466576734194,-5.8714466576734194,-5.8714466576734194,-5.8714466576734194,-5.8714466576734194,-5.8714466576734194,-5.8714466576734194,-5.8714466576734194,-5.8714466576734194,-5.8714466576734194,-5.8714466576734194,-5.8714466576734194,-5.8714466576734194,-5.8714466576734194,-5.8714466576734194,-5.8714466576734194,-5.8714466576734194,-5.8714466576734194,-5.8714466576734194,-5.8714466576734194,-5.8714466576734194,-5.8714466576734194,-5.8714466576734194,-5.8714466576734194,-5.8714466576734194,-5.8714466576734194,-5.8714466576734194,-5.8714466576734194,-5.8714466576734194,-5.8714466576734194,-5.8714466576734194,-5.8714466576734194,-5.8714466576734194,-5.8714466576734194,-5.8714466576734194,-5.8714466576734194,-5.8714466576734194,-5.8714466576734194,-5.8714466576734194,-5.8714466576734194,-5.8714466576734194,-5.8714466576734194,-5.8714466576734194,-5.8714466576734194,-5.8714466576734194,-5.8714466576734194,-5.8714466576734194,-5.8714466576734194,-5.8714466576734194,-5.8714466576734194,-5.8714466576734194,-5.8714466576734194,-5.8714466576734194,-5.8714466576734194,-5.8714466576734194,-5.8714466576734194,-5.8714466576734194,-5.8714466576734194,-5.8714466576734194,-5.8714466576734194,-5.8714466576734194,-5.8714466576734194,-5.8714466576734194,-5.8714466576734194,-5.8714466576734194,-5.8714466576734194,-5.8714466576734194,-5.8714466576734194,-5.8714466576734194,-5.8714466576734194,-5.8714466576734194,-5.8714466576734194,-5.8714466576734194,-5.8714466576734194,-5.8714466576734194,-5.8714466576734194,-5.8714466576734194,-5.8714466576734194,-5.8714466576734194,-5.8714466576734194,-5.8714466576734194,-5.8714466576734194,-5.8714466576734194,-5.8714466576734194,-5.8714466576734194,-5.8714466576734194,-5.8714466576734194,-5.8714466576734194,-5.8714466576734194,-5.8714466576734194,-5.8714466576734194,-5.8714466576734194,-5.8714466576734194,-5.8714466576734194,-5.8714466576734194,-5.8714466576734194,-5.8714466576734194,-5.8714466576734194,-5.8714466576734194,-5.8714466576734194,-5.9004904761108365,-6.1418827828264195,-0.5287075247205868,-1.2623920025106248,-1.5855841705169489,-1.6939505213851218,-1.7399069741374955,-1.77489585966351,-1.801411433692511,-1.8264586169691128,-1.8433524689498793,-1.8597276683933437,-1.8755993513851337,-1.9001343044478691,-1.9237548644450495,-1.9413726027687703,-1.9673293291351586,-1.9804762901153676,-2.0053018885410463,-2.0134478451132694,-2.0134478451132694,-2.0134478451132694,-2.0134478451132694,-2.0134478451132694,-2.0134478451132694,-2.0134478451132694,-2.0134478451132694,-2.0134478451132694,-2.0134478451132694,-2.0134478451132694,-2.0134478451132694,-2.0134478451132694,-2.0134478451132694,-2.0134478451132694,-2.0134478451132694,-2.0134478451132694,-2.0134478451132694,-2.0134478451132694,-2.037493739962448,-2.0652687956543287,-2.0652687956543287,-2.0652687956543287,-2.0652687956543287,-2.0652687956543287,-2.0652687956543287,-2.0774245611105053,-2.0851222108303062,-2.0927508477409438,-2.0927508477409438,-2.0927508477409438,-2.0927508477409438,4.1887902047863905],[4.1887902047863905,4.1887902047863905,4.1887902047863905,4.1887902047863905,4.1887902047863905,4.1887902047863905,4.1887902047863905,4.1887902047863905,4.1887902047863905,4.1887902047863905,4.1887902047863905,4.1887902047863905,4.1887902047863905,4.1887902047863905,4.1887902047863905,4.1887902047863905,4.1887902047863905,4.1887902047863905,4.1887902047863905,4.1887902047863905,4.1887902047863905,4.1887902047863905,4.1887902047863905,4.1887902047863905,4.1887902047863905,4.1887902047863905,4.1887902047863905,4.1887902047863905,4.1887902047863905,4.1887902047863905,4.1887902047863905,4.1887902047863905,4.1887902047863905,4.1887902047863905,4.1887902047863905,4.1887902047863905,4.1887902047863905,4.1887902047863905,4.1887902047863905,4.1887902047863905,4.1887902047863905,4.1887902047863905,4.1887902047863905,4.1887902047863905,4.1887902047863905,4.1887902047863905,4.1887902047863905,4.1887902047863905,4.1887902047863905,4.1887902047863905,4.1887902047863905,4.1887902047863905,4.1887902047863905,4.1887902047863905,4.1887902047863905,4.1887902047863905,4.1887902047863905,4.1887902047863905,4.1887902047863905,4.1887902047863905,4.1887902047863905,4.1887902047863905,4.1887902047863905,4.1887902047863905,4.1887902047863905,4.1887902047863905,4.1887902047863905,4.1887902047863905,4.1887902047863905,4.1887902047863905,4.1887902047863905,4.1887902047863905,4.1887902047863905,4.1887902047863905,4.1887902047863905,4.1887902047863905,4.1887902047863905,4.1887902047863905,4.1887902047863905,4.1887902047863905,4.1887902047863905,4.1887902047863905,4.207292765976059,4.244214793178144,4.282483946207715,4.30872464082132,4.322057184115466,4.322057184115466,4.322057184115466,4.322057184115466,4.353906636618674,4.408931361595234,4.468982294542996,4.512005632983966,4.541070997201854,4.601223644405945,4.660253624082124,4.703722756999185,4.76156834847228,4.817100936493685,4.886626577783566,4.940920989691872,4.989708186306266,5.052624151428915,5.10090236136558,5.135834822939494,5.169636834516729,5.180649263527912,5.180649263527912,5.180649263527912,5.180649263527912,5.180649263527912,5.180649263527912,5.180649263527912,5.180649263527912,5.180649263527912,5.180649263527912,5.180649263527912,5.180649263527912,5.180649263527912,5.180649263527912,5.180649263527912,5.180649263527912,5.180649263527912,5.180649263527912,5.180649263527912,5.180649263527912,5.180649263527912,5.180649263527912,5.180649263527912,5.180649263527912,5.180649263527912,5.180649263527912,5.180649263527912,5.180649263527912,5.180649263527912,5.180649263527912,5.180649263527912,5.180649263527912,5.180649263527912,5.180649263527912,5.180649263527912,5.180649263527912,5.180649263527912,5.180649263527912,5.180649263527912,5.180649263527912,5.180649263527912,5.180649263527912,5.180649263527912,5.180649263527912,5.180649263527912,5.180649263527912,5.180649263527912,5.251968240694768,5.344063086531506,5.443060724843355,5.528340910634365,5.619670879657739,5.725072270942485,5.810767232116701,5.897483107464074,5.999424952981241,6.1001142215703625,6.149370123554686,6.197608534732624,6.2139062287140705,6.2139062287140705,6.2139062287140705,6.2139062287140705,6.2139062287140705,6.2139062287140705,6.2139062287140705,6.229267818658112,0.03737405733110255,0.1228542952602707,0.16046436371827544,0.18793537077174194,0.18793537077174194,0.18793537077174194,0.18793537077174194,0.18793537077174194,0.18793537077174194,0.18793537077174194,0.18793537077174194,0.18793537077174194,0.18793537077174194,0.18793537077174194,0.18793537077174194,0.18793537077174194,0.18793537077174194,0.18793537077174194,0.18793537077174194,0.18793537077174194,0.18793537077174194,0.18793537077174194,0.18793537077174194,0.18793537077174194,0.18793537077174194,0.18793537077174194,0.18793537077174194,0.18793537077174194,0.18793537077174194,0.18793537077174194,0.18793537077174194,0.18793537077174194,0.18793537077174194,0.24930518695278714,0.3546086954888168,0.5735024334263101,0.8171300635405975,0.9969628134316408,1.1279875022087882,1.187280393819099,1.2343621833502205,1.2836746407181874,1.315081422538983,1.330344933420871,1.3453167359655882,1.3453167359655882,1.3453167359655882,1.3453167359655882,1.3453167359655882,1.3453167359655882,1.3453167359655882,1.3453167359655882,1.3453167359655882,1.3453167359655882,1.3453167359655882,1.3453167359655882,1.3453167359655882,1.3453167359655882,1.3453167359655882,1.3453167359655882,1.3453167359655882,1.3453167359655882,1.3453167359655882,1.3453167359655882,1.3453167359655882,1.3453167359655882,1.3453167359655882,1.3453167359655882,1.3453167359655882,1.3576500764251762,1.4718345269827529,1.5982280731132767,1.647307016835054,1.7808181649907084,1.8160045752497989,1.8390951588217592,1.8390951588217592,1.8390951588217592,1.8618702634282303,1.928144741456257,1.9808385327755271,2.0212358937375035,2.050481575271753,2.050481575271753,2.050481575271753,2.050481575271753,2.050481575271753,2.050481575271753,2.050481575271753,2.050481575271753,2.050481575271753,2.050481575271753,2.050481575271753,2.050481575271753,2.050481575271753,2.050481575271753,2.050481575271753,2.050481575271753,2.050481575271753,2.050481575271753,2.050481575271753,2.050481575271753,2.050481575271753,2.050481575271753,2.050481575271753,2.050481575271753,2.0709166864758677,2.1790918632829905,2.314520125673331,2.4501452723082044,2.6484580527217805,2.7922788788953357,2.8734560280119243,2.921039131288908,2.9532860137241617,2.9800837209616633,3.0077774699648927,3.021181492887223,3.0471272263534983,3.047963346559993,3.047963346559993,3.047963346559993,3.047963346559993,3.047963346559993,3.047963346559993,3.047963346559993,3.047963346559993,3.047963346559993,3.047963346559993,3.047963346559993,3.047963346559993,3.047963346559993,3.047963346559993,3.047963346559993,3.047963346559993,3.047963346559993,3.047963346559993,3.047963346559993,3.047963346559993,3.047963346559993,3.047963346559993,3.047963346559993,3.141592653589793]],"response_history":["2","3"],"rt":44117,"trial_type":"polygon-arrow-question","trial_index":0,"trial_index_global":3,"time_elapsed":206156,"internal_chunk_id":"0-0.3-0"},{"nsides":6,"feedback":"Correct! 4 <img src=./images/hexagon_symbol.png style=width:14px;height:14px> 5 = 3 because 5 steps clockwise on the hexagon from 4 brings us to 3. Equivalently, 4 + 5 = 9 and 9 - 6 = 3.","orientation_history":[0],"rt":57614,"trial_type":"polygon-arrow-feedback","trial_index":0,"trial_index_global":4,"time_elapsed":263773,"internal_chunk_id":"0-0.3-0"},{"nsides":6,"question":"What is 3 <img src=./images/hexagon_symbol.png style=width:14px;height:14px> 2? Try to solve this problem using the hexagon. <br /><br /> (Remember, to perform <img src=./images/hexagon_symbol.png style=width:14px;height:14px> on the hexagon, you can use the interactive diagram on the right, or perform the operation  in your  mind. Point the arrow at the first number on the hexagon, and then move the arrow the second number of points clockwise around the hexagon.)","response_type":"free","response_choices":[],"correct_response":"5","response":"5","explain":false,"explanation":"","explanation_history":[],"orientation_history":[[0],[0,0,0,0,0.0671972527718494,0.3539554914029239,0.877086195718501,1.4066757945005774,1.6893836989420525,1.8625371314894954,1.996024292255668,2.071640511876024,2.1503603120882198,2.177856906368537,2.204968905496038,2.204968905496038,2.204968905496038,2.204968905496038,2.204968905496038,2.204968905496038,2.204968905496038,2.204968905496038,2.330450406268996,2.5710040918453734,2.746381454099577,2.854927489106765,2.8988445454171927,2.926234953892055,2.9525446711449774,2.9525446711449774,2.9525446711449774,2.9525446711449774,3.001094801602822,3.032970626541191,3.0822597968931067,3.0984257684149945,3.107034527196027,3.107034527196027,3.1154339759920235,3.1134888736255384,3.1134888736255384,3.1134888736255384,3.1134888736255384,3.1134888736255384,3.1134888736255384,3.1134888736255384,3.1134888736255384,3.1134888736255384,3.1134888736255384,3.1134888736255384,3.1134888736255384,3.1134888736255384,3.1134888736255384,3.1134888736255384,3.1134888736255384,3.1134888736255384,3.1134888736255384,3.1134888736255384,3.1134888736255384,3.141592653589793],[3.141592653589793,3.141592653589793,3.141592653589793,3.141592653589793,3.141592653589793,3.155716008242339,3.2501299506226187,3.3424011694712124,3.427417868027961,3.5172669832651264,3.6403428945771688,3.751835619562156,3.898070032249687,3.9671445332802735,4.024717724345961,4.059186825345468,4.086653908896765,4.109094031769431,4.141410033623182,4.167938404914392,4.182642192837665,4.20030988629614,4.211037086747729,4.24266133185581,4.29848842880919,4.3847532560720195,4.47408059075937,4.544125824439253,4.6277567885523885,4.694022199501924,4.7370753224402895,4.787392526901767,4.822809141112612,4.857698991020392,4.89199086038,4.912252316963451,4.912252316963451,4.912252316963451,4.912252316963451,4.912252316963451,4.912252316963451,4.912252316963451,4.912252316963451,4.912252316963451,4.912252316963451,4.912252316963451,4.912252316963451,4.912252316963451,4.912252316963451,4.912252316963451,4.912252316963451,4.93447088229017,4.943017682722782,4.959781931433018,4.966039338777947,4.966039338777947,4.966039338777947,4.966039338777947,4.966039338777947,4.966039338777947,4.966039338777947,4.966039338777947,4.966039338777947,4.966039338777947,5.006510947676998,5.027695806005401,5.048206369906441,5.059562796379292,5.059562796379292,5.059562796379292,5.059562796379292,5.059562796379292,5.059562796379292,5.059562796379292,5.059562796379292,5.059562796379292,5.235987755982988]],"response_history":["5"],"rt":7493,"trial_type":"polygon-arrow-question","trial_index":0,"trial_index_global":5,"time_elapsed":271268,"internal_chunk_id":"0-0.3-0"},{"nsides":6,"feedback":"Correct! 3 <img src=./images/hexagon_sym bol.png style=width:14px;height:14px> 2 = 5 because 2 steps clockwise on the hexagon from 3 brings us to 5. Equivalently, 3 + 2 = 5 and 5 is less than 6.","orientation_history":[0],"rt":1062,"trial_type":"polygon-arrow-feedback","trial_index":0,"trial_index_global":6,"time_elapsed":272331,"internal_chunk_id":"0-0.3-0"},{"nsides":6,"question":"What is 1 <img src=./images/hexagon_symbol.png style=width:14px;height:14px> 5? Try to solve this probem using the arithmetic technique. <br /><br /> (Remember, to perform <img src=./images/hexagon_symbol.png style=width:14px;height:14px> by arithmetic, you start with the first number, and then add the second one to it. If the sum is smaller than 6, that's your result. If the sum is 6 or bigger, you subtract 6 to get your result.)","response_type":"free","response_choices":[],"correct_response":"0","response":"0","explain":false,"explanation":"","explanation_history":[],"orientation_history":[[0],[0.9523683324223772,0.9523683324223772,0.9523683324223772,0.9523683324223772,0.9523683324223772,0.9523683324223772,0.9523683324223772,0.9523683324223772,0.9523683324223772,0.9523683324223772,0.9994588469612697,1.0888580748372703,1.157667494516495,1.1835027235888202,1.192502335453437,1.192502335453437,1.192502335453437,1.192502335453437,1.192502335453437,1.192502335453437,1.192502335453437,1.192502335453437,1.192502335453437,1.192502335453437,1.192502335453437,1.1835027235888202,1.1357123756328504,1.0832012008718828,1.0516502125483735,1.0327521189692717,1.0327521189692717,1.0327521189692717,1.0327521189692717,1.0327521189692717,1.0471975511965976],[1.0483928950783676,1.0483928950783676,1.0483928950783676,1.0483928950783676,1.0483928950783676,1.0483928950783676,1.0483928950783676,1.0483928950783676,1.0483928950783676,1.0724805325845908,1.1365520059980956,1.1830261549195775,1.2120256565243244,1.2286404417117163,1.2531609755053659,1.2694511030847924,1.2818209168023302,1.2942823801774224,1.2942823801774224,1.2942823801774224,1.3101939350475555,1.3759324071060246,1.4544411615880217,1.54482813958334,1.6475682180646747,1.7483924940783844,1.80973276738106,1.9535398366404721,2.060753653048625,2.1524498093084876,2.2386289160547013,2.2724215464485784,2.3036114285814033,2.3191743743184148,2.3191743743184148,2.3191743743184148,2.3191743743184148,2.3191743743184148,2.3191743743184148,2.3191743743184148,2.3191743743184148,2.3191743743184148,2.3191743743184148,2.3191743743184148,2.3191743743184148,2.3191743743184148,2.3191743743184148,2.3191743743184148,2.3191743743184148,2.3191743743184148,2.3191743743184148,2.3191743743184148,2.341044134317575,2.4045438768442478,2.4575409934580126,2.5605103547924664,2.6607053733944577,2.7468015338900313,2.8037144653495147,2.872003575668867,2.941764008516803,3.032274119701893,3.0940095503128098,3.141592653589793,3.176462235144583,3.1983498114118865,3.2096691118477927,3.2096691118477927,3.2096691118477927,3.2096691118477927,3.2096691118477927,3.2096691118477927,3.2096691118477927,3.2096691118477927,3.2096691118477927,3.2096691118477927,3.2096691118477927,3.2096691118477927,3.2096691118477927,3.2096691118477927,3.2096691118477927,3.2096691118477927,3.2096691118477927,3.2096691118477927,3.2322525407905385,3.369281973358449,3.540115099256213,3.698888188707299,3.8316287700848326,3.9269908169872414,3.9696998727522455,3.995847306288286,4.003762708257019,4.003762708257019,4.003762708257019,4.003762708257019,4.003762708257019,4.003762708257019,4.003762708257019,4.003762708257019,4.003762708257019,4.003762708257019,4.003762708257019,4.003762708257019,4.003762708257019,4.003762708257019,4.003762708257019,4.003762708257019,4.003762708257019,4.003762708257019,4.003762708257019,4.003762708257019,4.096519028445163,4.341497691572028,4.6365851430235505,4.8659327629242455,5.017192004974927,5.079562814202909,5.1040889198221135,5.109468425609672,5.109468425609672,5.109468425609672,5.109468425609672,5.109468425609672,5.109468425609672,5.109468425609672,5.109468425609672,5.109468425609672,5.109468425609672,5.109468425609672,5.109468425609672,5.109468425609672,5.109468425609672,5.109468425609672,5.109468425609672,5.109468425609672,5.109468425609672,5.109468425609672,5.109468425609672,5.109468425609672,5.109468425609672,5.109468425609672,5.109468425609672,5.1133386057507835,5.195357856241251,5.290714466665106,5.426479678996848,5.573116034610478,5.6802025508646485,5.7707958468688485,5.860934153728314,5.895415135304267,5.969247093843045,6.029511211040943,6.072091973956839,6.114353405168465,6.141288252575422,6.166693846484936,6.179392966722544,6.19066668605994,6.191605457036901,6.191605457036901,6.191605457036901,6.191605457036901,6.191605457036901,6.191605457036901,6.191605457036901,6.191605457036901,6.191605457036901,6.191605457036901,6.191605457036901,6.191605457036901,6.191605457036901,6.191605457036901,6.191605457036901,6.191605457036901,6.191605457036901,6.191605457036901,6.191605457036901,6.191605457036901,6.191605457036901,6.191605457036901,6.191605457036901,6.283185307179586]],"response_history":["0"],"rt":7575,"trial_type":"polygon-arrow-question","trial_index":0,"trial_index_global":7,"time_elapsed":279907,"internal_chunk_id":"0-0.3-0"},{"nsides":6,"feedback":"Correct! 1 <img src=./images/hexagon_symbol.png style=width:14px;height:14px> 5 = 0 because 1 + 5 = 6 and 6 - 6 = 0.  Equivalently, 5 steps clockwise on the hexagon from 1 brings us to 0.","orientation_history":[0],"rt":1201,"trial_type":"polygon-arrow-feedback","trial_index":0,"trial_index_global":8,"time_elapsed":281109,"internal_chunk_id":"0-0.3-0"},{"nsides":6,"question":"What is 1 <img src=./images/hexagon_symbol.png style=width:14px;height:14px> 1? Try to solve this problem using the hexagon. <br /><br /> (Remember, to perform <img src=./images/hexagon_symbol.png style=width:14px;height:14px> on the hexagon, you can use the interactive diagram on the right, or perform the operation in your mind. Point the arrow at the first number  on the  hexagon, and then move the arrow the second number of points clockwise around the hexagon.)","response_type":"free","response_choices":[],"correct_response":"2","response":"2","explain":false,"explanation":"","explanation_history":[],"orientation_history":[[0],[0,0,0,0.0397790434131835,-6.141547148522231,-6.015829911657706,-5.914239108722631,-5.84426592530173,-5.779758654765597,-5.68792558878714,-5.59171932370848,-5.502518036931938,-5.448026580691206,-5.3732521636361685,-5.342228407767412,-5.31198735779891,-5.31198735779891,-5.31198735779891,-5.31198735779891,-5.31198735779891,-5.31198735779891,-5.300503572285001,-5.291424703709191,-5.253942267017529,-5.23413086825594,-5.23413086825594,-5.23413086825594,-5.23413086825594,-5.23413086825594,-5.23413086825594,-5.23413086825594,-5.23413086825594,1.0471975511965976],[1.0471975511965976,1.0471975511965976,1.0471975511965976,1.0471975511965976,1.0471975511965976,1.1300371037458183,1.2572486606340099,1.3992569128358474,1.5033788132800392,1.5852520830415693,1.6381270741211336,1.689389474615222,1.7404507029456444,1.7768595102798324,1.8263411051374565,1.9019495712370686,1.9765884699373208,2.0494693302604543,2.104012877973764,2.1409042108477623,2.181504771623482,2.201112664947214,2.2107438041554586,2.2107438041554586,2.2107438041554586,2.2107438041554586,2.2107438041554586,2.2107438041554586,2.2107438041554586,2.2107438041554586,2.2107438041554586,2.2202600756946955,2.2202600756946955,2.2202600756946955,2.2202600756946955,2.2202600756946955,2.2202600756946955,2.2202600756946955,2.2202600756946955,2.2202600756946955,2.0943951023931953]],"response_history":["2"],"rt":108418,"trial_type":"polygon-arrow-question","trial_index":0,"trial_index_global":9,"time_elapsed":389528,"internal_chunk_id":"0-0.3-0"},{"nsides":6,"feedback":"Correct! 1 <img src=./images/hexagon_symbol.png style=width:14px;height:14px> 1 = 2 because 1 step clockwise on the hexagon from 1 brings us to 2. Equivalently, 1 + 1 = 2 and 2 is less t han 6.","orientation_history":[0],"rt":1183,"trial_type":"polygon-arrow-feedback","trial_index":0,"trial_index_global":10,"time_elapsed":390712,"internal_chunk_id":"0-0.3-0"},{"nsides":6,"question":"What is 3 <img src=./images/hexagon_symbol.png style=width:14px;height:14px> 0? Try to solve this problem using the arithmetic technique. <br /><br /> (Remember, to perform <img src=./images/hexagon_symbol.png style=width:14px;height:14px> using arithmetic, you start with the first number, and then add the second one to it. If the sum is smaller than 6, that's your result. If the sum is 6 or bigger, you subtract 6 to get your result.)","response_type":"free","response_choices":[],"correct_response":"3","response":"3","explain":false,"explanation":"","explanation_history":[],"orientation_history":[[0],[6.034697886522183,6.034697886522183,6.034697886522183,6.034697886522183,6.034697886522183,6.034697886522183,6.056386459125701,6.085789747329706,6.183516654688424,0.10487693873023374,0.40024065703397405,0.9453112865556675,1.7475051828649333,2.095592098445004,2.245537269018449,2.311779274945434,2.3456685631606193,2.38648825011112,2.4240513130486487,2.4851052618763365,2.536047989984823,2.5842971184722874,2.6179079925935502,2.6403283887182107,2.6565579317372574,2.683292587198138,2.710019602366288,2.8083483524781205,2.9139033338211373,2.9576491970526178,2.9855678105887415,2.9872738776636742,2.9872738776636742,2.9981403902861343,2.9981403902861343,2.9981403902861343,2.9981403902861343,2.9981403902861343,2.9981403902861343,2.9981403902861343,2.9981403902861343,2.9981403902861343,3.0104810051072466,3.0344773302375616,3.0344773302375616,3.0344773302375616,3.0344773302375616,3.0461389392570792,3.0672617664221278,3.0672617664221278,3.0672617664221278,3.0672617664221278,3.077849341057106,3.120319267565732,3.152230550165335,3.173839536025047,3.1741897987077463,3.1741897987077463,3.1741897987077463,3.1741897987077463,3.1741897987077463,3.1741897987077463,3.141592653589793],[3.141592653589793,3.141592653589793,3.141592653589793,3.141592653589793,3.141592653589793,3.141592653589793,3.141592653589793,3.141592653589793,3.1347609921533985,3.141996204818896,3.1501162751377105,3.1438042238875856,3.1408729703747147,3.1467384057702183,3.1439408545739878,3.142588008271037,3.142588008271037,3.141264461937645,3.141264461937645,3.137460445704341,3.13505476417785,3.1316262061835864,3.130528511783635,3.130528511783635,3.130528511783635,3.130528511783635,3.130528511783635,3.130528511783635,3.141592653589793]],"response_history":["3"],"rt":5196,"trial_type":"polygon-arrow-question","trial_index":0,"trial_index_global":11,"time_elapsed":395909,"internal_chunk_id":"0-0.3-0"},{"nsides":6,"feedback":"Correct! 3 <img src=./images/hexagon_symbol.png style=width:14px;height:14px> 0 = 3 because 3 + 0 = 3 and 3 - 6 = 3.  Equivalently, 0 steps clockwise on the hexagon from 3 brings us to 3.","orientation_history":[0],"rt":1229,"trial_type":"polygon-arrow-feedbac k","trial_index":0,"trial_index_global":12,"time_elapsed":397139,"internal_chunk_id":"0-0.3-0"},{"nsides":6,"question":"What is 4 <img src=./images/hexagon_symbol.png style=width:14px;height:14px> 4? Try to solve this problem using the hexagon. <br /><br /> (Remember, to perform <img src=./images/hexagon_symbol.png style=width:14px;height:14px> on the hexagon, you can use the interactive diagram on the right, or perform the operation in your mind. Point the arrow at the first number on the hexagon, and then move the arrow the second number of points clockwise around the hexagon.)","response_type":"free","response_choices":[],"correct_response":"2","response":"2","explain":false,"explanation":"","explanation_history":[],"orientation_history":[[0],[4.275761820571148,4.2487413713838835,4.213929569918011,4.19055470057028,4.168346307562645,4.173764810321639,4.173764810321639,4.173764810321639,4.173764810321639,4.173764810321639,4.173764810321639,4.173764810321639,4.152707414381411,4.12717188495313,4.12717188495313,4.12717188495313,4.12717188495313,4.12717188495313,4.12717188495313,4.12717188495313,4.1887902047863905],[4.111847849005683,4.111847849005683,4.111847849005683,4.111847849005683,4.111847849005683,4.111847849005683,4.111847849005683,4.111847849005683,4.111847849005683,4.222431654130961,4.420932185906823,4.6163002648673235,4.724153143534448,4.805145300572834,4.839605197452578,4.860716814506454,4.860716814506454,4.860716814506454,4.860716814506454,4.905359790350259,4.93834819807333,4.9628320699960415,5.009233653761092,5.059223877965698,5.105446999566622,5.140875207430467,5.165986676492461,5.176036589385496,5.176036589385496,5.176036589385496,5.176036589385496,5.176036589385496,5.176036589385496,5.176036589385496,5.176036589385496,5.176036589385496,5.176036589385496,5.176036589385496,5.176036589385496,5.176036589385496,5.176036589385496,5.176036589385496,5.176036589385496,5.176036589385496,5.196338368244714,5.335588310318755,5.546292756022521,5.737958151642311,5.917983857391413,5.9699091261859145,6.015774509995713,6.015774509995713,6.015774509995713,6.015774509995713,6.015774509995713,6.015774509995713,6.015774509995713,6.015774509995713,6.015774509995713,6.015774509995713,6.015774509995713,6.015774509995713,6.015774509995713,6.015774509995713,6.015774509995713,6.015774509995713,6.015774509995713,6.015774509995713,6.015774509995713,6.015774509995713,6.015774509995713,6.091137289938856,0.15808997112168566,0.45181384189765517,0.6016536326583255,0.6765859585802032,0.702256931509007,0.7199181384739834,0.7199181384739834,0.7199181384739834,0.7199181384739834,0.7199181384739834,0.7199181384739834,0.7276113326265106,0.7276113326265106,0.7520771675192011,0.7687330396835075,0.7687330396835075,0.7687330396835075,0.7687330396835075,0.7687330396835075,0.7687330396835075,0.7687330396835075,0.7687330396835075,0.7687330396835075,0.7687330396835075,0.7687330396835075,0.7687330396835075,0.7687330396835075,0.8110335719191257,0.8634998411174336,1.0500679353878257,1.3288757581104917,1.5342272708813551,1.7637671367604661,1.9025133285977458,2.030038677948892,2.0899424410414196,2.117585167684144,2.125477934464217,2.133294257863969,2.133294257863969,2.133294257863969,2.133294257863969,2.133294257863969,2.133294257863969,2.133294257863969,2.133294257863969,2.133294257863969,2.133294257863969,2.133294257863969,2.133294257863969,2.133294257863969,2.133294257863969,2.0943951023931953]],"response_history":["2"],"rt":5057,"trial_type":"polygon-arrow-question","trial_index":0,"trial_index_global":13,"time_elapsed":402197,"internal_chunk_id":"0-0.3-0"},{"nsides":6,"feedback":"Correct! 4 <img src=./images/hexagon_symbol.png style=width:14px;height:14px> 4 = 2 because 4 steps clockwise on the hexagon from 4 brings us to 2. Equivalently, 4 + 4 = 8 and 8 - 6 = 2.","orientation_history":[0],"rt":1100,"trial_type":"polygon-arrow-feedback","trial_index":0,"trial_index_global":14,"time_elapsed":403298,"internal_chunk_id":"0-0.3-0 "},{"nsides":6,"question":"What is 1 <img src=./images/hexagon_symbol.png style=width:14px;height:14px> 3? Try to solve this problem using the arithmetic technique. <br /><br /> (Remember, to perform <img src=./images/hexagon_symbol.png style=width:14px;height:14px> by arithmetic, you start with the first number, and then add the second one to it. If the sum is smaller than 6, that's your result. If the sum is 6 or bigger, you subtract 6 to get your result.)","response_type":"free","response_choices":[],"correct_response":"4","response":"4","explain":false,"explanation":"","explanation_history":[],"orientation_history":[[0],[0.6267429012110468,0.6267429012110468,0.6267429012110468,0.6267429012110468,0.6350267353903137,0.7229793534014909,0.8288490587889791,0.9056936403254023,1.0516502125483735,1.1737168815699142,1.244437510088134,1.2807093944738686,1.2983331773911049,1.2983331773911049,1.2983331773911049,1.2983331773911049,1.2983331773911049,1.2983331773911049,1.2983331773911049,1.2983331773911049,1.2983331773911049,1.2983331773911049,1.2983331773911049,1.2983331773911049,1.2983331773911049,1.2983331773911049,1.2983331773911049,1.2268272070715354,1.1453466894248543,1.0759088843638223,1.0516502125483735,1.0516502125483735,1.0516502125483735,1.0516502125483735,1.0516502125483735,1.0516502125483735,1.0516502125483735,1.0516502125483735,1.0516502125483735,1.0516502125483735,1.0516502125483735,1.0516502125483735,1.0516502125483735,1.0516502125483735,1.0516502125483735,1.0516502125483735,1.0516502125483735,1.0471975511965976],[1.0471975511965976,1.0471975511965976,1.0471975511965976,1.0471975511965976,1.0471975511965976,1.0471975511965976,1.1026960564423145,1.2213414882360156,1.3428670643024876,1.4159722374359862,1.4770296724498984,1.5222546080450488,1.5957469536471258,1.6817703258100454,1.7385344799660596,1.7665247334090093,1.8079093725384465,1.821526056063939,1.8180336372013073,1.844643324448232,1.9186523901172623,2.0046802253010787,2.0622381568791806,2.1502140611052356,2.2630859469731313,2.3982199601915717,2.558615777820312,2.759890932595658,2.9497108797943437,3.104893109802764,3.2291868411014244,3.337321060203906,3.4547753435275483,3.562762460577649,3.631081361157598,3.679442729453622,3.7014081810959487,3.72805803942036,3.7453127706857465,3.7598107809950845,3.7890091065435945,3.819958303217171,3.8424180625916513,3.856938983804427,3.8714876598744556,3.879087260243935,3.8865824353148657,3.900958772068935,3.9366217314583256,3.943514099669488,3.957488952166118,3.964180734734054,3.978036660881182,3.9909244992259687,4.010744060032149,4.010744060032149,4.016852106962647,4.030228026468286,4.05508968793214,4.079140032617481,4.091951199525084,4.1047064661082295,4.114933757151388,4.114933757151388,4.127414872672574,4.1323093212725475,4.1323093212725475,4.1323093212725475,4.1887902047863905]],"response_history":["4"],"rt":4468,"trial_type":"polygon-arrow-question","trial_index":0,"trial_index_global":15,"time_elapsed":407767,"internal_chunk_id":"0-0.3-0"},{"nsides":6,"feedback":"Correct! 1 <img src=./images/hexagon_symbol.png style=width:14px;height:14px> 3 = 4 because 1 + 3 = 4 and 4 - 6 = 4.  Equivalently, 3 steps clockwise on the hexagon from 1 brings us to 4.","orientation_history":[0],"rt":1025,"trial_type":"polygon-arrow-feedback","trial_index":0,"trial_index_global":16,"time_elapsed":408793,"internal_chunk_id":"0-0.3-0"},{"nsides":6,"question":"What is 4 <img src=./images/hexagon_symbol.png style=width:14px;height:14px> 3? <br /><br /> (Remember, to perform <img src=./images/hexagon_symbol.png style=width:14px;height:14px>, you can either use a method based on the hexagon at right, or a method based on arithmetic.<br /><br /><b>Hexagon method:</b> you can use the interactive diagram on the right, or perform the operation in your mind. Point the arrow at the first number, then move the arrow the second number of points clockwise around the hexagon. The number the arrow arrives at is y our resu lt. <br /><br /><b>Arithmetic method:</b> you start with the first number, and then add the second one to it. If the sum is smaller than 6, that's your result. If the sum is 6 or bigger, you subtract 6 to get your result.)","response_type":"free","response_choices":[],"correct_response":"1","response":"1","explain":false,"explanation":"","explanation_history":[],"orientation_history":[[0],[4.035261407847697,4.047286293915196,4.056693354143153,4.083592693969257,4.124386376837123,4.178680788745428,4.220970734790463,4.25932298700496,4.25932298700496,4.25932298700496,4.25932298700496,4.25932298700496,4.25932298700496,4.25932298700496,4.25932298700496,4.25932298700496,4.25932298700496,4.25932298700496,4.25932298700496,4.25932298700496,4.25932298700496,4.25932298700496,4.1887902047863905],[4.145659762861183,4.145659762861183,4.145659762861183,4.145659762861183,4.145659762861183,4.145659762861183,4.145659762861183,4.145659762861183,4.145659762861183,4.145659762861183,4.152449183270301,4.226146347297185,4.35508029737659,4.4644341355689985,4.5570247265331565,4.6419176358058944,4.735112341226331,4.813169979469357,4.895110541146787,4.954836003350545,4.994943932854277,5.053367933881039,5.081722638058315,5.1133386057507835,5.158101293013325,5.212550034132372,5.270988295728252,5.3580782694929745,5.441845572548576,5.530562288186214,5.644550340025601,5.8481013560175406,6.0066713605621125,6.154038017051566,0,0.10931853388789992,0.2591020177794101,0.4092458951990334,0.4874526351858759,0.5421894099268785,0.5596815660032786,0.568286848662543,0.5908115849236157,0.6435011087932844,0.6779004893717939,0.6998928697192436,0.6998928697192436,0.7489180042744985,0.8828330146897044,0.9652516631899265,1.0503378773437473,1.069782939991307,1.069782939991307,1.069782939991307,1.069782939991307,1.069782939991307,1.069782939991307,1.069782939991307,1.069782939991307,1.069782939991307,1.069782939991307,1.069782939991307,1.0647213634985553,1.0489620469804861,1.0341081524909712,1.0341081524909712,1.0341081524909712,1.0341081524909712,1.0341081524909712,1.0341081524909712,1.0341081524909712,1.0341081524909712,1.0471975511965976]],"response_history":["1"],"rt":4521,"trial_type":"polygon-arrow-question","trial_index":0,"trial_index_global":17,"time_elapsed":413316,"internal_chunk_id":"0-0.3-0"},{"nsides":6,"feedback":"Correct! 4 <img src=./images/hexagon_symbol.png style=width:14px;height:14px> 3 = 1 because 3 steps clockwise on the hexagon from 4 brings us to 1. Equivalently, 4 + 3 = 7 and 7 - 6 = 1.","orientation_history":[0],"rt":1239,"trial_type":"polygon-arrow-feedback","trial_index":0,"trial_index_global":18,"time_elapsed":414556,"internal_chunk_id":"0-0.3-0"},{"nsides":6,"question":"What is 0 <img src=./images/hexagon_symbol.png style=width:14px;height:14px> 5? <br /><br /> (Remember, to perform <img src=./images/hexagon_symbol.png style=width:14px;height:14px>, you can either use a method based on the hexagon at right, or a method based on  arithme tic.<br /><br /><b>Hexagon method:</b> you can use the interactive diagram on the right, or perform the operation in your mind. Point the arrow at the first number, then move the arrow the second number of points clockwise around the hexagon. The number the arrow arrives at is your result. <br /><br /><b>Arithmetic method:</b> you start with the first number, and then add the second one to it. If the sum is smaller than 6, that's your result. If the sum is 6 or bigger, you subtract 6 to get your result.)","response_type":"free","response_choices":[],"correct_response":"5","response":"5","explain":false,"explanation":"","explanation_history":[],"orientation_history":[[0],[0,0,0,0,0,0,0,0,0,0,0,0,0,0,0.1418970546041638,0.291456794477867,0.5667292175235064,0.883125070756167,1.0612040619859706,1.3065363068815665,1.4722158131560936,1.6359214901292825,1.8643853142036464,2.081284648711672,2.3383392450527922,2.5943082726023565,2.9553698131786517,3.400363545553491,3.792669375034273,4.037648038161137,4.1504674181278745,4.193242866138167,4.22122538209843,4.257873537603294,4.318395945112452,4.41389004879851,4.496048319011399,4.570491925780526,4.6684612133078005,4.78046543864269,4.875629263169527,4.974508821650162,5.049063799771417,5.0906829717261495,5.128200769409318,5.139016473511566,5.154763203361434,5.197423702237225,5.244711491617536,5.28091352811573,5.290714466665106,5.306863985459552,5.306863985459552,5.306863985459552,5.306863985459552,5.306863985459552,5.306863985459552,5.306863985459552,5.306863985459552,5.306863985459552,5.306863985459552,5.306863985459552,5.306863985459552,5.306863985459552,5.235987755982988]],"response_history":["5"],"rt":172820,"trial_type":"polygon-arrow-question","trial_index":0,"trial_index_global":19,"time_elapsed":587377,"internal_chunk_id":"0-0.3-0"},{"nsides":6,"feedback":"Correct! 0 <img src=./images/hexagon_symbol.png style=width:14px;height:14px> 5 = 5 because 5 steps clockwise on the hexagon from 0 brings us to 5. E quivalen tly, 0 + 5 = 5 and 5 is less than 6.","orientation_history":[0],"rt":1561,"trial_type":"polygon-arrow-feedback","trial_index":0,"trial_index_global":20,"time_elapsed":588939,"internal_chunk_id":"0-0.3-0"},{"nsides":6,"question":"What is 2 <img src=./images/hexagon_symbol.png style=width:14px;height:14px> 5? <br /><br /> (Remember, to perform <img src=./images/hexagon_symbol.png style=width:14px;height:14px>, you can either use a method based on the hexagon at right, or a method based on arithmetic.<br /><br /><b>Hexagon method:</b> you can use the interactive diagram on the right, or perform the operation in your mind. Point the arrow at the first number, then move the arrow the second number of points clockwise around the hexagon. The number the arrow arrives at is your result. <br /><br /><b>Arithmetic method:</b> you start with the first number, and then add the second one to it. If the sum is smaller than 6, that's your result. If the sum is 6 or bigger,  you subt ract 6 to get your result.)","response_type":"free","response_choices":[],"correct_response":"1","response":"1","explain":false,"explanation":"","explanation_history":[],"orientation_history":[[0],[-0.012846807948630357,-0.012846807948630357,0.07182032634782498,-6.015456777346665,-5.87167471083755,-5.675744083102165,-5.413387106436821,-5.135875546963159,-4.883976579086054,-4.641048961396663,-4.516332346807806,-4.0739978900059315,-3.981012841550962,-3.8384945403918067,-3.7981012473160245,-3.7873908486950167,-3.7873908486950167,-3.7873908486950167,-3.7873908486950167,-3.7873908486950167,-3.7873908486950167,-3.7873908486950167,-3.7873908486950167,-3.7882821140561713,-3.77898768514737,-3.7928425080811685,-3.804805633711742,-3.7963809246091005,-3.8062311494959684,-3.8062311494959684,-3.8062311494959684,-3.8062311494959684,-3.8062311494959684,-3.8062311494959684,-3.8062311494959684,-3.8062311494959684,-3.8062311494959684,-3.8519269538544014,-3.8799094698146637,-3.8897384341922985,-3.8897384341922985,-3.8997398553972866,-3.918472199196933,-3.977060292964212,-4.006826371651457,-4.036842985077689,-4.036842985077689,-4.0483154646992965,-4.0483154646992965,-4.067058629586684,-4.067058629586684,-4.067058629586684,-4.067058629586684,-4.067058629586684,-4.067058629586684,-4.067058629586684,-4.067058629586684,2.0943951023931953],[2.0943951023931953,2.0943951023931953,2.0943951023931953,2.0943951023931953,2.0943951023931953,2.0943951023931953,2.0943951023931953,2.0943951023931953,2.0943951023931953,2.0587431084058214,2.0407644095250133,2.0407644095250133,2.0407644095250133,2.1779060416122396,2.5976451591582737,3.287589608223008,3.897313167174104,4.128969068745345,4.270383331470336,4.392873816058366,4.413789493476905,4.752867970734446,4.795817110021572,5.025513739031645,5.113433971212553,5.1915530518135835,5.218033029253384,5.3367383663965615,5.377966768842898,5.42659910619151,5.60147065987862,5.670863068201802,5.795691174209873,5.887791573760801,6.051095234818776,6.234630296194169,0.1052032717653495,0.29767276308680723,0.43769327006458525,0.5845976106160243,0.661865287665706,0.7397040028646391,0.7747932410486478,0.7995674364942835,0.7995674364942835,0.8075452589856424,0.8075452589856424,0.8075452589856424,0.8075452589856424,0.8075452589856424,0.8075452589856424,0.8075452589856424,0.8075452589856424,0.8075452589856424,0.8075452589856424,0.8075452589856424,0.8075452589856424,0.8075452589856424,0.8075452589856424,0.8075452589856424,0.8075452589856424,0.8075452589856424,0.8075452589856424,1.0471975511965976]],"response_history":["1"],"rt":5407,"trial_type":"polygon-arrow-question","trial_index":0,"trial_index_global":21,"time_elapsed":594347,"internal_chunk_id":"0-0.3-0"},{"nsides":6,"feedback":"Correct! 2 <img src=./images/hexagon_symbol.png style=width:14px;height:14px> 5 = 1 because 5 steps clockwise on the hexagon from 2 brings us to 1. Equivalently, 2 + 5 = 7 and 7 - 6 = 1.","orientation_history":[0],"rt":2601,"trial_type":"polygon-arro w-feedba ck","trial_index":0,"trial_index_global":22,"time_elapsed":596949,"internal_chunk_id":"0-0.3-0"},{"nsides":6,"instructions":"Now we're going to discuss a couple special properties of this new operation, <img src=./images/hexagon_symbol.png style=width:14px;height:14px> that we've learned. First, notice that the number 0 behaves in a special way under <img src=./images/hexagon_symbol.png style=width:14px;height:14px>. Whenever we combine 0 with anything else, we get that same thing back. We'll say that 0 is the <i>identity</i> under <img src=./images/hexagon_symbol.png style=width:14px;height:14px>, because when you combine it with something it gives you that identical thing back.","orientation_history":[0],"rt":329288,"trial_type":"polygon-arrow-instructions","trial_index":0,"trial_index_global":23,"time_elapsed":926242,"internal_chunk_id":"0-0"},{"nsides":6,"instructions":"Now that we know 0 is the identity under <img src=./images/hexagon_symbol.pn g styl e=width:14px;height:14px>, we're going to make a new definition. We'll say that the <i>inverse</i> of a number is the element that you combine with it to produce the identity. For example, 5 <img src=./images/hexagon_symbol.png style=width:14px;height:14px> 1 = 0, so we say 1 is the inverse of 5 under <img src=./images/hexagon_symbol.png style=width:14px;height:14px>, (remember 0 is the identity under <img src=./images/hexagon_symbol.png style=width:14px;height:14px>). Similarly, 3 is its own inverse under <img src=./images/hexagon_symbol.png style=width:14px;height:14px>, because 3 <img src=./images/hexagon_symbol.png style=width:14px;height:14px> 3 = 0.","orientation_history":[0],"rt":55056,"trial_type":"polygon-arrow-instructions","trial_index":0,"trial_index_global":24,"time_elapsed":981300,"internal_chunk_id":"0-0"},{"nsides":6,"question":"Now you try! What is the inverse of 4 under <img src=./images/hexagon_symbol.png sty le=wid th:14px;height:14px>? <br /><br /> (Remember, the inverse of an element is the thing which you combine with it to produce the identity.)","response_type":"free","response_choices":[],"correct_response":"2","response":"2","explain":false,"explanation":"","explanation_history":[],"orientation_history":[[0],[4.814595698491943,4.645820816608866,4.480285142309534,4.385807545694071,4.329311914847683,4.290137826933417,4.277305029222644,4.2657851753788805,4.2599140908226225,4.2599140908226225,4.2487413713838835,4.243276944899396,4.227354258532154,4.197504203980465,4.183507429631565,4.175700806080764,4.166403674878952,4.166403674878952,4.166403674878952,4.166403674878952,4.166403674878952,4.166403674878952,4.166403674878952,4.166403674878952,4.166403674878952,4.166403674878952,4.166403674878952,4.166403674878952,4.166403674878952,4.166403674878952,4.1887902047863905],[4.078963097415546,4.078963097415546,4.078963097415546,4.078963097415546,4.078963097415546,4.078963097415546,4.078963097415546,4.078963097415546,4.078963097415546,4.078963097415546,4.078963097415546,4.078963097415546,4.078963097415546,4.078963097415546,4.078963097415546,4.078963097415546,4.1068443167797195,4.189985548668162,4.242789060729292,4.272546397568954,4.296896884443799,4.334420668888416,4.3906384259880475,4.443685955749519,4.501295647161943,4.556520778986368,4.642082516266065,4.740952638223449,4.842091517540602,4.9434796475805864,5.038747797091452,5.156171653134331,5.267882715650233,5.329190204172708,5.456993460914273,5.557715298903346,5.6257962024553345,5.691409136638083,5.759005678396672,5.871513963747692,5.933329705322488,5.977306435774734,6.0115857154195105,6.0527828711207246,6.092750191766032,6.133158350395478,6.1574158864190585,6.170034325589102,6.170034325589102,6.170034325589102,6.170034325589102,6.170034325589102,6.170034325589102,6.170034325589102,6.170034325589102,6.170034325589102,6.170034325589102,6.170034325589102,6.170034325589102,6.170034325589102,6.170034325589102,6.170034325589102,6.170034325589102,6.170034325589102,6.170034325589102,6.170034325589102,6.170034325589102,6.170034325589102,6.170034325589102,6.1812669396987125,6.216617143403762,6.250230209565288,6.2614496003377935,0.010869137177270227,0.031904064485022365,0.053141408844935345,0.053141408844935345,0.053141408844935345,0.053141408844935345,0.053141408844935345,0.053141408844935345,0]],"response_history":["2"],"rt":45877,"trial_type":"polygon-arrow-question","trial_index":0,"trial_index_global":25,"time_elapsed":1027179,"internal_chunk_id":"0-0.7-0"},{"nsides":6,"feedback":"Correct! The inverse of 4 under <img src=./images/hexagon_symbol.png style=width:14px;height:14px> is 2 because 4 <img src=./images/hexagon_symbol.png style=width:14px;height:14px> 2 = 0, and 0 is the identity under <img src=./images/hexagon_symbol.png style=width:14px;height:14px>.","orientation_history":[0],"rt":1005,"trial_type":"polygon-arrow-feedback","trial_index":0,"trial_index_global":26,"time_elapsed":1028186,"internal_chunk_id":"0-0.7-0"},{"nsides":6,"question":"What is the inverse of 1 under <img src=./images/hexagon_symbol.png style=width:14px;height:14px>? <br /><br /> (Remember, the inverse of an element is the thing which you combine with it to produce the identity.)","response_type":"free","response_choices":[],"correct_response":"5","response":"5","explain":false,"explanation":"","explanation_history":[],"orientation_history":[[0],[0.39345063792893553,0.39345063792893553,0.39345063792893553,0.39345063792893553,0.4324077755705378,0.5785242144177052,0.6773864386974019,0.7621465405869854,0.8740540452648857,0.9700825434839028,1.0201207758826454,1.0480072414144943,1.0608242670934835,1.0608242670934835,1.0608242670934835,1.0608242670934835,1.0608242670934835,1.0608242670934835,1.0608242670934835,1.0608242670934835,1.0608242670934835,1.0608242670934835,1.0608242670934835,1.0608242670934835,1.0608242670934835,1.0608242670934835,1.0608242670934835,1.0608242670934835,1.0608242670934835,1.0471975511965976]],"response_history":["5"],"rt":5151,"trial_type":"polygon-arrow-question","trial_index":0,"trial_index_global":27,"time_elapsed":1033339,"internal_chunk_id":"0-0.7-0"},{"nsides":6,"feedback":"Correct! The inverse of 1 under <img src=./images/hexagon_symbol.png style=width:14px;height:14px> is 5 because 1 <img src=./images/hexagon_symbol.png style=width:14px;height:14px> 5 = 0, and 0 is the identity under <img src=./images/hexagon_symbol.png style=width:14px;height:14px>.","orientation_history":[0],"rt":710,"trial_type":"polygon-arrow-feedback","trial_index":0,"trial_index_global":28,"time_elapsed":1034050,"internal_chunk_id":"0-0.7-0"},{"nsides":6,"question":"What is the inverse of 3 under <img src=./images/hexagon_symbol.png style=width:14px;height:14px>? <br /><br /> (Remember, the inverse of an element is the thing which you combine with it to produce the identity.)","response_type":"free","response_choices":[],"correct_response":"3","response":"3","explain":false,"explanation":"","explanation_history":[],"orientation_history":[[0]],"response_history":["3"],"rt":1756,"trial_type":"polygon-arrow-question","trial_index":0,"trial_index_global":29,"time_elapsed":1035806,"internal_chunk_id":"0-0.7-0"},{"nsides":6,"feedback":"Correct! The inverse of 3 under <img src=./images/hexagon_symbol.png style=width:14px;height:14px> is 3 because 3 <img src=./images/hexagon_symbol.png style=width:14px;height:14px> 3 = 0, and 0 is the identity under <img src=./images/hexagon_symbol.png style=width:14px;height:14px>.","orientation_history":[0],"rt":703,"trial_type":"polygon-arrow-feedback","trial_index":0,"trial_index_global":30,"time_elapsed":1036510,"internal_chunk_id":"0-0.7-0"},{"nsides":6,"question":"What is the inverse of 2 under <img src=./images/hexagon_symbol.png style=width:14px;height:14px>? <br /><br /> (Remember, the inverse of an element is the thing  which yo u combine with it to produce the identity.)","response_type":"free","response_choices":[],"correct_response":"4","response":"4","explain":false,"explanation":"","explanation_history":[],"orientation_history":[[0]],"response_history":["4"],"rt":2985,"trial_type":"polygon-arrow-question","trial_index":0,"trial_index_global":31,"time_elapsed":1039496,"internal_chunk_id":"0-0.7-0"},{"nsides":6,"feedback":"Correct! The inverse of 2 under <img src=./images/hexagon_symbol.png style=width:14px;height:14px> is 4 because 2 <img src=./images/hexagon_symbol.png style=width:14px;height:14px> 4 = 0, and 0 is the identity under <img src=./images/hexagon_symbol.png style=width:14px;height:14px>.","orientation_history":[0],"rt":758,"trial_type":"polygon-arrow-feedback","trial_index":0,"trial_index_global":32,"time_elapsed":1040255,"internal_chunk_id":"0-0.7-0"},{"nsides":6,"question":"What is the inverse of 0 under <img src=./images/hexagon_symbol.png style=widt h:14px;h eight:14px>? <br /><br /> (Remember, the inverse of an element is the thing which you combine with it to produce the identity.)","response_type":"free","response_choices":[],"correct_response":"0","response":"6","explain":false,"explanation":"","explanation_history":[],"orientation_history":[[0],[0,0,0,0.0398226857517443,-6.09417529500898,-5.828461748767768,-5.564928514177135,-5.2278730324563005,-4.98255833170587,-4.807097929004427,-4.717941674452126,-4.496434565480191,-4.230672232254858,-3.6432467736989995,-2.7974004114107665,-2.5304558116195786,-2.4500069800652233,-2.412163141148602,-2.3507878090347853,-2.1242342710349824,-1.8705407545295563,-1.7024029398105736,-1.5543113816625649,-1.3478094377731917,-1.188471769867851,-0.986179312592645,-0.8047857121341648,-0.6249649709435374,-0.48464510056013665,-0.3590779694247219,-0.2595369719109195,-0.18356895052813282,-0.14007887478948433,-0.10139193037783478,-0.07218970781905387,-0.04329651824939518,-0.023942991141095327,-0.023942991141095327,-0.023942991141095327,-0.023942991141095327,-0.023942991141095327,-0.023942991141095327,-0.023942991141095327,-0.023942991141095327,-0.023942991141095327,-0.023942991141095327,-0.023942991141095327,6.283185307179586]],"response_history":["6"],"rt":4543,"trial_type":"polygon-arrow-question","trial_index":0,"trial_index_global":33,"time_elapsed":1044799,"internal_chunk_id":"0-0.7-0"},{"nsides":6,"feedback":"Sorry, that was incorrect. The inverse of 0 under <img src=./images/hexagon_symbol.png style=width:14px;height:14px> is 0 because 0 <img src=./images/hexagon_symbol.png style=width:14px;height:14px> 0 = 0, and 0 is the identity under <img src=./images/hexagon_symbol.png style=width:14px;height:14px>.","orientation_history":[0],"rt":3430,"trial_type":"polygon-arrow-feedback","trial_index":0,"trial_index_global":34,"time_elapsed":1048230,"internal_chunk_id":"0-0.7-0"},{"nsides":6,"instructions":"It is also possible to successively apply <img src=./image s/hexagon_symbol.png style=width:14px;height:14px>, and the operation can simply be performed starting with the left-most pair. For example, 2 <img src=./images/hexagon_symbol.png style=width:14px;height:14px> 3 <img src=./images/hexagon_symbol.png style=width:14px;height:14px> 4 = 5 <img src=./images/hexagon_symbol.png style=width:14px;height:14px> 4 = 3.","orientation_history":[0,[0.835356559119391,0.835356559119391,0.835356559119391,0.835356559119391,0.835356559119391,0.9928943898326509,1.2160906747839562,1.4157995848709555,1.6456561745056635,1.7916250965242448,1.902855794337782,1.946067149650854,1.9705774250376933,1.9902737885502575,1.996418795134528,1.996418795134528,1.996418795134528,1.996418795134528,1.996418795134528,1.996418795134528,1.996418795134528,1.996418795134528,1.996418795134528,1.996418795134528,1.996418795134528,1.996418795134528,1.996418795134528,1.996418795134528,1.996418795134528,1.996418795134528,1.996418795134528,1.996418795134528,1.996418795134528,2.0943951023931953],[1.996418795134528,1.996418795134528,1.996418795134528,1.996418795134528,1.996418795134528,1.996418795134528,1.996418795134528,1.996418795134528,1.996418795134528,1.996418795134528,1.996418795134528,1.996418795134528,1.996418795134528,1.996418795134528,2.0074234866084377,2.0454932098750715,2.068139043141719,2.0867218402601813,2.1112158270654806,2.1550676043758052,2.1702488116366343,2.1975392280059434,2.225628395392717,2.2343520531724277,2.2545056384292677,2.2655346029915995,2.2655346029915995,2.2655346029915995,2.2655346029915995,2.2655346029915995,2.2655346029915995,2.2655346029915995,2.3046936792411192,2.3353641701561276,2.3774678762164063,2.4099062194955776,2.4917222041778455,2.5899376710612465,2.692869309579072,2.761086276477428,2.8418165834898135,2.9173579024806973,3.0045264792796056,3.0907889495315715,3.1915510493117356,3.2880768319833544,3.4092089583745553,3.532997781715004,3.635534022509374,3.7400115470683306,3.8088987885681473,3.870141569654404,3.9582306504175095,4.054121012549965,4.171969480114106,4.279299541661383,4.372568103961823,4.458381217258096,4.507747170554912,4.557672115307625,4.585796853104718,4.603727764544102,4.612720327893528,4.612720327893528,4.612720327893528,4.612720327893528,4.612720327893528,4.612720327893528,4.612720327893528,4.612720327893528,4.612720327893528,4.612720327893528,4.612720327893528,4.612720327893528,4.612720327893528,4.63844994272675,4.702773892084988,4.7717251860880605,4.879244140784479,4.924216527866108,5.054684588814732,5.09889528549861,5.132794331587432,5.156808190285789,5.171205709091519,5.190389670659316,5.204874746256614,5.22361969266248,5.2381575143738806,5.247344054170786,5.247344054170786,5.247344054170786,5.247344054170786,5.276657169242622,5.29146324975242,5.29146324975242,5.29146324975242,5.29146324975242,5.29146324975242,5.29146324975242,5.29146324975242,5.29146324975242,5.29146324975242,5.29146324975242,5.29146324975242,5.29146324975242,5.29146324975242,5.29146324975242,5.29146324975242,5.29146324975242,5.29146324975242,5.29146324975242,5.29146324975242,5.29146324975242,5.29146324975242,5.29146324975242,5.29146324975242,5.29146324975242,5.29146324975242,5.29146324975242,5.29146324975242,5.29146324975242,5.29146324975242,5.29146324975242,5.29146324975242,5.29146324975242,5.29146324975242,5.29146324975242,5.29146324975242,5.29146324975242,5.29146324975242,5.29146324975242,5.29146324975242,5.29146324975242,5.29146324975242,5.29146324975242,5.29146324975242,5.235987755982988],[5.176036589385496,5.176036589385496,5.176036589385496,5.176036589385496,5.176036589385496,5.176036589385496,5.176036589385496,5.176036589385496,5.176036589385496,5.176036589385496,5.1958359819518884,5.2216901243867015,5.23878134461111,5.267181207522585,5.273552392673041,5.296990236505016,5.321078287712101,5.335588310318755,5.350708788393735,5.368876372098146,5.3768843794794465,5.3768843794794465,5.393405990831807,5.410629869227854,5.439031321066415,5.457808456658848,5.497787143782138,5.5503702053930795,5.633314857767639,5.766153354688045,5.9328710949441845,6.133372850606689,0,0.144441578374644,0.28309578529949553,0.4266274931268761,0.5269432271894297,0.6168012237880186,0.6857295109062862,0.7277697359199743,0.7573681234376018,0.7762241088523383,0.7853981633974483,0.7853981633974483,0.7853981633974483,0.7853981633974483,0.7853981633974483,0.8032534085370008,0.8472660092618283,0.8634998411174336,0.8884797719201485,0.8884797719201485,0.8884797719201485,0.8884797719201485,0.8884797719201485,0.8884797719201485,0.8884797719201485,0.9055068989643611,0.9491364045118075,0.982793723247329,1.016004099657001,1.0324218134486665,1.0324218134486665,1.0324218134486665,1.0324218134486665,1.0324218134486665,1.0324218134486665,1.0324218134486665,1.0324218134486665,1.0324218134486665,1.0324218134486665,1.0324218134486665,1.0324218134486665,1.0487047129666092,1.0963964440029892,1.1659045405098132,1.2301800863765835,1.2679114584199251,1.3200870673734877,1.3572358933144084,1.392003271991975,1.4420998255168824,1.5011417530663285,1.5937807842363487,1.6965657475554243,1.7526720685223505,1.8506134353181398,1.9347752833045406,2.044393856188508,2.1650100305953304,2.2993452428595074,2.4206213296178984,2.556715039869759,2.6483969966870933,2.740968266720471,2.816475108549643,2.866166549893758,2.894138747993315,2.916315874375738,2.918561685218235,2.928388134200339,2.928388134200339,2.9402755452151523,2.9422553486074694,2.9422553486074694,2.9422553486074694,2.9422553486074694,2.9422553486074694,2.961739153797315,2.9844823882428324,3.014825118488431,3.014825118488431,3.0256106691094686,3.035199798890889,3.064820762320015,3.0940095503128098,3.1132983197412893,3.1132983197412893,3.1132983197412893,3.1132983197412893,3.1227269675681226,3.1508516482519164,3.178273441346445,3.196084109830524,3.205143325015251,3.205143325015251,3.205143325015251,3.205143325015251,3.205143325015251,3.205143325015251,3.205143325015251,3.205143325015251,3.205143325015251,3.205143325015251,3.205143325015251,3.205143325015251,3.205143325015251,3.205143325015251,3.205143325015251,3.205143325015251,3.205143325015251,3.205143325015251,3.205143325015251,3.205143325015251,3.205143325015251,3.205143325015251,3.205143325015251,3.205143325015251,3.205143325015251,3.205143325015251,3.205143325015251,3.205143325015251,3.205143325015251,3.205143325015251,3.205143325015251,3.205143325015251,3.205143325015251,3.205143325015251,3.205143325015251,3.205143325015251,3.205143325015251,3.205143325015251,3.205143325015251,3.205143325015251,3.205143325015251,3.205143325015251,3.205143325015251,3.205143325015251,3.205143325015251,3.205143325015251,3.205143325015251,3.205143325015251,3.205143325015251,3.205143325015251,3.205143325015251,3.205143325015251,3.205143325015251,3.205143325015251,3.205143325015251,3.205143325015251,3.205143325015251,3.205143325015251,3.205143325015251,3.205143325015251,3.205143325015251,3.205143325015251,3.141592653589793]],"rt":27858,"trial_type":"polygo n-arrow- instructions","trial_index":0,"trial_index_global":35,"time_elapsed":1076090,"internal_chunk_id":"0-0"},{"nsides":6,"instructions":"We have one last definition to learn today, using the successive operations we just learned. Let's start with an example. Under our operation <img src=./images/hexagon_symbol.png style=width:14px;height:14px> we can make every other number using just 1: 2 = 1 <img src=./images/hexagon_symbol.png style=width:14px;height:14px> 1, 3 = 1 <img src=./images/hexagon_symbol.png style=width:14px;height:14px> 1 <img src=./images/hexagon_symbol.png style=width:14px;height:14px> 1, 4 = 1 <img src=./images/hexagon_symbol.png style=width:14px;height:14px> 1 <img src=./images/hexagon_symbol.png style=width:14px;height:14px> 1 <img src=./images/hexagon_symbol.png style=width:14px;height:14px> 1, 5 = 1 <img src=./images/hexagon_symbol.png style=width:14px;height:14px> 1 <img src=./images/hexagon_s ymbol.pn g style=width:14px;height:14px> 1 <img src=./images/hexagon_symbol.png style=width:14px;height:14px> 1 <img src=./images/hexagon_symbol.png style=width:14px;height:14px> 1, and 0 = 1 <img src=./images/hexagon_symbol.png style=width:14px;height:14px> 1 <img src=./images/hexagon_symbol.png style=width:14px;height:14px> 1 <img src=./images/hexagon_symbol.png style=width:14px;height:14px> 1 <img src=./images/hexagon_symbol.png style=width:14px;height:14px> 1 <img src=./images/hexagon_symbol.png style=width:14px;height:14px> 1. Because 1 can make every other element under <img src=./images/hexagon_symbol.png style=width:14px;height:14px>, we say that 1 is a <i>generator</i> under <img src=./images/hexagon_symbol.png style=width:14px;height:14px>. <br /><br /> However, 2 is not a generator under <img src=./images/hexagon_symbol.png style=width:14px;height:14px>, because 4 = 2 <img src=./images/ hexagon_ symbol.png style=width:14px;height:14px> 2, and 0 = 2 <img src=./images/hexagon_symbol.png style=width:14px;height:14px> 2 <img src=./images/hexagon_symbol.png style=width:14px;height:14px> 2, but there is no way to make 1, 3, or 5 using just 2.","orientation_history":[0],"rt":773418,"trial_type":"polygon-arrow-instructions","trial_index":0,"trial_index_global":36,"time_elapsed":1849509,"internal_chunk_id":"0-0"},{"nsides":6,"question":"Now you try! Is 3 a generator under <img src=./images/hexagon_symbol.png style=width:14px;height:14px>? <br /><br /> (Remember, a generator is an element which can make every other element.)","response_type":"multi","response_choices":["Yes","No"],"correct_response":"No","response":"No","explain":false,"explanation":"","explanation_history":[],"orientation_history":[[0]],"response_history":["No"],"rt":4452,"trial_type":"polygon-arrow-question","trial_index":0,"trial_index_global":37,"time_elapsed":1853967,"internal_chunk_id":"0-0.10-0"},{"nsides":6,"feedback":"Correct! 3 is not a generator under <img src=./images/hexagon_symbol.png style=width:14px;height:14px>, because 3 = 3, 0 = 3 <img src=./images/hexagon_symbol.png style=width:14px;height:14px> 3, but there is no way to make 1, 2, 4, or 5 using just 3.","orientation_history":[0],"rt":1080,"trial_type":"polygon-arrow-feedback","trial_index":0,"trial_index_global":38,"time_elapsed":1855051,"internal_chunk_id":"0-0.10-0"},{"nsides":6,"question":"Is 5 a generator under <img src=./images/hexagon_symbol.png style=width:14px;height:14px>? <br /><br /> (Remember, a generator is an element which can make every other element.)","response_type":"multi","response_choices":["Yes","No"],"correct_response":"Yes","response":"No","explain":false,"explanation":"","explanation_history":[],"orientation_history":[[0]],"response_history":["No"],"rt":2139,"trial_type":"polygon-arrow-question","trial_index":0,"trial_index_global":39,"time_elapsed":1857191,"internal_chunk_id":"0-0.10-0"},{"nsides":6,"feedback":"Sorry, that's incorrect. 5 is a generator under <img src=./images/hexagon_symbol.png style=width:14px;height:14px>, because 5 = 5, 4 = 5 <img src=./images/hexagon_symbol.png style=width:14px;height:14px> 5, 3 = 5 <img src=./images/hexagon_symbol.png style=width:14px;height:14px> 5 <img src=./images/hexagon_symbol.png style=width:14px;height:14px> 5, 2 = 5 <img src=./images/hexagon_symbol.png style=width:14px;height:14px> 5 <img src=./images/hexagon_symbol.png style=width:14px;height:14px> 5 <img src=./images/hexagon_symbol.png style=width:14px;height:14px> 5, 1 = 5 <img src=./images/hexagon_symbol.png style=width:14px;height:14px> 5 <img src=./images/hexagon_symbol.png style=width:14px;height:14px> 5 <img src=./images/hexagon_symbol.png style=width:14px;height:14px> 5 <img src=./images/hexagon_symbol.png style=width:14px;he ight:14p x> 5, and 0 = 5 <img src=./images/hexagon_symbol.png style=width:14px;height:14px> 5 <img src=./images/hexagon_symbol.png style=width:14px;height:14px> 5 <img src=./images/hexagon_symbol.png style=width:14px;height:14px> 5 <img src=./images/hexagon_symbol.png style=width:14px;height:14px> 5 <img src=./images/hexagon_symbol.png style=width:14px;height:14px> 5, so you can make all of the numbers under <img src=./images/hexagon_symbol.png style=width:14px;height:14px> using 5","orientation_history":[0],"rt":4902,"trial_type":"polygon-arrow-feedback","trial_index":0,"trial_index_global":40,"time_elapsed":1862093,"internal_chunk_id":"0-0.10-0"},{"nsides":6,"question":"Is 4 a generator under <img src=./images/hexagon_symbol.png style=width:14px;height:14px>? <br /><br /> (Remember, a generator is an element which can make every other element.)","response_type":"multi","response_choices":["Yes","No"],"correct_response":"No","response":"No","explain":false,"explanation":"","explanation_history":[],"orientation_history":[[0]],"response_history":["No"],"rt":6214,"trial_type":"polygon-arrow-question","trial_index":0,"trial_index_global":41,"time_elapsed":1868309,"internal_chunk_id":"0-0.10-0"},{"nsides":6,"feedback":"Correct! 4 is not a generator under <img src=./images/hexagon_symbol.png style=width:14px;height:14px>, because 4 = 4, 2 = 4 <img src=./images/hexagon_symbol.png style=width:14px;height:14px> 4, and 0 = 4 <img src=./images/hexagon_symbol.png style=width:14px;height:14px> 4 <img src=./images/hexagon_symbol.png style=width:14px;height:14px> 4, but there is no way to make 1, 3, or 5 using just 4.","orientation_history":[0],"rt":964,"trial_type":"polygon-arrow-feedback","trial_index":0,"trial_index_global":42,"time_elapsed":1869274,"internal_chunk_id":"0-0.10-0"},{"nsides":6,"question":"Is 0 a generator under <img src=./images/hexagon_symbol.png style=width:14 px;heigh t:14px>? <br /><br /> (Remember, a generator is an element which can make every other element.)","response_type":"multi","response_choices":["Yes","No"],"correct_response":"No","response":"No","explain":false,"explanation":"","explanation_history":[],"orientation_history":[[0]],"response_history":["No"],"rt":3863,"trial_type":"polygon-arrow-question","trial_index":0,"trial_index_global":43,"time_elapsed":1873138,"internal_chunk_id":"0-0.10-0"},{"nsides":6,"feedback":"Correct! 0 is not a generator under <img src=./images/hexagon_symbol.png style=width:14px;height:14px>, because 0 = 0, but there is no way to make 1, 2, 3, 4, or 5 using just 0.","orientation_history":[0],"rt":969,"trial_type":"polygon-arrow-feedback","trial_index":0,"trial_index_global":44,"time_elapsed":1874109,"internal_chunk_id":"0-0.10-0"},{"nsides":9,"instructions":"Now we are going to ask you some questions about a new operation, <img src=./images/nonagon_symbol.png style=width:14px;height :14px> , on the numbers 0, 1, 2, 3, 4, 5, 6, 7, 8. It works exactly like <img src=./images/hexagon_symbol.png style=width:14px;height:14px>, except now you use the nonagon shown at the right. Equivalently, after adding the two numbers you subtract 9 if your result is 9 or greater.<br /><br />Do you see how the different ways of performing <img src=./images/nonagon_symbol.png style=width:14px;height:14px> give the same result, just like with <img src=./images/hexagon_symbol.png style=width:14px;height:14px>? By labeling the points of the nonagon with the numbers from 0 to 8, we ensure that when we combine two numbers under <img src=./images/nonagon_symbol.png style=width:14px;height:14px>, we only produce numbers between 0 and 8. When we use the arithmetic strategy, adding the second number to the first mimics counting around the nonagon, and subtracting 9 each time we get above 8 makes sure the results correspond to the numbers on the points of the n onagon.< br /><br />We'll give you one practice question with feedback to make sure you understand the new operation. After that, try to complete the remaining questions as accurately as possible.","orientation_history":[0,[0,0,0,0,0,0.06258323205094718,0.1820121580692855,0.30090272613155933,0.39187244629425155,0.48990678631879936,0.5937800638801772,0.7422441250234321,0.911911816221017,1.0829159894972376,1.1855068575577437,1.2514119856741568,1.2971607052032625,1.3580173651644207,1.4159728679229637,1.5046092209560797,1.5718048993223066,1.6358839362797624,1.6817210420775417,1.7256248502997757,1.7967684155897052,1.881771741721064,1.9225867588325205,2.012887772910327,2.0612042406087046,2.129079593182462,2.1860942233346847,2.242034496344087,2.288228026800808,2.3321156553999707,2.3664464969334276,2.4253548439247474,2.466200208753266,2.5154832874199897,2.5737903274888527,2.631483569324949,2.703355325676257,2.768759584733232,2.8079922516104174,2.9463557520167196,3.003237382244901,3.0932541541948995,3.1370783889864677,3.169193511676969,3.2013364077199604,3.2333245751614292,3.2650942673294105,3.317393711406212,3.397156102147618,3.478666874635902,3.589856860810004,3.7267503831882056,3.9196072445465333,4.118290633690895,4.273137968074315,4.396085344243669,4.51232119851764,4.612103785154372,4.707314491750338,4.778457622909966,4.837488206994492,4.882951257159805,4.939653243621832,4.976612426407139,5.02474408538465,5.063502364455352,5.118125652985117,5.169127561007871,5.224396500137588,5.282320016583774,5.34845880605488,5.424497536753435,5.489922397313847,5.567469281970188,5.624300796605707,5.701947578290931,5.762940533739864,5.819859811229324,5.87848518356585,5.927185664980677,5.972864846550184,6.007987535553153,6.043778258361067,6.065480277020687,6.087948405606513,6.10054796793673,6.10054796793673,6.10054796793673,6.10054796793673,6.10054796793673,6.10054796793673,6.10054796793673,6.10054796793673,6.10054796793673,6.10054796793673,6.10054796793673,6.10054796793673,6.10054796793673,6.10054796793673,6.136974509324934,6.201233741623167,6.240411496924128,6.254104132026125,6.254104132026125,6.254104132026125,6.254104132026125,6.254104132026125,6.254104132026125,6.254104132026125,6.254104132026125,6.254104132026125,6.254104132026125,6.254104132026125,6.254104132026125,6.254104132026125,6.254104132026125,6.254104132026125,6.254104132026125,6.254104132026125,6.254104132026125,6.254104132026125,6.254104132026125,6.254104132026125,6.254104132026125,6.254104132026125,6.283185307179586]],"rt":40617,"trial_type":"polygon-arrow-instructions","trial_index":0,"trial_index_global":45,"time_elapsed":1914728,"internal_chunk_id":"0-0"},{"nsides":9,"question":"Practice: What is 5 <img src=./images/nonagon_symbol.png style=width:14px;height:14px> 5?","response_type":"free","response_choices":[],"correct_response":"1","response":"1","explain":false,"explanation":"","explanation_history":[],"orientation_history":[[0],[0,0,0,0,0,6.265643247122184,6.219441994646899,6.169393300035878,6.059708706038953,5.622142138328899,4.2487413713838835,3.846086717832011,3.7083218711132995,3.6528233658675826,3.590315997600514,3.557084749530684,3.5264563016014554,3.5119160832925678,3.5065057527515866,3.4955900904216892,3.4945830414167034,3.487878161049171,3.4814135300126594,3.4782674729765204,3.4782674729765204,3.4751769750895862,3.4751769750895862,3.4751769750895862,3.4751769750895862,3.4751769750895862,3.4751769750895862,3.4751769750895862,3.4751769750895862,3.4751769750895862,3.4751769750895862,3.4751769750895862,3.4751769750895862,3.4751769750895862,3.4751769750895862,3.4751769750895862,3.4751769750895862,3.4751769750895862,3.4751769750895862,3.490658503988659],[3.490658503988659,3.490658503988659,3.490658503988659,3.490658503988659,3.490658503988659,3.490658503988659,3.490658503988659,3.490658503988659,3.490658503988659,3.5233182512697825,3.620525253743675,3.713354582619723,3.80587320373937,3.8750694823579526,3.9694470793062284,4.02151491365384,4.046407451685274,4.053049665525339,4.053049665525339,4.070542975729747,4.110865550553774,4.133118208339228,4.133118208339228,4.133118208339228,4.133118208339228,4.133118208339228,4.133118208339228,4.133118208339228,4.133118208339228,4.133118208339228,4.133118208339228,4.133118208339228,4.133118208339228,4.133118208339228,4.133118208339228,4.133118208339228,4.133118208339228,4.133118208339228,4.133118208339228,4.133118208339228,4.133118208339228,4.133118208339228,4.133118208339228,4.1993238416683045,4.273473361326927,4.361628924851683,4.515467529775679,4.6036164189810425,4.688524565388384,4.734854760783286,4.758373167067923,4.7564200445514455,4.7564200445514455,4.7564200445514455,4.7564200445514455,4.7564200445514455,4.7564200445514455,4.7564200445514455,4.7564200445514455,4.7564200445514455,4.7564200445514455,4.7564200445514455,4.7564200445514455,4.7564200445514455,4.7564200445514455,4.7564200445514455,4.7564200445514455,4.7564200445514455,4.7564200445514455,4.7564200445514455,4.7564200445514455,4.7564200445514455,4.83908288387552,4.9390383549938335,5.054918976137625,5.141437147489999,5.216756407376048,5.259103956396622,5.307014956805698,5.330548414519756,5.338520109663284,5.338520109663284,5.338520109663284,5.338520109663284,5.353772769312883,5.38430297005176,5.399566291755651,5.407429056604736,5.407429056604736,5.407429056604736,5.407429056604736,5.407429056604736,5.407429056604736,5.407429056604736,5.407429056604736,5.407429056604736,5.407429056604736,5.407429056604736,5.407429056604736,5.407429056604736,5.407429056604736,5.407429056604736,5.407429056604736,5.520958925072009,5.7159621449883105,5.861590525559134,5.98583299619504,6.095499530155891,-0.12111761324787151,-0.08267502322668352,-0.045313775886732355,-0.03274082710302273,-0.021448960756709656,0.003237381298889952,0.003237381298889952,0.015525549243215586,0.015525549243215586,0.015525549243215586,0.015525549243215586,0.015525549243215586,0.015525549243215586,0.015525549243215586,0.015525549243215586,0.015525549243215586,0.015525549243215586,0.015525549243215586,0.015525549243215586,0.015525549243215586,0.015525549243215586,0.015525549243215586,0.015525549243215586,0.015525549243215586,0.07871103182511874,0.21258456328967879,0.33688033834935016,0.4321767120744211,0.49769715348981336,0.5345780129936646,0.5611989416268766,0.5875086588797986,0.6045227237611792,0.6303952202454591,0.6726837136972237,0.7220673809205144,0.7534741627413098,0.7607543253321637,0.7695806797136249,0.7695806797136249,0.7695806797136249,0.7695806797136249,0.7695806797136249,0.7695806797136249,0.7695806797136249,0.7695806797136249,0.7695806797136249,0.7695806797136249,0.7695806797136249,0.7695806797136249,0.7695806797136249,0.7695806797136249,0.7695806797136249,0.7695806797136249,0.7695806797136249,0.7695806797136249,0.7695806797136249,0.7695806797136249,0.7695806797136249,0.7695806797136249,0.7695806797136249,0.6981317007977318]],"response_history":["1"],"rt":9531,"trial_type":"polygon-arrow-question","trial_index":0,"trial_index_global":46,"time_elapsed":1924261,"internal_chunk_id":"0-0.12-0"},{"nsides":9,"feedback":"Correct! 5 <img src=./images/nonagon_symbol.png style=width:14px;height:14px> 5 = 1 because 5 steps clockwise on the nonagon from 5 brings us to 1. Equivalently, 5 + 5 = 10 and 10 - 9 = 1.","orientation_history":[0],"rt":819,"trial_type":"polygon-arrow-feedback","trial_index":0,"trial_index_global":47,"time_elapsed":1925082,"internal_chunk_id":"0-0.12-0"},{"nsides":9,"question":"What is 3 <img src=./images/nonagon_symbol.png style=width:14px;height:14px> 3?","response_type":"free","response_choices":[],"correct_response":"6","response":"6","explain":false,"explanation":"","explanation_history":[],"orientation_history":[[0],[5.9882482483307795,5.9882482483307795,5.9882482483307795,5.9882482483307795,5.9882482483307795,6.0144822825444155,6.115289383929212,0.4048917862850834,1.217805938967986,1.6233793884058383,1.7681918866447772,1.8391625377008034,1.8890133269936773,1.9295669970654687,1.9663674775377031,1.9860236623501282,2.0217327560322764,2.0344439357957027,2.038559138902814,2.038559138902814,2.038559138902814,2.038559138902814,2.038559138902814,2.038559138902814,2.038559138902814,2.038559138902814,2.038559138902814,2.038559138902814,2.038559138902814,2.038559138902814,2.038559138902814,2.038559138902814,2.038559138902814,2.038559138902814,2.0943951023931953],[2.1025203940537023,2.1025203940537023,2.1025203940537023,2.1025203940537023,2.1025203940537023,2.1025203940537023,2.1025203940537023,2.1025203940537023,2.129395642138459,2.217309474672132,2.4087775518032863,2.896613990462929,3.5782198134033347,3.8954223604994636,4.037648038161137,4.103431360748182,4.138084150209988,4.165600139495442,4.194320451927968,4.219010357607168,4.241624053842674,4.252225677841025,4.255661676134125,4.259050284530127,4.259050284530127,4.259050284530127,4.259050284530127,4.259050284530127,4.259050284530127,4.259050284530127,4.259050284530127,4.259050284530127,4.259050284530127,4.259050284530127,4.259050284530127,4.259050284530127,4.259050284530127,4.259050284530127,4.259050284530127,4.259050284530127,4.259050284530127,4.259050284530127,4.1887902047863905]],"response_history":["6"],"rt":5281,"trial_type":"polygon-arrow-question","trial_index":0,"trial_index_global":48,"time_elapsed":1930364,"internal_chunk_id":"0-0.12-0"},{"nsides":9,"question":"What is 7 <img src=./images/nonagon_symbol.png style=width:14px;height:14px> 4?","response_type":"free","response_choices":[],"correct_response":"2","response":"2","explain":false,"explanation":"","explanation_history":[],"orientation_history":[[0],[5.870774865582199,5.870774865582199,5.870774865582199,5.870774865582199,5.870774865582199,5.8030102775760595,5.613546361502948,5.439031321066415,5.338435502878221,5.231535094631212,5.139016473511566,5.064433294700107,5.022444161615643,4.996907464692686,4.985744303908126,4.985744303908126,4.985744303908126,4.985744303908126,4.985744303908126,4.98333583072311,4.963833070662707,4.932003105561289,4.923482313607436,4.923482313607436,4.923482313607436,4.923482313607436,4.923482313607436,4.923482313607436,4.923482313607436,4.923482313607436,4.923482313607436,4.923482313607436,4.923482313607436,4.923482313607436,4.923482313607436,4.923482313607436,4.923482313607436,4.923482313607436,4.923482313607436,4.886921905584122],[4.886921905584122,4.886921905584122,4.886921905584122,4.886921905584122,4.886921905584122,4.886921905584122,4.886921905584122,4.886921905584122,4.886921905584122,4.886921905584122,4.886921905584122,4.886921905584122,4.886921905584122,4.886921905584122,4.886921905584122,4.886921905584122,4.886921905584122,4.886921905584122,4.886921905584122,4.886921905584122,4.886921905584122,4.886921905584122,4.886921905584122,4.886921905584122,4.886921905584122,4.886921905584122,4.886921905584122,4.886921905584122,4.886921905584122,4.886921905584122,4.886921905584122,4.886921905584122,4.886921905584122,4.886921905584122,4.886921905584122,4.886921905584122,4.886921905584122,4.886921905584122,4.886921905584122,4.886921905584122,4.886921905584122,4.886921905584122,4.886921905584122,4.886921905584122,4.886921905584122,4.886921905584122,4.886921905584122,4.886921905584122,4.886921905584122,4.886921905584122,4.886921905584122,4.886921905584122,4.886921905584122,4.886921905584122,4.886921905584122,4.886921905584122,4.886921905584122,4.886921905584122,4.886921905584122,4.886921905584122,4.886921905584122,4.886921905584122,4.886921905584122,4.886921905584122,4.886921905584122,4.886921905584122,4.886921905584122,4.886921905584122,4.886921905584122,4.886921905584122,4.886921905584122,4.886921905584122,4.886921905584122,4.886921905584122,4.886921905584122,4.886921905584122,4.886921905584122,4.886921905584122,4.886921905584122,4.886921905584122,4.886921905584122,4.886921905584122,4.886921905584122,4.886921905584122,4.886921905584122,4.965534182930682,5.201605439822791,6.10600389660302,0.747211057958146,0.9792835110123363,1.0505909757976268,1.0782337024403512,1.0782337024403512,1.0869385968166474,1.188367983084479,1.2684227515029776,1.3410318546073883,1.378779209499356,1.39361491621833,1.3965218847740752,1.3965218847740752,1.3993619793815337,1.4477624766239323,1.4891778694287265,1.5039956651847275,1.5155076196501884,1.5155076196501884,1.5155076196501884,1.5155076196501884,1.5155076196501884,1.5155076196501884,1.5155076196501884,1.5155076196501884,1.5155076196501884,1.5155076196501884,1.5155076196501884,1.5155076196501884,1.5116207897311154,1.4997085638249812,1.4997085638249812,1.4997085638249812,1.4997085638249812,1.4997085638249812,1.3962634015954636]],"response_history":["2"],"rt":5295,"trial_type":"polygon-arrow-question","trial_index":0,"trial_index_global":49,"time_elapsed":1935660,"internal_chunk_id":"0-0.12-0"},{"nsides":9,"question":"What is 1 <img src=./images/nonagon_symbol.png style=width:14px;height:14px> 8?","response_type":"free","response_choices":[],"correct_response":"0","response":"0 ","explain":false,"explanation":"","explanation_history":[],"orientation_history":[[0],[0,0,0,0,0,0,0.02968327986205299,-6.164029429519254,-6.089771376076764,-6.002222817499686,-5.945383893528961,-5.917544039211299,-5.890136828343777,-5.890136828343777,-5.890136828343777,-5.872120759789722,-5.761463538615826,-5.628169845530186,-5.535065278068887,-5.486574828508901,-5.45118220655392,-5.45118220655392,-5.442358480693033,-5.442358480693033,-5.433677896115857,-5.376226268353662,-5.329274079819464,-5.308037038740064,-5.292713933068105,-5.292713933068105,-5.292713933068105,-5.292713933068105,-5.292713933068105,-5.292713933068105,-5.292713933068105,-5.292713933068105,-5.292713933068105,-5.292713933068105,-5.292713933068105,-5.292713933068105,-5.292713933068105,-5.292713933068105,-5.292713933068105,-5.292713933068105,-5.292713933068105,-5.292713933068105,-5.337725283035308,-5.368494463665625,-5.400343248608971,-5.441248295192992,-5.4827166024404965,-5.524614777668906,-5.559848594522942,-5.57636907403929,-5.57636907403929,-5.57636907403929,-5.57636907403929,-5.609126028108802,-5.645321911735836,-5.645321911735836,-5.645321911735836,-5.645321911735836,-5.645321911735836,-5.645321911735836,-5.645321911735836,-5.645321911735836,-5.645321911735836,-5.645321911735836,-5.645321911735836,-5.645321911735836,-5.645321911735836,-5.645321911735836,-5.645321911735836,-5.645321911735836,-5.645321911735836,-5.645321911735836,-5.625346766455324,-5.609126028108802,-5.592797559688615,-5.557363098398413,-5.548055394712794,-5.541024683085589,-5.541024683085589,-5.541024683085589,-5.541024683085589,-5.541024683085589,-5.541024683085589,0.6981317007977318],[0.6409565850228043,0.6409565850228043,0.6409565850228043,0.6409565850228043,0.6409565850228043,0.6409565850228043,0.6409565850228043,0.6409565850228043,0.6409565850228043,0.6409565850228043,0.6409565850228043,0.6409565850228043,0.6409565850228043,0.6409565850228043,0.6409565850228043,0.6409565850228043,0.6409565850228043,0.6409565850228043,0.6409565850228043,0.6409565850228043,0.6409565850228043,0.6409565850228043,0.6409565850228043,0.6409565850228043,0.6409565850228043,0.6409565850228043,0.6409565850228043,0.6409565850228043,0.6409565850228043,0.6409565850228043,0.6409565850228043,0.6409565850228043,0.6409565850228043,0.6409565850228043,0.6409565850228043,0.6409565850228043,0.6409565850228043,0.6409565850228043,0.6409565850228043,0.6409565850228043,0.6409565850228043,0.6409565850228043,0.6409565850228043,0.6409565850228043,0.6409565850228043,0.6409565850228043,0.6409565850228043,0.6409565850228043,0.6409565850228043,0.6409565850228043,0.6409565850228043,0.6409565850228043,0.6409565850228043,0.6409565850228043,0.6409565850228043,0.6409565850228043,0.6409565850228043,0.6409565850228043,0.6409565850228043,0.6409565850228043,0.6409565850228043,0.6409565850228043,0.6409565850228043,0.6409565850228043,0.6409565850228043,0.6409565850228043,0.6409565850228043,0.6409565850228043,0.6409565850228043,0.6409565850228043,0.6409565850228043,0.6409565850228043,0.6409565850228043,0.6409565850228043,0.6409565850228043,0.6409565850228043,0.6409565850228043,0.6409565850228043,0.6409565850228043,0.6409565850228043,0.6409565850228043,0.6409565850228043,0.6409565850228043,0.6409565850228043,0.6409565850228043,0.6409565850228043,0.6409565850228043,0.6409565850228043,0.6409565850228043,0.6409565850228043,0.6409565850228043,0.6409565850228043,0.6409565850228043,0.6409565850228043,0.6409565850228043,0.6409565850228043,0.6409565850228043,0.6409565850228043,0.6409565850228043,0.6409565850228043,0.6409565850228043,0.7014835364582568,0.7758746418038354,0.851966327173272,0.910947900505974,0.960070362405688,1.0397662219507142,1.1511454646597927,1.2621454597180315,1.3357841110742394,1.3921653202809472,1.4078698679445238,1.4078698679445238,1.4078698679445238,1.4078698679445238,1.4078698679445238,1.4078698679445238,1.4078698679445238,1.4078698679445238,1.4078698679445238,1.4078698679445238,1.4078698679445238,1.4078698679445238,1.4078698679445238,1.4078698679445238,1.4078698679445238,1.4078698679445238,1.4078698679445238,1.4078698679445238,1.4078698679445238,1.4078698679445238,1.4078698679445238,1.4212365869211934,1.5160565467450158,1.666394445458737,1.8157749899217608,1.9173351912288383,1.977363153389438,2.000558605891585,2.000558605891585,2.000558605891585,2.000558605891585,2.000558605891585,2.000558605891585,2.000558605891585,2.000558605891585,2.000558605891585,2.000558605891585,2.000558605891585,2.000558605891585,2.000558605891585,2.000558605891585,2.000558605891585,2.000558605891585,2.000558605891585,2.000558605891585,2.000558605891585,2.000558605891585,2.0058802779569427,2.0461393089613917,2.1662062022736293,2.2996510532475276,2.402033916073462,2.4727804956536605,2.515546131096262,2.5569913974694667,2.5804292413014407,2.5868004264518976,2.603218140243563,2.6253619829780455,2.641312225364941,2.6571147245527698,2.677945044588987,2.7035804531106646,2.7035804531106646,2.7035804531106646,2.7035804531106646,2.7035804531106646,2.7035804531106646,2.7035804531106646,2.7035804531106646,2.7035804531106646,2.7035804531106646,2.7035804531106646,2.7035804531106646,2.7035804531106646,2.7035804531106646,2.7035804531106646,2.7035804531106646,2.7035804531106646,2.724543411601308,2.8501358591119264,3.008242399418241,3.141592653589793,3.201760904744803,3.2365443599325494,3.248328326238929,3.248328326238929,3.248328326238929,3.248328326238929,3.260082612747931,3.281842263226398,3.316264852598033,3.338988213439674,3.338988213439674,3.338988213439674,3.338988213439674,3.338988213439674,3.338988213439674,3.338988213439674,3.338988213439674,3.338988213439674,3.338988213439674,3.338988213439674,3.338988213439674,3.338988213439674,3.338988213439674,3.338988213439674,3.338988213439674,3.338988213439674,3.338988213439674,3.338988213439674,3.338988213439674,3.338988213439674,3.338988213439674,3.338988213439674,3.338988213439674,3.338988213439674,3.338988213439674,3.338988213439674,3.338988213439674,3.338988213439674,3.338988213439674,3.338988213439674,3.338988213439674,3.338988213439674,3.375335834458695,3.519886644931253,3.6592417629665674,3.780227620743778,3.848889139267256,3.891917486454016,3.918295383975463,3.944532877044644,3.9786689014696717,4.012985108181482,4.090729058101601,4.137500379114598,4.222431654130961,4.274376779905561,4.319330961202757,4.333961602356013,4.348410023875045,4.348410023875045,4.348410023875045,4.348410023875045,4.348410023875045,4.348410023875045,4.348410023875045,4.348410023875045,4.348410023875045,4.348410023875045,4.348410023875045,4.348410023875045,4.348410023875045,4.348410023875045,4.348410023875045,4.348410023875045,4.348410023875045,4.348410023875045,4.348410023875045,4.348410023875045,4.348410023875045,4.348410023875045,4.348410023875045,4.348410023875045,4.348410023875045,4.348410023875045,4.373096365930645,4.4728897144745305,4.575322806074502,4.655631822562596,4.701025833120399,4.757812259806267,4.790879083022022,4.877537657799317,4.959951617088709,5.030839216730845,5.066386417216586,5.094768014484043,5.1040889198221135,5.1040889198221135,5.1040889198221135,5.1040889198221135,5.1040889198221135,5.1040889198221135,5.1040889198221135,5.1040889198221135,5.1040889198221135,5.1040889198221135,5.1040889198221135,5.1040889198221135,5.1040889198221135,5.1040889198221135,5.1040889198221135,5.1040889198221135,5.1040889198221135,5.1040889198221135,5.1040889198221135,5.1040889198221135,5.1040889198221135,5.1040889198221135,5.1040889198221135,5.144083997701016,5.20919978188806,5.30342187768712,5.371479026718898,5.434380191815306,5.4737917501902675,5.497787143782138,5.505786973122024,5.513658826773928,5.513658826773928,5.513658826773928,5.513658826773928,5.513658826773928,5.513658826773928,5.513658826773928,5.513658826773928,5.513658826773928,5.513658826773928,5.513658826773928,5.513658826773928,5.513658826773928,5.513658826773928,5.513658826773928,5.513658826773928,5.513658826773928,5.513658826773928,5.513658826773928,5.521782537374008,5.593149190684547,5.684274045449355,5.8074900883245935,5.922827336654793,6.012238456841166,6.0702469576001885,6.1115572387987065,6.152357911105529,6.179660632669042,6.179660632669042,6.179660632669042,6.179660632669042,6.206413415909808,6.206413415909808,6.219170329345242,6.219170329345242,6.219170329345242,6.219170329345242,6.219170329345242,6.219170329345242,6.219170329345242,6.283185307179586]],"response_history":["0"],"rt":10738,"trial_type":"polygon-arrow-question","trial_index":0,"trial_index_global":50,"time_elapsed":1946398,"internal_chunk_id":"0-0.12-0"},{"nsides":9,"question":"What is 5 <img src=./images/nonagon_symbol.png style=width:14px;height:14px> 4?","response_type":"free","response_choices":[],"correct_response":"0","response":"0","explain":false,"explanation":"","explanation_history":[],"orientation_history":[[0],[0,0,0,-0.002730741437327211,-0.005592782849952904,-0.01175034049442747,-0.24944223206736194,-0.5383235066935494,-0.720442649734859,-0.9556903873939557,-1.1020467212471754,-1.1787098340990205,-1.2321368767457095,-1.2939452045365059,-1.3483014364249506,-1.3969629495111313,-1.4209593974870778,-1.4550371090740857,-1.488358104952333,-1.5621524324263172,-1.6285328380368673,-1.6905820897949493,-1.7320414320161124,-1.7562626869364717,-1.771007381027066,-1.788281