[{"nsides":6,"instructions":"Let's define a new operation <img src=./images/hexagon_symbol.png style=width:14px;height:14px>. This operation will give us a way of combining two of the numbers 0, 1, 2, 3, 4, 5 to get another one of them back. To perform <img src=./images/hexagon_symbol.png style=width:14px;height:14px>, you can either use a method based on the hexagon at right, or a method based on arithmetic.<br /><b>Hexagon method:</b> you can use the interactive diagram on the right, or perform the operation in your mind. Point the arrow at the first number on the hexagon by clicking, then click (or click and drag) to move the arrow the second number of points clockwise around the hexagon. The number the arrow arrives at is your result. (The operation is called <img src=./images/hexagon_symbol.png style=width:14px;height:14px> because it uses the hexagon, which has 6 sides.) <br ><b>Arithmetic method:</b> you start with the first number, and then add  the sec ond one to it. If the sum is smaller than 6, that's your result. If the sum is 6 or bigger, you subtract 6 to get your result. <br /><br />For example, 3 <img src=./images/hexagon_symbol.png style=width:14px;height:14px> 5 = 2, because 5 steps clockwise from 3 on the hexagon brings us to 2. Equivalently, 3 + 5 = 8, and 8 is bigger than 6, so we subtract 6, and 8 - 6 = 2. So 3 <img src=./images/hexagon_symbol.png style=width:14px;height:14px> 5 = 2.<br /><br />Similarly, 1 <img src=./images/hexagon_symbol.png style=width:14px;height:14px> 4 = 5, because 1 + 4 = 5, and 5 is less than 6 so we leave it alone. Equivalently, 4 steps clockwise from 1 on the hexagon brings us to 5. <br /><br />Click Continue when you're ready to move on.","orientation_history":[0],"rt":67820,"trial_type":"polygon-arrow-instructions","trial_index":0,"trial_index_global":1,"time_elapsed":581062,"internal_chunk_id":"0-0"},{"nsides":6,"instructions":"Do you see how the differ ent ways  of performing <img src=./images/hexagon_symbol.png style=width:14px;height:14px> give the same result? By labeling the points of the hexagon with the numbers from 0 to 5, we ensure that when we combine two numbers using the hexagon, we only produce numbers between 0 and 5. When we use the arithmetic strategy, adding the second number to the first mimics counting around the hexagon, and subtracting 6 each time we get above 5 makes sure the results correspond to the numbers on the points of the hexagon. <br /><br />Click Continue when you're ready to move on.","orientation_history":[0],"rt":18843,"trial_type":"polygon-arrow-instructions","trial_index":0,"trial_index_global":2,"time_elapsed":599910,"internal_chunk_id":"0-0"},{"nsides":6,"question":"Now try one on your own! What is 4 <img src=./images/hexagon_symbol.png style=width:14px;height:14px> 5? <br /><br /> (Remember, to perform <img src=./images/hexagon_symbol.png style=width:14px;height:14px>, you  can either use a method based on the hexagon at right, or a method based on arithmetic.<br /><br /><b>Hexagon method:</b> you can use the interactive diagram on the right, or perform the operation in your mind. Point the arrow at the first number, then move the arrow the second number of points clockwise around the hexagon. The number the arrow arrives at is your result. <br /><br /><b>Arithmetic method:</b> you start with the first number, and then add the second one to it. If the sum is smaller than 6, that's your result. If the sum is 6 or bigger, you subtract 6 to get your result.)","response_type":"free","response_choices":[],"correct_response":"3","response":"3","explain":false,"explanation":"","explanation_history":[],"orientation_history":[[0]],"response_history":["4+5+","4+5=9-6+","4+5=9-6=3","3"],"rt":30400,"trial_type":"polygon-arrow-question","trial_index":0,"trial_index_global":3,"time_elapsed":630312,"internal_chunk_id":"0-0.3-0"},{"nsides":6,"feedback":"Correc t! 4 <im g src=./images/hexagon_symbol.png style=width:14px;height:14px> 5 = 3 because 5 steps clockwise on the hexagon from 4 brings us to 3. Equivalently, 4 + 5 = 9 and 9 - 6 = 3.","orientation_history":[0],"rt":2722,"trial_type":"polygon-arrow-feedback","trial_index":0,"trial_index_global":4,"time_elapsed":633036,"internal_chunk_id":"0-0.3-0"},{"nsides":6,"question":"What is 3 <img src=./images/hexagon_symbol.png style=width:14px;height:14px> 2? Try to solve this problem using the hexagon. <br /><br /> (Remember, to perform <img src=./images/hexagon_symbol.png style=width:14px;height:14px> on the hexagon, you can use the interactive diagram on the right, or perform the operation in your mind. Point the arrow at the first number on the hexagon, and then move the arrow the second number of points clockwise around the hexagon.)","response_type":"free","response_choices":[],"correct_response":"5","response":"5","explain":false,"explanation":"","explanation_history":[],"orientation_history":[[0]],"response_history":["5"],"rt":4237,"trial_type":"polygon-arrow-question","trial_index":0,"trial_index_global":5,"time_elapsed":637274,"internal_chunk_id":"0-0.3-0"},{"nsides":6,"feedback":"Correct! 3 <img src=./images/hexagon_symbol.png style=width:14px;height:14px> 2 = 5 because 2 steps clockwise on the hexagon from 3 brings us to 5. Equivalently, 3 + 2 = 5 and 5 is less than 6.","orientation_history":[0],"rt":1411,"trial_type":"polygon-arrow-feedback","trial_index":0,"trial_index_global":6,"time_elapsed":638686,"internal_chunk_id":"0-0.3-0"},{"nsides":6,"question":"What is 1 <img src=./images/hexagon_symbol.png style=width:14px;height:14px> 5? Try to solve this probem using the arithmetic technique. <br /><br /> (Remember, to perform <img src=./images/hexagon_symbol.png style=width:14px;height:14px> by arithmetic, you start with the first number, and then add the second one to it. If the sum is smaller than 6, that's your  result.  If the sum is 6 or bigger, you subtract 6 to get your result.)","response_type":"free","response_choices":[],"correct_response":"0","response":"0","explain":false,"explanation":"","explanation_history":[],"orientation_history":[[0]],"response_history":["0"],"rt":7620,"trial_type":"polygon-arrow-question","trial_index":0,"trial_index_global":7,"time_elapsed":646306,"internal_chunk_id":"0-0.3-0"},{"nsides":6,"feedback":"Correct! 1 <img src=./images/hexagon_symbol.png style=width:14px;height:14px> 5 = 0 because 1 + 5 = 6 and 6 - 6 = 0.  Equivalently, 5 steps clockwise on the hexagon from 1 brings us to 0.","orientation_history":[0],"rt":912,"trial_type":"polygon-arrow-feedback","trial_index":0,"trial_index_global":8,"time_elapsed":647220,"internal_chunk_id":"0-0.3-0"},{"nsides":6,"question":"What is 1 <img src=./images/hexagon_symbol.png style=width:14px;height:14px> 1? Try to solve this problem using the hexagon. <br /><br /> (Remember, to perform <img src=. /images/ hexagon_symbol.png style=width:14px;height:14px> on the hexagon, you can use the interactive diagram on the right, or perform the operation in your mind. Point the arrow at the first number on the hexagon, and then move the arrow the second number of points clockwise around the hexagon.)","response_type":"free","response_choices":[],"correct_response":"2","response":"2","explain":false,"explanation":"","explanation_history":[],"orientation_history":[[0]],"response_history":["2"],"rt":3063,"trial_type":"polygon-arrow-question","trial_index":0,"trial_index_global":9,"time_elapsed":650284,"internal_chunk_id":"0-0.3-0"},{"nsides":6,"feedback":"Correct! 1 <img src=./images/hexagon_symbol.png style=width:14px;height:14px> 1 = 2 because 1 step clockwise on the hexagon from 1 brings us to 2. Equivalently, 1 + 1 = 2 and 2 is less than 6.","orientation_history":[0],"rt":1501,"trial_type":"polygon-arrow-feedback","trial_index":0,"trial_index_global":10,"time_elapsed":651786,"internal_chunk_id":"0-0.3-0"},{"nsides":6,"question":"What is 3 <img src=./images/hexagon_symbol.png style=width:14px;height:14px> 0? Try to solve this problem using the arithmetic technique. <br /><br /> (Remember, to perform <img src=./images/hexagon_symbol.png style=width:14px;height:14px> using arithmetic, you start with the first number, and then add the second one to it. If the sum is smaller than 6, that's your result. If the sum is 6 or bigger, you subtract 6 to get your result.)","response_type":"free","response_choices":[],"correct_response":"3","response":"3","explain":false,"explanation":"","explanation_history":[],"orientation_history":[[0]],"response_history":["3"],"rt":6198,"trial_type":"polygon-arrow-question","trial_index":0,"trial_index_global":11,"time_elapsed":657984,"internal_chunk_id":"0-0.3-0"},{"nsides":6,"feedback":"Correct! 3 <img src=./images/hexagon_symbol.png style=width:14px;height:14px> 0 = 3 because 3 + 0 = 3 and 3 - 6 = 3.   Equiva lently, 0 steps clockwise on the hexagon from 3 brings us to 3.","orientation_history":[0],"rt":3232,"trial_type":"polygon-arrow-feedback","trial_index":0,"trial_index_global":12,"time_elapsed":661217,"internal_chunk_id":"0-0.3-0"},{"nsides":6,"question":"What is 4 <img src=./images/hexagon_symbol.png style=width:14px;height:14px> 4? Try to solve this problem using the hexagon. <br /><br /> (Remember, to perform <img src=./images/hexagon_symbol.png style=width:14px;height:14px> on the hexagon, you can use the interactive diagram on the right, or perform the operation in your mind. Point the arrow at the first number on the hexagon, and then move the arrow the second number of points clockwise around the hexagon.)","response_type":"free","response_choices":[],"correct_response":"2","response":"2","explain":false,"explanation":"","explanation_history":[],"orientation_history":[[0]],"response_history":["2"],"rt":12468,"trial_type":"polygon-arrow-question","trial_index":0,"trial_index_global":13,"time_elapsed":673686,"internal_chunk_id":"0-0.3-0"},{"nsides":6,"feedback":"Correct! 4 <img src=./images/hexagon_symbol.png style=width:14px;height:14px> 4 = 2 because 4 steps clockwise on the hexagon from 4 brings us to 2. Equivalently, 4 + 4 = 8 and 8 - 6 = 2.","orientation_history":[0],"rt":1192,"trial_type":"polygon-arrow-feedback","trial_index":0,"trial_index_global":14,"time_elapsed":674879,"internal_chunk_id":"0-0.3-0"},{"nsides":6,"question":"What is 1 <img src=./images/hexagon_symbol.png style=width:14px;height:14px> 3? Try to solve this problem using the arithmetic technique. <br /><br /> (Remember, to perform <img src=./images/hexagon_symbol.png style=width:14px;height:14px> by arithmetic, you start with the first number, and then add the second one to it. If the sum is smaller than 6, that's your result. If the sum is 6 or bigger, you subtract 6 to get your result.)","response_type":"free","response_choices":[],"correct_response":"4","response":"4","explain":false,"explanation":"","explanation_history":[],"orientation_history":[[0]],"response_history":["4"],"rt":2261,"trial_type":"polygon-arrow-question","trial_index":0,"trial_index_global":15,"time_elapsed":677141,"internal_chunk_id":"0-0.3-0"},{"nsides":6,"feedback":"Correct! 1 <img src=./images/hexagon_symbol.png style=width:14px;height:14px> 3 = 4 because 1 + 3 = 4 and 4 - 6 = 4.  Equivalently, 3 steps clockwise on the hexagon from 1 brings us to 4.","orientation_history":[0],"rt":1276,"trial_type":"polygon-arrow-feedback","trial_index":0,"trial_index_global":16,"time_elapsed":678417,"internal_chunk_id":"0-0.3-0"},{"nsides":6,"question":"What is 4 <img src=./images/hexagon_symbol.png style=width:14px;height:14px> 3? <br /><br /> (Remember, to perform <img src=./images/hexagon_symbol.png style=width:14px;height:14px>, you can either use a method based on the hexagon at right, or a method based on arithmetic.<br /> <br /><b >Hexagon method:</b> you can use the interactive diagram on the right, or perform the operation in your mind. Point the arrow at the first number, then move the arrow the second number of points clockwise around the hexagon. The number the arrow arrives at is your result. <br /><br /><b>Arithmetic method:</b> you start with the first number, and then add the second one to it. If the sum is smaller than 6, that's your result. If the sum is 6 or bigger, you subtract 6 to get your result.)","response_type":"free","response_choices":[],"correct_response":"1","response":"1","explain":false,"explanation":"","explanation_history":[],"orientation_history":[[0]],"response_history":["1"],"rt":5889,"trial_type":"polygon-arrow-question","trial_index":0,"trial_index_global":17,"time_elapsed":684307,"internal_chunk_id":"0-0.3-0"},{"nsides":6,"feedback":"Correct! 4 <img src=./images/hexagon_symbol.png style=width:14px;height:14px> 3 = 1 because 3 steps clockwise on the hexagon from  4 bring s us to 1. Equivalently, 4 + 3 = 7 and 7 - 6 = 1.","orientation_history":[0],"rt":1459,"trial_type":"polygon-arrow-feedback","trial_index":0,"trial_index_global":18,"time_elapsed":685767,"internal_chunk_id":"0-0.3-0"},{"nsides":6,"question":"What is 0 <img src=./images/hexagon_symbol.png style=width:14px;height:14px> 5? <br /><br /> (Remember, to perform <img src=./images/hexagon_symbol.png style=width:14px;height:14px>, you can either use a method based on the hexagon at right, or a method based on arithmetic.<br /><br /><b>Hexagon method:</b> you can use the interactive diagram on the right, or perform the operation in your mind. Point the arrow at the first number, then move the arrow the second number of points clockwise around the hexagon. The number the arrow arrives at is your result. <br /><br /><b>Arithmetic method:</b> you start with the first number, and then add the second one to it. If the sum is smaller than 6, that's your result. If the sum is  6 or big ger, you subtract 6 to get your result.)","response_type":"free","response_choices":[],"correct_response":"5","response":"5","explain":false,"explanation":"","explanation_history":[],"orientation_history":[[0]],"response_history":["5"],"rt":3962,"trial_type":"polygon-arrow-question","trial_index":0,"trial_index_global":19,"time_elapsed":689730,"internal_chunk_id":"0-0.3-0"},{"nsides":6,"feedback":"Correct! 0 <img src=./images/hexagon_symbol.png style=width:14px;height:14px> 5 = 5 because 5 steps clockwise on the hexagon from 0 brings us to 5. Equivalently, 0 + 5 = 5 and 5 is less than 6.","orientation_history":[0],"rt":3431,"trial_type":"polygon-arrow-feedback","trial_index":0,"trial_index_global":20,"time_elapsed":693162,"internal_chunk_id":"0-0.3-0"},{"nsides":6,"question":"What is 2 <img src=./images/hexagon_symbol.png style=width:14px;height:14px> 5? <br /><br /> (Remember, to perform <img src=./images/hexagon_symbol.png style=width:14px;height:14px >, you  can either use a method based on the hexagon at right, or a method based on arithmetic.<br /><br /><b>Hexagon method:</b> you can use the interactive diagram on the right, or perform the operation in your mind. Point the arrow at the first number, then move the arrow the second number of points clockwise around the hexagon. The number the arrow arrives at is your result. <br /><br /><b>Arithmetic method:</b> you start with the first number, and then add the second one to it. If the sum is smaller than 6, that's your result. If the sum is 6 or bigger, you subtract 6 to get your result.)","response_type":"free","response_choices":[],"correct_response":"1","response":"1","explain":false,"explanation":"","explanation_history":[],"orientation_history":[[0]],"response_history":["1"],"rt":3123,"trial_type":"polygon-arrow-question","trial_index":0,"trial_index_global":21,"time_elapsed":696286,"internal_chunk_id":"0-0.3-0"},{"nsides":6,"feedback":"Correct! 2 <img src=./images/hexa gon_symb ol.png style=width:14px;height:14px> 5 = 1 because 5 steps clockwise on the hexagon from 2 brings us to 1. Equivalently, 2 + 5 = 7 and 7 - 6 = 1.","orientation_history":[0],"rt":871,"trial_type":"polygon-arrow-feedback","trial_index":0,"trial_index_global":22,"time_elapsed":697157,"internal_chunk_id":"0-0.3-0"},{"nsides":6,"instructions":"Now we're going to discuss a couple special properties of this new operation, <img src=./images/hexagon_symbol.png style=width:14px;height:14px> that we've learned. First, notice that the number 0 behaves in a special way under <img src=./images/hexagon_symbol.png style=width:14px;height:14px>. Whenever we combine 0 with anything else, we get that same thing back. We'll say that 0 is the <i>identity</i> under <img src=./images/hexagon_symbol.png style=width:14px;height:14px>, because when you combine it with something it gives you that identical thing back.","orientation_history":[0],"rt":10144,"trial_type":"po lygon-ar row-instructions","trial_index":0,"trial_index_global":23,"time_elapsed":707304,"internal_chunk_id":"0-0"},{"nsides":6,"instructions":"Now that we know 0 is the identity under <img src=./images/hexagon_symbol.png style=width:14px;height:14px>, we're going to make a new definition. We'll say that the <i>inverse</i> of a number is the element that you combine with it to produce the identity. For example, 5 <img src=./images/hexagon_symbol.png style=width:14px;height:14px> 1 = 0, so we say 1 is the inverse of 5 under <img src=./images/hexagon_symbol.png style=width:14px;height:14px>, (remember 0 is the identity under <img src=./images/hexagon_symbol.png style=width:14px;height:14px>). Similarly, 3 is its own inverse under <img src=./images/hexagon_symbol.png style=width:14px;height:14px>, because 3 <img src=./images/hexagon_symbol.png style=width:14px;height:14px> 3 = 0.","orientation_history":[0],"rt":18081,"trial_type":"polygon- arrow-in structions","trial_index":0,"trial_index_global":24,"time_elapsed":725386,"internal_chunk_id":"0-0"},{"nsides":6,"question":"Now you try! What is the inverse of 4 under <img src=./images/hexagon_symbol.png style=width:14px;height:14px>? <br /><br /> (Remember, the inverse of an element is the thing which you combine with it to produce the identity.)","response_type":"free","response_choices":[],"correct_response":"2","response":"2","explain":false,"explanation":"","explanation_history":[],"orientation_history":[[0]],"response_history":["2"],"rt":4205,"trial_type":"polygon-arrow-question","trial_index":0,"trial_index_global":25,"time_elapsed":729592,"internal_chunk_id":"0-0.7-0"},{"nsides":6,"feedback":"Correct! The inverse of 4 under <img src=./images/hexagon_symbol.png style=width:14px;height:14px> is 2 because 4 <img src=./images/hexagon_symbol.png style=width:14px;height:14px> 2 = 0, and 0 is the identity under <img src=./images/hexagon_symbol.pn g styl e=width:14px;height:14px>.","orientation_history":[0],"rt":820,"trial_type":"polygon-arrow-feedback","trial_index":0,"trial_index_global":26,"time_elapsed":730413,"internal_chunk_id":"0-0.7-0"},{"nsides":6,"question":"What is the inverse of 1 under <img src=./images/hexagon_symbol.png style=width:14px;height:14px>? <br /><br /> (Remember, the inverse of an element is the thing which you combine with it to produce the identity.)","response_type":"free","response_choices":[],"correct_response":"5","response":"5","explain":false,"explanation":"","explanation_history":[],"orientation_history":[[0]],"response_history":["5"],"rt":2528,"trial_type":"polygon-arrow-question","trial_index":0,"trial_index_global":27,"time_elapsed":732941,"internal_chunk_id":"0-0.7-0"},{"nsides":6,"feedback":"Correct! The inverse of 1 under <img src=./images/hexagon_symbol.png style=width:14px;height:14px> is 5 because 1 <img src=./images/hexagon_symbol.png style=width:14px;hei ght:14px > 5 = 0, and 0 is the identity under <img src=./images/hexagon_symbol.png style=width:14px;height:14px>.","orientation_history":[0],"rt":759,"trial_type":"polygon-arrow-feedback","trial_index":0,"trial_index_global":28,"time_elapsed":733701,"internal_chunk_id":"0-0.7-0"},{"nsides":6,"question":"What is the inverse of 3 under <img src=./images/hexagon_symbol.png style=width:14px;height:14px>? <br /><br /> (Remember, the inverse of an element is the thing which you combine with it to produce the identity.)","response_type":"free","response_choices":[],"correct_response":"3","response":"3","explain":false,"explanation":"","explanation_history":[],"orientation_history":[[0]],"response_history":["3"],"rt":2059,"trial_type":"polygon-arrow-question","trial_index":0,"trial_index_global":29,"time_elapsed":735760,"internal_chunk_id":"0-0.7-0"},{"nsides":6,"feedback":"Correct! The inverse of 3 under <img src=./images/hexagon_symbol.png style=width:14px;height:14 px> is  3 because 3 <img src=./images/hexagon_symbol.png style=width:14px;height:14px> 3 = 0, and 0 is the identity under <img src=./images/hexagon_symbol.png style=width:14px;height:14px>.","orientation_history":[0],"rt":717,"trial_type":"polygon-arrow-feedback","trial_index":0,"trial_index_global":30,"time_elapsed":736477,"internal_chunk_id":"0-0.7-0"},{"nsides":6,"question":"What is the inverse of 2 under <img src=./images/hexagon_symbol.png style=width:14px;height:14px>? <br /><br /> (Remember, the inverse of an element is the thing which you combine with it to produce the identity.)","response_type":"free","response_choices":[],"correct_response":"4","response":"4","explain":false,"explanation":"","explanation_history":[],"orientation_history":[[0]],"response_history":["4"],"rt":2022,"trial_type":"polygon-arrow-question","trial_index":0,"trial_index_global":31,"time_elapsed":738501,"internal_chunk_id":"0-0.7-0"},{"nsides":6,"feedback":"Correct! The inve rse of 2  under <img src=./images/hexagon_symbol.png style=width:14px;height:14px> is 4 because 2 <img src=./images/hexagon_symbol.png style=width:14px;height:14px> 4 = 0, and 0 is the identity under <img src=./images/hexagon_symbol.png style=width:14px;height:14px>.","orientation_history":[0],"rt":872,"trial_type":"polygon-arrow-feedback","trial_index":0,"trial_index_global":32,"time_elapsed":739374,"internal_chunk_id":"0-0.7-0"},{"nsides":6,"question":"What is the inverse of 0 under <img src=./images/hexagon_symbol.png style=width:14px;height:14px>? <br /><br /> (Remember, the inverse of an element is the thing which you combine with it to produce the identity.)","response_type":"free","response_choices":[],"correct_response":"0","response":"6","explain":false,"explanation":"","explanation_history":[],"orientation_history":[[0]],"response_history":["6"],"rt":2209,"trial_type":"polygon-arrow-question","trial_index":0,"trial_index_global":33,"time_elapsed":741583,"internal_chunk_id":"0-0.7-0"},{"nsides":6,"feedback":"Sorry, that was incorrect. The inverse of 0 under <img src=./images/hexagon_symbol.png style=width:14px;height:14px> is 0 because 0 <img src=./images/hexagon_symbol.png style=width:14px;height:14px> 0 = 0, and 0 is the identity under <img src=./images/hexagon_symbol.png style=width:14px;height:14px>.","orientation_history":[0],"rt":11196,"trial_type":"polygon-arrow-feedback","trial_index":0,"trial_index_global":34,"time_elapsed":752780,"internal_chunk_id":"0-0.7-0"},{"nsides":6,"instructions":"It is also possible to successively apply <img src=./images/hexagon_symbol.png style=width:14px;height:14px>, and the operation can simply be performed starting with the left-most pair. For example, 2 <img src=./images/hexagon_symbol.png style=width:14px;height:14px> 3 <img src=./images/hexagon_symbol.png style=width:14px;height:14px> 4 = 5 <img src=./images/hexagon_symbol.png  style=width:14px;height:14px> 4 = 3.","orientation_history":[0],"rt":20696,"trial_type":"polygon-arrow-instructions","trial_index":0,"trial_index_global":35,"time_elapsed":773477,"internal_chunk_id":"0-0"},{"nsides":6,"instructions":"We have one last definition to learn today, using the successive operations we just learned. Let's start with an example. Under our operation <img src=./images/hexagon_symbol.png style=width:14px;height:14px> we can make every other number using just 1: 2 = 1 <img src=./images/hexagon_symbol.png style=width:14px;height:14px> 1, 3 = 1 <img src=./images/hexagon_symbol.png style=width:14px;height:14px> 1 <img src=./images/hexagon_symbol.png style=width:14px;height:14px> 1, 4 = 1 <img src=./images/hexagon_symbol.png style=width:14px;height:14px> 1 <img src=./images/hexagon_symbol.png style=width:14px;height:14px> 1 <img src=./images/hexagon_symbol.png style=width:14px;height:14px> 1, 5 = 1 <img sr c=./im ages/hexagon_symbol.png style=width:14px;height:14px> 1 <img src=./images/hexagon_symbol.png style=width:14px;height:14px> 1 <img src=./images/hexagon_symbol.png style=width:14px;height:14px> 1 <img src=./images/hexagon_symbol.png style=width:14px;height:14px> 1, and 0 = 1 <img src=./images/hexagon_symbol.png style=width:14px;height:14px> 1 <img src=./images/hexagon_symbol.png style=width:14px;height:14px> 1 <img src=./images/hexagon_symbol.png style=width:14px;height:14px> 1 <img src=./images/hexagon_symbol.png style=width:14px;height:14px> 1 <img src=./images/hexagon_symbol.png style=width:14px;height:14px> 1. Because 1 can make every other element under <img src=./images/hexagon_symbol.png style=width:14px;height:14px>, we say that 1 is a <i>generator</i> under <img src=./images/hexagon_symbol.png style=width:14px;height:14px>. <br /><br /> However, 2 is not a generator under <img src= ./images /hexagon_symbol.png style=width:14px;height:14px>, because 4 = 2 <img src=./images/hexagon_symbol.png style=width:14px;height:14px> 2, and 0 = 2 <img src=./images/hexagon_symbol.png style=width:14px;height:14px> 2 <img src=./images/hexagon_symbol.png style=width:14px;height:14px> 2, but there is no way to make 1, 3, or 5 using just 2.","orientation_history":[0],"rt":25543,"trial_type":"polygon-arrow-instructions","trial_index":0,"trial_index_global":36,"time_elapsed":799021,"internal_chunk_id":"0-0"},{"nsides":6,"question":"Now you try! Is 3 a generator under <img src=./images/hexagon_symbol.png style=width:14px;height:14px>? <br /><br /> (Remember, a generator is an element which can make every other element.)","response_type":"multi","response_choices":["Yes","No"],"correct_response":"No","response":"No","explain":false,"explanation":"","explanation_history":[],"orientation_history":[[0]],"response_history":["No"],"rt":21466,"trial_type":"poly gon-arrow-question","trial_index":0,"trial_index_global":37,"time_elapsed":820488,"internal_chunk_id":"0-0.10-0"},{"nsides":6,"feedback":"Correct! 3 is not a generator under <img src=./images/hexagon_symbol.png style=width:14px;height:14px>, because 3 = 3, 0 = 3 <img src=./images/hexagon_symbol.png style=width:14px;height:14px> 3, but there is no way to make 1, 2, 4, or 5 using just 3.","orientation_history":[0],"rt":2749,"trial_type":"polygon-arrow-feedback","trial_index":0,"trial_index_global":38,"time_elapsed":823239,"internal_chunk_id":"0-0.10-0"},{"nsides":6,"question":"Is 5 a generator under <img src=./images/hexagon_symbol.png style=width:14px;height:14px>? <br /><br /> (Remember, a generator is an element which can make every other element.)","response_type":"multi","response_choices":["Yes","No"],"correct_response":"Yes","response":"No","explain":false,"explanation":"","explanation_history":[],"orientation_history":[[0]],"response_history":[" No"],"rt":3469,"trial_type":"polygon-arrow-question","trial_index":0,"trial_index_global":39,"time_elapsed":826708,"internal_chunk_id":"0-0.10-0"},{"nsides":6,"feedback":"Sorry, that's incorrect. 5 is a generator under <img src=./images/hexagon_symbol.png style=width:14px;height:14px>, because 5 = 5, 4 = 5 <img src=./images/hexagon_symbol.png style=width:14px;height:14px> 5, 3 = 5 <img src=./images/hexagon_symbol.png style=width:14px;height:14px> 5 <img src=./images/hexagon_symbol.png style=width:14px;height:14px> 5, 2 = 5 <img src=./images/hexagon_symbol.png style=width:14px;height:14px> 5 <img src=./images/hexagon_symbol.png style=width:14px;height:14px> 5 <img src=./images/hexagon_symbol.png style=width:14px;height:14px> 5, 1 = 5 <img src=./images/hexagon_symbol.png style=width:14px;height:14px> 5 <img src=./images/hexagon_symbol.png style=width:14px;height:14px> 5 <img src=./images/hexagon_symbol.png sty le=wid th:14px;height:14px> 5 <img src=./images/hexagon_symbol.png style=width:14px;height:14px> 5, and 0 = 5 <img src=./images/hexagon_symbol.png style=width:14px;height:14px> 5 <img src=./images/hexagon_symbol.png style=width:14px;height:14px> 5 <img src=./images/hexagon_symbol.png style=width:14px;height:14px> 5 <img src=./images/hexagon_symbol.png style=width:14px;height:14px> 5 <img src=./images/hexagon_symbol.png style=width:14px;height:14px> 5, so you can make all of the numbers under <img src=./images/hexagon_symbol.png style=width:14px;height:14px> using 5","orientation_history":[0],"rt":6458,"trial_type":"polygon-arrow-feedback","trial_index":0,"trial_index_global":40,"time_elapsed":833167,"internal_chunk_id":"0-0.10-0"},{"nsides":6,"question":"Is 4 a generator under <img src=./images/hexagon_symbol.png style=width:14px;height:14px>? <br /><br /> (Remember, a generator is an element which can make every oth er eleme nt.)","response_type":"multi","response_choices":["Yes","No"],"correct_response":"No","response":"No","explain":false,"explanation":"","explanation_history":[],"orientation_history":[[0]],"response_history":["No"],"rt":2720,"trial_type":"polygon-arrow-question","trial_index":0,"trial_index_global":41,"time_elapsed":835888,"internal_chunk_id":"0-0.10-0"},{"nsides":6,"feedback":"Correct! 4 is not a generator under <img src=./images/hexagon_symbol.png style=width:14px;height:14px>, because 4 = 4, 2 = 4 <img src=./images/hexagon_symbol.png style=width:14px;height:14px> 4, and 0 = 4 <img src=./images/hexagon_symbol.png style=width:14px;height:14px> 4 <img src=./images/hexagon_symbol.png style=width:14px;height:14px> 4, but there is no way to make 1, 3, or 5 using just 4.","orientation_history":[0],"rt":990,"trial_type":"polygon-arrow-feedback","trial_index":0,"trial_index_global":42,"time_elapsed":836879,"internal_chunk_id":"0-0.10-0"},{"nsides":6,"question":"Is 0 a generator under <img src=./images/hexagon_symbol.png style=width:14px;height:14px>? <br /><br /> (Remember, a generator is an element which can make every other element.)","response_type":"multi","response_choices":["Yes","No"],"correct_response":"No","response":"No","explain":false,"explanation":"","explanation_history":[],"orientation_history":[[0]],"response_history":["No"],"rt":2641,"trial_type":"polygon-arrow-question","trial_index":0,"trial_index_global":43,"time_elapsed":839521,"internal_chunk_id":"0-0.10-0"},{"nsides":6,"feedback":"Correct! 0 is not a generator under <img src=./images/hexagon_symbol.png style=width:14px;height:14px>, because 0 = 0, but there is no way to make 1, 2, 3, 4, or 5 using just 0.","orientation_history":[0],"rt":1009,"trial_type":"polygon-arrow-feedback","trial_index":0,"trial_index_global":44,"time_elapsed":840531,"internal_chunk_id":"0-0.10-0"},{"nsides":9,"instructions":"Now we are going to ask you some question s about  a new operation, <img src=./images/nonagon_symbol.png style=width:14px;height:14px>, on the numbers 0, 1, 2, 3, 4, 5, 6, 7, 8. It works exactly like <img src=./images/hexagon_symbol.png style=width:14px;height:14px>, except now you use the nonagon shown at the right. Equivalently, after adding the two numbers you subtract 9 if your result is 9 or greater.<br /><br />Do you see how the different ways of performing <img src=./images/nonagon_symbol.png style=width:14px;height:14px> give the same result, just like with <img src=./images/hexagon_symbol.png style=width:14px;height:14px>? By labeling the points of the nonagon with the numbers from 0 to 8, we ensure that when we combine two numbers under <img src=./images/nonagon_symbol.png style=width:14px;height:14px>, we only produce numbers between 0 and 8. When we use the arithmetic strategy, adding the second number to the first mimics counting around the nonagon, and subtracting 9 each  time we  get above 8 makes sure the results correspond to the numbers on the points of the nonagon.<br /><br />We'll give you one practice question with feedback to make sure you understand the new operation. After that, try to complete the remaining questions as accurately as possible.","orientation_history":[0],"rt":37068,"trial_type":"polygon-arrow-instructions","trial_index":0,"trial_index_global":45,"time_elapsed":877600,"internal_chunk_id":"0-0"},{"nsides":9,"question":"Practice: What is 5 <img src=./images/nonagon_symbol.png style=width:14px;height:14px> 5?","response_type":"free","response_choices":[],"correct_response":"1","response":"1","explain":false,"explanation":"","explanation_history":[],"orientation_history":[[0]],"response_history":["1"],"rt":5564,"trial_type":"polygon-arrow-question","trial_index":0,"trial_index_global":46,"time_elapsed":883165,"internal_chunk_id":"0-0.12-0"},{"nsides":9,"feedback":"Correct! 5 <img src=./images/nonagon_symbol.png style= width: 14px;height:14px> 5 = 1 because 5 steps clockwise on the nonagon from 5 brings us to 1. Equivalently, 5 + 5 = 10 and 10 - 9 = 1.","orientation_history":[0],"rt":848,"trial_type":"polygon-arrow-feedback","trial_index":0,"trial_index_global":47,"time_elapsed":884013,"internal_chunk_id":"0-0.12-0"},{"nsides":9,"question":"What is 3 <img src=./images/nonagon_symbol.png style=width:14px;height:14px> 3?","response_type":"free","response_choices":[],"correct_response":"6","response":"6","explain":false,"explanation":"","explanation_history":[],"orientation_history":[[0]],"response_history":["6"],"rt":2892,"trial_type":"polygon-arrow-question","trial_index":0,"trial_index_global":48,"time_elapsed":886905,"internal_chunk_id":"0-0.12-0"},{"nsides":9,"question":"What is 7 <img src=./images/nonagon_symbol.png style=width:14px;height:14px> 4?","response_type":"free","response_choices":[],"correct_response":"2","response":"2","explain":false,"explanation":"","explanation_history":[],"orientation_history":[[0]],"response_history":["2"],"rt":3384,"trial_type":"polygon-arrow-question","trial_index":0,"trial_index_global":49,"time_elapsed":890289,"internal_chunk_id":"0-0.12-0"},{"nsides":9,"question":"What is 1 <img src=./images/nonagon_symbol.png style=width:14px;height:14px> 8?","response_type":"free","response_choices":[],"correct_response":"0","response":"0","explain":false,"explanation":"","explanation_history":[],"orientation_history":[[0]],"response_history":["0"],"rt":2915,"trial_type":"polygon-arrow-question","trial_index":0,"trial_index_global":50,"time_elapsed":893205,"internal_chunk_id":"0-0.12-0"},{"nsides":9,"question":"What is 5 <img src=./images/nonagon_symbol.png style=width:14px;height:14px> 4?","response_type":"free","response_choices":[],"correct_response":"0","response":"0","explain":false,"explanation":"","explanation_history":[],"orientation_history":[[0]],"response_history":["0"],"rt":2848,"trial_type":"polygon-a rrow-que stion","trial_index":0,"trial_index_global":51,"time_elapsed":896054,"internal_chunk_id":"0-0.12-0"},{"nsides":9,"question":"What is 6 <img src=./images/nonagon_symbol.png style=width:14px;height:14px> 6?","response_type":"free","response_choices":[],"correct_response":"3","response":"3","explain":false,"explanation":"","explanation_history":[],"orientation_history":[[0]],"response_history":["3"],"rt":3375,"trial_type":"polygon-arrow-question","trial_index":0,"trial_index_global":52,"time_elapsed":899430,"internal_chunk_id":"0-0.12-0"},{"nsides":9,"instructions":"On the following question, and several others later in the HIT, we will ask you to explain how you got your answer. On these questions, you will be given one box for your answer to the question, and a second for your explanation. Please explain your thought process in as much detail as possible (at least one sentence, and more if you can).","orientation_history":[0],"rt":24643,"trial_type":"polygon-arrow-ins truction s","trial_index":0,"trial_index_global":53,"time_elapsed":924074,"internal_chunk_id":"0-0.12-0"},{"nsides":9,"question":"What is 4 <img src=./images/nonagon_symbol.png style=width:14px;height:14px> 1? Please explain in words how you got your answer.","response_type":"free","response_choices":[],"correct_response":"5","response":"5","explain":true,"explanation":"I used the arithmetic method: 4+1=5, which is less than 9 so the answer is 5.","explanation_history":["I used the arti","I used the art","I used the arithmetic method: 4+1+5","I used the arithmetic method: 4+1+","I used the arithmetic method: 4+1=5, which is less that","I used the arithmetic method: 4+1=5, which is less than 9 so the answer is 5."],"orientation_history":[[0]],"response_history":["5"],"rt":35356,"trial_type":"polygon-arrow-question","trial_index":0,"trial_index_global":54,"time_elapsed":959431,"internal_chunk_id":"0-0.12-0"},{"nsides":9,"question":"What is 8 <img src=./images/nonagon_symbol.p ng sty le=width:14px;height:14px> 4? Please explain in words how you got your answer.","response_type":"free","response_choices":[],"correct_response":"3","response":"3","explain":true,"explanation":"By the arithmetic method: 8+4=12, 12-9=3.","explanation_history":["Art","Ar","A","By the art","By the arithmetic method: 8+4=12, 12-9=3."],"orientation_history":[[0]],"response_history":["3"],"rt":29198,"trial_type":"polygon-arrow-question","trial_index":0,"trial_index_global":55,"time_elapsed":988630,"internal_chunk_id":"0-0.12-0"},{"nsides":9,"question":"What is the identity under <img src=./images/nonagon_symbol.png style=width:14px;height:14px>? Please explain in words how you got your answer.","response_type":"free","response_choices":[],"correct_response":"0","response":"0","explain":true,"explanation":"It works the same way as the (six) function, where if the (nine) function produces a value greater than 8, 9 is subtracted. Zero added to any of the other values resul ts in th at value, hence the identity trait of zero.","explanation_history":["It works the same was a","It works the same was ","It works the same was","It works the same way as the (sic","It works the same way as the (six) function, where if the combin","It works the same way as the (six) function, where if the (nine) function produces a value greater than 8, 9 si","It works the same way as the (six) function, where if the (nine) function produces a value greater than 8, 9 s","It works the same way as the (six) function, where if the (nine) function produces a value greater than 8, 9 is subtracted. Zero added to any of the other c","It works the same way as the (six) function, where if the (nine) function produces a value greater than 8, 9 is subtracted. Zero added to any of the other values results in that value, hence the identity trait of zero."],"orientation_history":[[0]],"response_history":["0"],"rt":122370,"trial_type":"polygon-arrow-question","trial_index":0,"trial_index_global":56,"time_elapsed":1111000,"internal_chunk_id":"0-0.12-0"},{"nsides":9,"question":"What is the inverse of 5 under <img src=./images/nonagon_symbol.png style=width:14px;height:14px>?","response_type":"free","response_choices":[],"correct_response":"4","response":"4","explain":false,"explanation":"","explanation_history":[],"orientation_history":[[0]],"response_history":["4"],"rt":14075,"trial_type":"polygon-arrow-question","trial_index":0,"trial_index_global":57,"time_elapsed":1125076,"internal_chunk_id":"0-0.12-0"},{"nsides":9,"question":"What is the inverse of 2 under <img src=./images/nonagon_symbol.png style=width:14px;height:14px>?","response_type":"free","response_choices":[],"correct_response":"7","response":"7","explain":false,"explanation":"","explanation_history":[],"orientation_history":[[0]],"response_history":["7"],"rt":3514,"trial_type":"polygon-arrow-question","trial_index":0,"trial_index_global":58,"time_elapsed":1128590,"internal_chunk_id":"0-0.12 -0"},{"nsides":9,"question":"What is the inverse of 0 under <img src=./images/nonagon_symbol.png style=width:14px;height:14px>?","response_type":"free","response_choices":[],"correct_response":"0","response":"0","explain":false,"explanation":"","explanation_history":[],"orientation_history":[[0]],"response_history":["0"],"rt":2543,"trial_type":"polygon-arrow-question","trial_index":0,"trial_index_global":59,"time_elapsed":1131133,"internal_chunk_id":"0-0.12-0"},{"nsides":9,"question":"What is the inverse of 3 under <img src=./images/nonagon_symbol.png style=width:14px;height:14px>? Please explain in words how you got your answer.","response_type":"free","response_choices":[],"correct_response":"6","response":"6","explain":true,"explanation":"The inverse of a value is the value which results in zero.","explanation_history":["The inverse of the ","The inverse of the","The inverse of th","The inverse of t","The inverse of a value is the value which results in zero."],"orientation_history":[[0]],"response_history":["6"],"rt":30229,"trial_type":"polygon-arrow-question","trial_index":0,"trial_index_global":60,"time_elapsed":1161363,"internal_chunk_id":"0-0.12-0"},{"nsides":9,"question":"Is 2 a generator under <img src=./images/nonagon_symbol.png style=width:14px;height:14px>? Please explain in words how you got your answer.","response_type":"multi","response_choices":["Yes","No"],"correct_response":"Yes","response":"Yes","explain":true,"explanation":"2 can be nined until it reaches every other value.","explanation_history":["2 can be nined until it reaches every other value."],"orientation_history":[[0],[0.9224643377076359,0.9994588469612697,1.0427218783685368,1.0427218783685368,1.154984537770268,1.2011120379995952,1.2011120379995952,1.230865957325276,1.2672255874712326,1.2956070776657254,1.3203532371835447,1.3448371091062559,1.358151404437125,1.3690339824746094,1.382058559274763,1.39292106378882,1.39292106378882,1.3948567013423687,1.3948567013423687,1.3948567013423687,1.3948567013423687,1.3948567013423687,1.3948567013423687,1.3948567013423687,1.3948567013423687,1.4056476493802696,1.4056476493802696,1.4056476493802696,1.4056476493802696,1.4056476493802696,1.4056476493802696,1.4056476493802696,1.4056476493802696,1.4056476493802696,1.4056476493802696,1.4056476493802696,1.3948567013423687,1.382058559274763,1.35578144504739,1.2956070776657254,1.2379761138681473,1.1659045405098132,1.1071487177940904,1.0471116657986532,0.9897140279975695,0.9019841688587639,0.821745784416469,0.7200706937740967,0.6063828863759626,0.49934672168012995,0.3805063771123649,0.29271307522399703,0.19239560151592228,0.19239560151592228,0.11202896242598781,0.0730405653031192,0.04815551305991539,0.03527947359359129,0.01162738295638377,0,0,6.271691560464555,6.260461946337945,6.260461946337945,6.249107595592578,6.24949019983357,6.227686801933869,6.216617143403762,6.195498652050086,6.1846047935407835,6.17491471631913,6.17491471631913,6.17491471631913,6.17491471631913,6.17491471631913,6.17491471631913,6.17491471631913,6.17491471631913,6.18566950389204,6.18566950389204,6.196446968503601,6.2180601438452,6.2397344117880555,6.272316170002316,0.010988568682733568,0.02197448429666249,0.04441521524691083,0.06656816377582375,0.07762150873739349,0.08865588186743745,0.08964671632148646,0.08964671632148646,0.08964671632148646,0.08964671632148646,0.08964671632148646,0.08964671632148646,0.08964671632148646,0.08964671632148646,0.08964671632148646,0.08964671632148646,0.08964671632148646,0.08964671632148646,0.08964671632148646,0.08964671632148646,0.08964671632148646,0.07849010263733192,0.07849010263733192,0.06656816377582375,0.05549850524571687,0.05488986259415385,0.043927767076889834,0.043927767076889834,0.043927767076889834,0.043927767076889834,0.043927767076889834,0.03259714511795275,0.03259714511795275,0.03259714511795275,0.032246882435253754,0.02150206198623117,0.010752273791101219,0,0,0,0,0,0,0,0,0,0,0,0,0,0,0,0,0,0,0,0,0,0,0],[0,0,0,0,0,0.014698465826153528,0.014698465826153528,0.02938423502022025,0.02938423502022025,0.05869250352376021,0.05869250352376021,0.07330255114988926,0.10240392218901273,0.13130743533342382,0.15996737663038818,0.20554390101283748,0.25154722677307384,0.2977867373566676,0.34406584789272077,0.4094895855259151,0.44236393416993813,0.49526723732356137,0.5282463180537413,0.5610534951453843,0.5814943189196287,0.6020964014101672,0.6228439757608413,0.6228439757608413,0.6346959229822129,0.6554172150486448,0.6762384056245502,0.697142050531057,0.697142050531057,0.7181102794086551,0.7391248845318188,0.7601674139878715,0.791523661055814,0.8331121510155541,0.8651482764146435,0.9272952180016122,0.9272952180016122,0.9680889008694776,1.0280170559906854,1.0796240849433385,1.1493444326910742,1.2037827797429035,1.255614336044464,1.2851446540786247,1.3174821819088443,1.3302798228736898,1.3586959445671645,1.3739231939442818,1.388837566954784,1.40344217602178,1.4177405342399199,1.4301788787312468,1.4317365098702837,1.4317365098702837,1.4440625419910573,1.4454342832431495,1.457645345204412,1.4709321117973384,1.4839278754573875,1.4959232532620355,1.4966378451083882,1.509067372574299,1.5208120308234538,1.5208120308234538,1.5208120308234538,1.5208120308234538,1.5208120308234538,1.5208120308234538,1.5208120308234538,1.5208120308234538,1.5208120308234538,1.5208120308234538,1.5208120308234538,1.5208120308234538,1.5208120308234538,1.509067372574299,1.4973356817013224,1.4739239820553451,1.4622502917877087,1.4506021958919544,1.4389827598501808,1.427395003139031,1.417451767282887,1.4060645476329372,1.4060645476329372,1.4060645476329372,1.4060645476329372,1.4060645476329372,1.4060645476329372,1.4060645476329372,1.4060645476329372,1.4060645476329372,1.4060645476329372,1.4060645476329372,1.4060645476329372,1.4060645476329372,1.4060645476329372,1.4060645476329372,1.4060645476329372,1.4060645476329372,1.4060645476329372,1.4060645476329372,1.4060645476329372,1.4060645476329372,1.4060645476329372,1.4060645476329372,1.4060645476329372,1.4060645476329372,1.4060645476329372,1.4060645476329372,1.4060645476329372,1.4060645476329372,1.4060645476329372,1.4060645476329372,1.4060645476329372,1.4060645476329372,1.4060645476329372,1.4060645476329372,1.4060645476329372,1.4060645476329372,1.4060645476329372,1.4060645476329372,1.4060645476329372,1.4060645476329372,1.4060645476329372,1.4060645476329372,1.4060645476329372,1.4060645476329372,1.4060645476329372,1.4060645476329372,1.4060645476329372,1.4060645476329372,1.4060645476329372,1.4060645476329372,1.3962634015954636],[1.3962634015954636,1.3962634015954636,1.3962634015954636,1.3962634015954636,1.3962634015954636,1.3962634015954636,1.3962634015954636,1.3962634015954636,1.3962634015954636,1.4115349415482557,1.4268958400658813,1.4268958400658813,1.4268958400658813,1.4578593922488623,1.4890992256791307,1.50480474051027,1.5205573758835749,1.552173343576043,1.5680210733245683,1.5838847638612363,1.6156281298448163,1.6309962802832947,1.6621752568489836,1.6777230806845687,1.708698403842892,1.73946532114219,1.7547531887769674,1.782316299983933,1.797152006702907,1.797152006702907,1.811900199857502,1.8411119374284302,1.8699096465644314,1.8982553784392056,1.9078092278768026,1.9350808281680376,1.9618438545467547,1.9880751650254922,2.000985245857875,2.0207470211052723,2.033110295935057,2.0453337338276083,2.057416103469919,2.069356366508424,2.069356366508424,2.08115367091033,2.0928073440578374,2.115681960318311,2.1379781484645046,2.1664856643765327,2.1948260705585674,2.222955776787092,2.2508331682975062,2.296105027615977,2.332571548639533,2.376459177238696,2.4023942814450043,2.4368326947329044,2.4619265015202525,2.4619265015202525,2.4958118314243705,2.5199258947282055,2.5434821110589048,2.566474384651965,2.592227287367506,2.6143865435274702,2.620386993294743,2.6359584502069273,2.6416712228947983,2.647274451515947,2.647274451515947,2.647274451515947,2.647274451515947,2.647274451515947,2.647274451515947,2.647274451515947,2.647274451515947,2.647274451515947,2.647274451515947,2.647274451515947,2.647274451515947,2.6569467689251742,2.662380155812593,2.662380155812593,2.672093363181244,2.677357116745223,2.677357116745223,2.677357116745223,2.677357116745223,2.6825197554743982,2.6825197554743982,2.6922003422692655,2.6922003422692655,2.6922003422692655,2.6922003422692655,2.6922003422692655,2.6922003422692655,2.6922003422692655,2.6922003422692655,2.6922003422692655,2.6922003422692655,2.6922003422692655,2.6922003422692655,2.6922003422692655,2.697196731813008,2.7020975093804256,2.711736044941093,2.7164742505547275,2.7211222161766053,2.7211222161766053,2.725682300239549,2.7351994984956205,2.7396037862475464,2.7396037862475464,2.743925280521047,2.743925280521047,2.743925280521047,2.7533832959981197,2.757553056927229,2.757553056927229,2.757553056927229,2.757553056927229,2.757553056927229,2.757553056927229,2.757553056927229,2.757553056927229,2.757553056927229,2.757553056927229,2.792526803190927],[2.792526803190927,2.792526803190927,2.792526803190927,2.792526803190927,2.792526803190927,2.792526803190927,2.792526803190927,2.792526803190927,2.792526803190927,2.792526803190927,2.792526803190927,2.8061006301092966,2.8197984034821624,2.833616619394751,2.879363763848536,2.9362026878192613,2.996263043048018,3.083762127107867,3.1719402419040104,3.2594393259638594,3.344962499240844,3.344962499240844,3.4003143339097304,3.4801599091800806,3.530966773724638,3.567693767321675,3.62090208171075,3.654997128092348,3.705290800650453,3.7437211364454654,3.7738092908120495,3.800683732099702,3.8272550567091463,3.8534915215149894,3.8876139393817097,3.913249347903387,3.9552414551247566,3.9887358928373104,4.012918000394549,4.012918000394549,4.036587048803112,4.052831591827266,4.085091365788919,4.091659847254428,4.107490344084791,4.107490344084791,4.107490344084791,4.107490344084791,4.107490344084791,4.107490344084791,4.107490344084791,4.107490344084791,4.107490344084791,4.116994028787245,4.1232228607655514,4.1232228607655514,4.1232228607655514,4.1232228607655514,4.1232228607655514,4.1232228607655514,4.1232228607655514,4.1232228607655514,4.1232228607655514,4.1232228607655514,4.1232228607655514,4.1232228607655514,4.1232228607655514,4.1232228607655514,4.1232228607655514,4.1232228607655514,4.1232228607655514,4.1232228607655514,4.1232228607655514,4.1232228607655514,4.1232228607655514,4.1232228607655514,4.1232228607655514,4.1232228607655514,4.1232228607655514,4.1232228607655514,4.1232228607655514,4.1232228607655514,4.1232228607655514,4.1232228607655514,4.1232228607655514,4.1232228607655514,4.1232228607655514,4.1232228607655514,4.1232228607655514,4.1232228607655514,4.1232228607655514,4.1232228607655514,4.1232228607655514,4.1232228607655514,4.1232228607655514,4.1232228607655514,4.1232228607655514,4.1232228607655514,4.1232228607655514,4.1232228607655514,4.1232228607655514,4.1232228607655514,4.1232228607655514,4.1232228607655514,4.1232228607655514,4.1232228607655514,4.1232228607655514,4.1232228607655514,4.132793184192776,4.132793184192776,4.132793184192776,4.132793184192776,4.132793184192776,4.132793184192776,4.132793184192776,4.132793184192776,4.1887902047863905],[4.1887902047863905,4.1887902047863905,4.19632723867907,4.19632723867907,4.19632723867907,4.19632723867907,4.19632723867907,4.19632723867907,4.19632723867907,4.19632723867907,4.19632723867907,4.19632723867907,4.19632723867907,4.19632723867907,4.19632723867907,4.19632723867907,4.19632723867907,4.19632723867907,4.19632723867907,4.2036844334325085,4.2036844334325085,4.210867381144159,4.210867381144159,4.210867381144159,4.210867381144159,4.210867381144159,4.210867381144159,4.210867381144159,4.217881484125601,4.217881484125601,4.217881484125601,4.217881484125601,4.217881484125601,4.217881484125601,4.217881484125601,4.217881484125601,4.217881484125601,4.217881484125601,4.217881484125601,4.217881484125601,4.217881484125601,4.217881484125601,4.217881484125601,4.217881484125601,4.217881484125601,4.217881484125601,4.217881484125601,4.217881484125601,4.217881484125601,4.217881484125601,4.217881484125601,4.217881484125601,4.217881484125601,4.217881484125601,4.217881484125601,4.217881484125601,4.217881484125601,4.217881484125601,4.217881484125601,4.217881484125601,4.217881484125601,4.217881484125601,4.217881484125601,4.217881484125601,4.217881484125601,4.217881484125601,4.217881484125601,4.217881484125601,4.217881484125601,4.217881484125601,4.217881484125601,4.217881484125601,4.217881484125601,4.217881484125601,4.217881484125601,4.217881484125601,4.217881484125601,4.217881484125601,4.217881484125601,4.217881484125601,4.217881484125601,4.217881484125601,4.217881484125601,4.217881484125601,4.217881484125601,4.217881484125601,4.217881484125601,4.217881484125601,4.217881484125601,4.217881484125601,4.217881484125601,4.217881484125601,4.217881484125601,4.217881484125601,4.217881484125601,4.217881484125601,4.217881484125601,4.217881484125601,4.217881484125601,4.217881484125601,4.217881484125601,4.217881484125601,4.217881484125601,4.217881484125601,4.217881484125601,4.217881484125601,4.217881484125601,4.217881484125601,4.217881484125601,4.217881484125601,4.217881484125601,4.217881484125601,4.217881484125601,4.217881484125601,4.217881484125601,4.217881484125601,4.217881484125601,4.217881484125601,4.217881484125601,4.217881484125601,4.217881484125601,4.217881484125601,4.217881484125601,4.217881484125601,4.217881484125601,4.217881484125601,4.217881484125601,4.217881484125601,4.217881484125601,4.217881484125601,4.217881484125601,4.217881484125601,4.217881484125601,4.217881484125601,4.217881484125601,4.217881484125601,4.217881484125601,4.217881484125601,4.217881484125601,4.217881484125601,4.217881484125601,4.217881484125601,4.217881484125601,4.217881484125601,4.217881484125601,4.217881484125601,4.217881484125601,4.217881484125601,4.217881484125601,4.217881484125601,4.217881484125601,4.217881484125601,4.217881484125601,4.217881484125601,4.217881484125601,4.217881484125601,4.217881484125601,4.217881484125601,4.217881484125601,4.217881484125601,4.217881484125601,4.217881484125601,4.217881484125601,4.217881484125601,4.217881484125601,4.217881484125601,4.217881484125601,4.217881484125601,4.217881484125601,4.217881484125601,4.217881484125601,4.217881484125601,4.217881484125601,4.217881484125601,4.217881484125601,4.217881484125601,4.217881484125601,4.217881484125601,4.217881484125601,4.217881484125601,4.217881484125601,4.217881484125601,4.217881484125601,4.217881484125601,4.217881484125601,4.217881484125601,4.217881484125601,4.217881484125601,4.217881484125601,4.217881484125601,4.217881484125601,4.217881484125601,4.217881484125601,4.217881484125601,4.217881484125601,4.217881484125601,4.217881484125601,4.217881484125601,4.217881484125601,4.217881484125601,4.217881484125601,4.217881484125601,4.217881484125601,4.217881484125601,4.217881484125601,4.217881484125601,4.217881484125601,4.217881484125601,4.217881484125601,4.217881484125601,4.217881484125601,4.217881484125601,4.217881484125601,4.217881484125601,4.217881484125601,4.217881484125601,4.217881484125601,4.217881484125601,4.217881484125601,4.217881484125601,4.217881484125601,4.217881484125601,4.217881484125601,4.217881484125601,4.217881484125601,4.217881484125601,4.217881484125601,4.217881484125601,4.217881484125601,4.217881484125601,4.217881484125601,4.217881484125601,4.217881484125601,4.217881484125601,4.217881484125601,4.217881484125601,4.217881484125601,4.217881484125601,4.217881484125601,4.217881484125601,4.217881484125601,4.229765474723261,4.229765474723261,4.229765474723261,4.222845169973021,4.23499190797125,4.23499190797125,4.2473075347806635,4.2473075347806635,4.2473075347806635,4.2473075347806635,4.2473075347806635,4.2473075347806635,4.2473075347806635,4.2473075347806635,4.2473075347806635,4.2473075347806635,4.2473075347806635,4.2597917834582555,4.2597917834582555,4.2597917834582555,4.2597917834582555,4.2597917834582555,4.2597917834582555,4.2597917834582555,4.253017097533724,4.253017097533724,4.265785924152451,4.265785924152451,4.265785924152451,4.265785924152451,4.265785924152451,4.278728125323046,4.291842832421994,4.291842832421994,4.305128916220142,4.305128916220142,4.318584975847225,4.312284429156242,4.326057662836843,4.340003760018859,4.354120469270023,4.34811814039455,4.34811814039455,4.36257437414847,4.377202638851199,4.3919996526181135,4.401525626051464,4.416852121426898,4.43234233535738,4.443032717564932,4.459065099058164,4.470611929964672,4.5039329258429195,4.5378182557470375,4.554952441709891,4.586712755506402,4.622319461689812,4.658251701769038,4.693413083724066,4.730395186901775,4.767427991037793,4.767427991037793,4.822850626627724,4.861639200560162,4.91711836082687,4.957376807349772,5.011906320650703,5.064881860922764,5.1055317249212155,5.156167437044631,5.21255919797059,5.259399910886559,5.298286073741335,5.312995310019441,5.341608993704846,5.378945498515699,5.392412697763068,5.418550534646421,5.418550534646421,5.431228143844532,5.466233294109233,5.478188969666055,5.489894537120321,5.523321183684499,5.534309752367232,5.545062026158333,5.5665566348024855,5.576837286987016,5.576837286987016,5.576837286987016,5.576837286987016,5.576837286987016,5.576837286987016,5.576837286987016,5.576837286987016,5.576837286987016,5.576837286987016,5.576837286987016,5.576837286987016,5.576837286987016,5.576837286987016,5.576837286987016,5.576837286987016,5.585053606381854],[5.585053606381854,5.585053606381854,5.585053606381854,5.585053606381854,5.585053606381854,5.585053606381854,5.585053606381854,5.585053606381854,5.585053606381854,5.585053606381854,5.585053606381854,5.585053606381854,5.585053606381854,5.585053606381854,5.585053606381854,5.585053606381854,5.585053606381854,5.585053606381854,5.585053606381854,5.585053606381854,5.585053606381854,5.585053606381854,5.585053606381854,5.585053606381854,5.585053606381854,5.585053606381854,5.585053606381854,5.585053606381854,5.585053606381854,5.585053606381854,5.585053606381854,5.585053606381854,5.585053606381854,5.585053606381854,5.585053606381854,5.585053606381854,5.585053606381854,5.585053606381854,5.585053606381854,5.585053606381854,5.585053606381854,5.585053606381854,5.585053606381854,5.585053606381854,5.585053606381854,5.585053606381854,5.585053606381854,5.585053606381854,5.585053606381854,5.585053606381854,5.585053606381854,5.585053606381854,5.585053606381854,5.585053606381854,5.585053606381854,5.585053606381854,5.585053606381854,5.585053606381854,5.585053606381854,5.585053606381854,5.585053606381854,5.585053606381854,5.585053606381854,5.585053606381854,5.585053606381854,5.585053606381854,5.585053606381854,5.585053606381854,5.585053606381854,5.585053606381854,5.585053606381854,5.585053606381854,5.585053606381854,5.585053606381854,5.585053606381854,5.585053606381854,5.585053606381854,5.585053606381854,5.585053606381854,5.585053606381854,5.585053606381854,5.585053606381854,5.585053606381854,5.585053606381854,5.585053606381854,5.585053606381854,5.585053606381854,5.585053606381854,5.585053606381854,5.585053606381854,5.585053606381854,5.585053606381854,5.585053606381854,5.585053606381854,5.585053606381854,5.585053606381854,5.585053606381854,5.585053606381854,5.585053606381854,5.585053606381854,5.585053606381854,5.585053606381854,5.585053606381854,5.585053606381854,5.585053606381854,5.585053606381854,5.585053606381854,5.585053606381854,5.585053606381854],[5.585053606381854,5.585053606381854,5.585053606381854,5.585053606381854,5.585053606381854,5.585053606381854,5.585053606381854,5.585053606381854,5.585053606381854,5.585053606381854,5.585053606381854,5.585053606381854,5.585053606381854,5.595760734465215,5.60540808616329,5.60540808616329,5.645948775277065,5.66861491806075,5.721333078292864,5.766341825419469,5.825492125432285,5.8592538239748455,5.9207502579605125,5.963601571064019,6.042719333980668,6.107576185005957,6.169744963753218,6.169744963753218,6.23318431172885,6.297922713382979,0.0940558830088345,0.1571300009057468,0.23469428503662182,0.3140890845166129,0.3874517332282006,0.44938437058536684,0.5434413846109043,0.6019665149973947,0.6583752141665178,0.692775001647228,0.7233876315743281,0.7233876315743281,0.7341440357705806,0.7341440357705806,0.7341440357705806,0.7341440357705806,0.7447136685750162,0.7535998026080214,0.7640141202729955,0.7640141202729955,0.7742425156518254,0.7742425156518254,0.7742425156518254,0.7742425156518254,0.7742425156518254,0.7742425156518254,0.7742425156518254,0.7742425156518254,0.7742425156518254,0.7742425156518254,0.7742425156518254,0.7742425156518254,0.7742425156518254,0.7742425156518254,0.7742425156518254,0.7742425156518254,0.7742425156518254,0.7742425156518254,0.7742425156518254,0.7742425156518254,0.7742425156518254,0.7742425156518254,0.7742425156518254,0.7742425156518254,0.7742425156518254,0.7742425156518254,0.6981317007977318]],"response_history":["Yes"],"rt":99791,"trial_type":"polygon-arrow-question","trial_index":0,"trial_index_global":61,"time_elapsed":1261154,"internal_chunk_id":"0-0.12-0"},{"nsides":9,"question":"Is 3 a generator under <img s rc=./i mages/nonagon_symbol.png style=width:14px;height:14px>? Please explain in words how you got your answer.","response_type":"multi","response_choices":["Yes","No"],"correct_response":"No","response":"No","explain":true,"explanation":"3 cannot make all the other values.","explanation_history":["Thre","Thr","Th","T","3 cannot make all the other values."],"orientation_history":[[0],[0,0,0,0,0.014858077082712029,0.029742558759266124,0.05956452522379596,-6.1625754009511935,-6.098039295791809,-5.97946458368871,-5.834362900958121,-5.662529953531917,-5.457767454567764,-5.272283010646897,-5.158809971019024,-5.071254039252839,-4.98443905460475,-4.892024939726442,-4.80904879558699,-4.744635862819944,-4.66088464761226,-4.66088464761226,-4.6038224785838,-4.53711919108614,-4.492858491844203,-4.438344806465521,-4.38500612507521,-4.333097165580571,-4.29274254032814,-4.272987091009014,-4.2439071548985705,-4.23436525515617,-4.2249004734501145,-4.215513553723481,-4.215513553723481,-4.206205172854482,-4.206205172854482,-4.206205172854482,-4.206205172854482,-4.206205172854482,-4.206205172854482,-4.206205172854482,-4.206205172854482,-4.206205172854482,-4.206205172854482,-4.206205172854482,-4.206205172854482,-4.206205172854482,-4.206205172854482,-4.206205172854482,-4.206205172854482,-4.206205172854482,-4.206205172854482,-4.206205172854482,-4.206205172854482,-4.206205172854482,-4.206205172854482,-4.206205172854482,-4.206205172854482,-4.201895307812727,-4.201895307812727,-4.192599146283122,-4.1881405771009685,-4.174252581170002,-4.155386895148331,-4.135993747118815,-4.112131656181617,-4.0862452076422615,-4.04989758662324,-4.0033473883943,-3.96492915760355,-3.925542592076479,-3.893130064454733,-3.860766301433011,-3.8105099195519903,-3.767958271260362,-3.7227994896174477,-3.675793170703323,-3.6162567660549225,-3.6162567660549225,-3.5654196575862174,-3.489355016827184,-3.3974012182051654,-3.291815031790554,-3.1949737819359116,-3.0813886059633084,-2.9815985696977068,-2.9112356619775888,-2.8255381562805857,-2.7716630262321917,-2.7019024135877387,-2.651611767435021,-2.6094442067590187,-2.5740529661711005,-2.5447004316593826,-2.522239947924368,-2.500374645852405,-2.500374645852405,-2.4826599636665603,-2.4615591997709414,-2.451233911436385,-2.451233911436385,-2.451233911436385,-2.451233911436385,-2.451233911436385,-2.451233911436385,-2.451233911436385,-2.451233911436385,-2.451233911436385,-2.451233911436385,-2.451233911436385,-2.451233911436385,-2.44105734088238,-2.4310283606721605,-2.4136775221951496,-2.4136775221951496,-2.3865826387086972,-2.3692010407808546,-2.3598073776984485,-2.342500255853252,-2.333383784460893,-2.3161748009779712,-2.3073411085001405,-2.298945371172993,-2.2902525004110745,-2.2817056999784633,-2.2731588995458516,-2.2647581701720583,-2.2560702914567856,-2.2560702914567856,-2.2472365989789553,-2.2389966442134592,-2.230027615496033,-2.2219478735900657,-2.2128492106774185,-2.1957114087842227,-2.1957114087842227,-2.1957114087842227,-2.1863436530760536,-2.1863436530760536,-2.1863436530760536,-2.1863436530760536,-2.1863436530760536,-2.1863436530760536,-2.1863436530760536,-2.1768287612482293,-2.169140084174778,-2.169140084174778,-2.1595105292871084,-2.142265642887126,-2.142265642887126,-2.125103822996448,-2.1151223033187003,-2.1151223033187003,-2.1151223033187003,-2.1151223033187003,-2.1151223033187003,-2.1151223033187003,-2.1151223033187003,-2.1151223033187003,-2.1151223033187003,-2.1151223033187003,-2.1151223033187003,-2.1151223033187003,-2.1151223033187003,-2.1151223033187003,-2.1151223033187003,-2.1151223033187003,-2.1151223033187003,-2.1151223033187003,-2.1151223033187003,-2.1151223033187003,-2.1151223033187003,-2.1151223033187003,-2.1151223033187003,-2.1151223033187003,-2.1151223033187003,-2.1151223033187003,-2.1151223033187003,-2.1151223033187003,-2.1151223033187003,-2.1151223033187003,-2.1151223033187003,-2.1151223033187003,-2.1151223033187003,-2.1151223033187003,-2.1151223033187003,-2.1151223033187003,-2.1151223033187003,-2.1151223033187003,-2.1151223033187003,-2.1151223033187003,-2.1151223033187003,-2.1151223033187003,-2.1151223033187003,-2.1151223033187003,-2.1151223033187003,-2.1151223033187003,-2.1151223033187003,-2.1151223033187003,-2.1151223033187003,-2.1151223033187003,-2.1151223033187003,-2.1151223033187003,-2.1151223033187003,-2.1151223033187003,-2.1151223033187003,-2.1151223033187003,-2.1151223033187003,-2.1151223033187003,-2.1151223033187003,-2.1151223033187003,-2.1151223033187003,-2.1151223033187003,-2.1151223033187003,-2.1151223033187003,-2.1151223033187003,-2.1151223033187003,-2.1151223033187003,-2.1151223033187003,-2.1151223033187003,-2.1151223033187003,-2.1151223033187003,-2.1151223033187003,-2.1151223033187003,-2.1151223033187003,-2.1151223033187003,-2.1151223033187003,-2.1151223033187003,-2.1151223033187003,-2.1151223033187003,-2.1151223033187003,-2.1151223033187003,-2.1151223033187003,-2.1151223033187003,-2.1151223033187003,-2.1151223033187003,-2.1151223033187003,-2.1151223033187003,-2.1151223033187003,-2.1151223033187003,-2.1151223033187003,-2.1151223033187003,-2.1151223033187003,-2.1151223033187003,-2.1151223033187003,-2.1151223033187003,-2.1151223033187003,-2.1151223033187003,-2.1151223033187003,-2.1151223033187003,-2.1151223033187003,-2.1151223033187003,-2.1151223033187003,-2.1151223033187003,-2.1151223033187003,-2.1151223033187003,-2.1151223033187003,-2.1151223033187003,-2.1151223033187003,-2.1151223033187003,-2.1151223033187003,-2.1151223033187003,-2.1151223033187003,-2.1151223033187003,-2.1151223033187003,-2.1151223033187003,-2.1151223033187003,-2.1151223033187003,-2.1151223033187003,-2.1151223033187003,-2.1151223033187003,-2.1151223033187003,-2.1151223033187003,-2.1151223033187003,-2.1151223033187003,-2.1151223033187003,-2.1151223033187003,-2.1151223033187003,-2.1151223033187003,-2.1151223033187003,-2.1151223033187003,-2.1151223033187003,-2.1151223033187003,-2.1151223033187003,-2.1151223033187003,-2.1151223033187003,-2.1151223033187003,-2.1151223033187003,-2.1151223033187003,-2.1151223033187003,-2.1151223033187003,-2.1151223033187003,-2.1151223033187003,-2.1151223033187003,-2.1151223033187003,-2.1151223033187003,-2.1151223033187003,-2.1151223033187003,-2.1151223033187003,-2.1151223033187003,-2.1151223033187003,-2.1151223033187003,-2.1151223033187003,-2.1151223033187003,-2.1151223033187003,-2.1151223033187003,-2.1151223033187003,-2.1151223033187003,-2.1151223033187003,-2.1151223033187003,-2.1151223033187003,-2.1151223033187003,-2.1151223033187003,-2.1151223033187003,-2.1151223033187003,-2.1151223033187003,-2.1151223033187003,-2.1151223033187003,-2.1151223033187003,-2.1151223033187003,-2.1151223033187003,-2.1151223033187003,-2.1151223033187003,-2.1151223033187003,-2.1151223033187003,-2.1151223033187003,-2.1151223033187003,-2.1151223033187003,-2.1151223033187003,-2.1151223033187003,-2.1151223033187003,-2.1151223033187003,-2.1151223033187003,-2.1151223033187003,-2.1151223033187003,-2.1151223033187003,-2.1151223033187003,-2.1151223033187003,-2.1151223033187003,-2.1151223033187003,-2.1049968439084266,-2.1049968439084266,-2.094726430059552,-2.080751436290366,-2.0590447593420977,-2.0253380076606637,-1.9782457885386409,-1.9473771925695385,-1.9087179781784025,-1.8550782068515872,-1.7991924049559858,-1.7412861997078792,-1.684529041885786,-1.6087346674112046,-1.5290826809850904,-1.4629865407027678,-1.361536252103284,-1.361536252103284,-1.2758137752143428,-1.1904286651761629,-1.1002260950167075,-1.0179551052023577,-0.9172332672132848,-0.8338812427478635,-0.7543602685750974,-0.668381838563783,-0.5890669361636496,-0.5135138133336854,-0.4429989507602272,-0.3776650720718946,-0.31745873525463164,-0.26612745020443196,-0.22908194910978263,-0.18396614599413663,-0.1547431430631141,-0.11669566938313292,-0.11669566938313292,-0.09236637018590788,-0.05873796142649734,-0.03728825132059743,-0.015269383976069584,0.015152584510510714,0.03529318828682637,0.05507375431156358,-6.208696516965705,-6.199081428666002,-6.199081428666002,-6.199081428666002,-6.199081428666002,-6.199081428666002,-6.199081428666002,-6.199081428666002,-6.199081428666002,-6.199081428666002,-6.199081428666002,-6.199081428666002,-6.199081428666002,-6.199081428666002,-6.199081428666002,-6.199081428666002,-6.199081428666002,-6.199081428666002,-6.199081428666002,-6.199081428666002,-6.199081428666002,-6.199081428666002,-6.199081428666002,-6.208696516965705,0.06478035737977272,0.05488345935667649,0.0450855020098766,0.04479455060697202,0.04479455060697202,0.034510103090591215,0.024530394491939056,0.024026616197025952,0.024026616197025952,0.024026616197025952,0.024026616197025952,0.024026616197025952,0.024026616197025952,0.024026616197025952,0.024026616197025952,0.024026616197025952,0.024026616197025952,0.024026616197025952,0.024026616197025952,0.024026616197025952,0.024026616197025952,0.024026616197025952,0.024026616197025952,6.283185307179586],[6.283185307179586,6.282783216328719,6.282783216328719,6.282783216328719,6.282783216328719,6.282783216328719,6.282783216328719,6.282783216328719,6.282783216328719,6.282783216328719,6.282783216328719,6.282783216328719,6.282783216328719,6.282783216328719,6.282783216328719,6.282783216328719,6.282783216328719,6.282783216328719,6.282783216328719,6.282783216328719,6.283185307179586]],"response_history":["No"],"rt":36733,"trial_type":"polygon-arrow-question","trial_index":0,"trial_index_global":62,"time_elapsed":1297888,"internal_chunk_id":"0-0.12-0"},{"nsides":9,"question":"Is 5 a generator under <img src=./images/nonagon_symbol.png style=width:14px;height:14px>? Please explain in words how you got your answer.","response_type":"multi","response_choices":["Yes","No"],"correct_response":"Yes","response":"Yes","explain":true,"explanation":"5 can be combined enough times to reach all the other values.","explanation_history":["5 can be combined enough times to erw","5 can be combined enough times to er","5 can be combined enough times to e","5 can be combined enough times to reach  all the  other values."],"orientation_history":[[0],[0,0,0,0,0,0,0,0,0.014704822377851423,0.02940328820400495,0.07339732590161163,0.12970253715591196,0.20018106796588864,0.2782996590051112,0.3681307713251636,0.3681307713251636,0.4405303406165131,0.5144513130590278,0.5880026035475675,0.6688121579361327,0.7763893981070313,0.8859750808522963,1.0417658557152478,1.240498971965643,1.4909663410826592,1.6485612663976288,1.8004387690800312,1.9080495151165553,1.9914596759279315,2.0971886910213167,2.1683527797800615,2.218853212725411,2.2831539248892256,2.2831539248892256,2.348064588012401,2.42167451511581,2.4815836105338613,2.5368131007766124,2.638193269193139,2.7939857938338912,3.0681953276881817,3.379428581047244,3.6774038915502567,3.884998709765872,3.99455698442374,4.048688599010338,4.066915487561359,4.066915487561359,4.066915487561359,4.066915487561359,4.066915487561359,4.066915487561359,4.066915487561359,4.066915487561359,4.066915487561359,4.060935752933904,4.0548607355472415,4.042417477354166,4.008292688595638,4.008292688595638,3.956832701654351,3.9345094722995455,3.8966970570684665,3.843217873243475,3.780755394807455,3.7326255508922235,3.7083218711132995,3.683895390805398,3.6782808278937185,3.6688797006040796,3.6688797006040796,3.6688797006040796,3.6688797006040796,3.6688797006040796,3.6688797006040796,3.6688797006040796,3.6688797006040796,3.6688797006040796,3.6593745122024797,3.644435864517654,3.6296256717633177,3.614948695424708,3.600409382296623,3.576262868739038,3.547886963499433,3.5240792261337255,3.4966642038646825,3.4633432079864352,3.4400915851759724,3.427055513856538,3.427055513856538,3.4142024735704153,3.4142024735704153,3.4142024735704153,3.4142024735704153,3.4142024735704153,3.4142024735704153,3.4142024735704153,3.4142024735704153,3.4142024735704153,3.4142024735704153,3.4142024735704153,3.4170187572858284,3.427055513856538,3.427055513856538,3.430022212108188,3.4400915851759724,3.4400915851759724,3.4400915851759724,3.4400915851759724,3.4400915851759724,3.4400915851759724,3.4400915851759724,3.4400915851759724,3.4400915851759724,3.4400915851759724,3.4400915851759724,3.4400915851759724,3.4400915851759724,3.4400915851759724,3.4400915851759724,3.4400915851759724,3.4400915851759724,3.4400915851759724,3.4400915851759724,3.4400915851759724,3.4400915851759724,3.4400915851759724,3.4400915851759724,3.4400915851759724,3.4400915851759724,3.4400915851759724,3.4400915851759724,3.4400915851759724,3.4400915851759724,3.4400915851759724,3.4400915851759724,3.4400915851759724,3.4400915851759724,3.4400915851759724,3.4400915851759724,3.4400915851759724,3.4400915851759724,3.4400915851759724,3.4400915851759724,3.4400915851759724,3.4400915851759724,3.4400915851759724,3.4400915851759724,3.4400915851759724,3.4400915851759724,3.4400915851759724,3.4500989493217062,3.4500989493217062,3.4500989493217062,3.4500989493217062,3.4500989493217062,3.45331009983906,3.45331009983906,3.4633432079864352,3.466710198629943,3.4767652207265263,3.4940502764164973,3.4940502764164973,3.518082988036316,3.5464844398748765,3.595190349697565,3.6621734870814526,3.766003003216434,3.8753127325048116,3.9795738785981833,4.068887871591405,4.176242958372455,4.287827600020332,4.382764572963947,4.461386293741655,4.553252254585996,4.651488772106702,4.7605444934446055,4.832292965749714,4.925949413865178,5.019434712403481,5.019434712403481,5.103624559511864,5.181217890169734,5.248824437989421,5.325945125896606,5.39248701421809,5.465540261346884,5.537765830905428,5.594260918964725,5.641941530895292,5.698307693459553,5.729330914707788,5.754303756426461,5.789243938260006,5.809587777785975,5.834461963168865,5.859317696649807,5.879766273879774,5.879766273879774,5.904757929150909,5.940161366758883,5.975618198774253,6.021859326557084,6.057226089490945,6.092354204458324,6.125416569583632,6.1491621055995225,6.171295041007911,6.1824043080949185,6.1824043080949185,6.1824043080949185,6.1935385908580995,6.194529425312149,6.194529425312149,6.194529425312149,6.194529425312149,6.194529425312149,6.194529425312149,6.194529425312149,6.194529425312149,6.194529425312149,6.194529425312149,6.194529425312149,6.194529425312149,6.194529425312149,6.194529425312149,6.194529425312149,6.194529425312149,6.194529425312149,6.194529425312149,6.194529425312149,6.194529425312149,6.194529425312149,6.194529425312149,6.194529425312149,6.194529425312149,6.194529425312149,6.194529425312149,6.194529425312149,6.194529425312149,6.194529425312149,6.194529425312149,6.194529425312149,6.194529425312149,6.194529425312149,6.194529425312149,6.194529425312149,6.194529425312149,6.194529425312149,6.194529425312149,6.194529425312149,6.194529425312149,6.194529425312149,6.194529425312149,6.194529425312149,6.194529425312149,6.194529425312149,6.194529425312149,6.194529425312149,6.194529425312149,6.194529425312149,6.194529425312149,6.194529425312149,6.194529425312149,6.194529425312149,6.194529425312149,6.194529425312149,6.194529425312149,6.194529425312149,6.194529425312149,6.194529425312149,6.194529425312149,6.194529425312149,6.194529425312149,6.194529425312149,6.194529425312149,6.194529425312149,6.194529425312149,6.194529425312149,6.194529425312149,6.194529425312149,6.194529425312149,6.194529425312149,6.194529425312149,6.205563798442193,6.216617143403762,6.250230209565288,0.010869137177270227,0.05429441190830597,0.10827059086045598,0.1494157099164677,0.20152776773533332,0.20152776773533332,0.2322889889710218,0.26984915593846925,0.28950367196138815,0.3185556770880671,0.34706160353949045,0.3749917271333685,0.3932794050538968,0.42019671360927524,0.4551008085681947,0.4805236438477274,0.4888523543277479,0.4971079194504562,0.5052901880993945,0.5133990510833193,0.5214344397717436,0.5340703792366079,0.541999277787331,0.541999277787331,0.5576321976566883,0.5653364607638831,0.5880026035475675,0.6100039428540257,0.6223028711872075,0.6294422811576144,0.636508215787951,0.636508215787951,0.6435011087932844,0.6435011087932844,0.6435011087932844,0.6435011087932844,0.6435011087932844,0.6435011087932844,0.6435011087932844,0.6435011087932844,0.6435011087932844,0.6435011087932844,0.6435011087932844,0.6435011087932844,0.6435011087932844,0.6435011087932844,0.6435011087932844,0.6435011087932844,0.6435011087932844,0.6435011087932844,0.6435011087932844,0.6435011087932844,0.6435011087932844,0.6435011087932844,0.6435011087932844,0.6435011087932844,0.6435011087932844,0.6435011087932844,0.6435011087932844,0.6435011087932844,0.6435011087932844,0.6435011087932844,0.6435011087932844,0.6435011087932844,0.6435011087932844,0.6435011087932844,0.6435011087932844,0.6435011087932844,0.6435011087932844,0.6435011087932844,0.6435011087932844,0.6435011087932844,0.6435011087932844,0.6435011087932844,0.6435011087932844,0.6435011087932844,0.6435011087932844,0.6435011087932844,0.6435011087932844,0.6435011087932844,0.6435011087932844,0.6435011087932844,0.6435011087932844,0.6435011087932844,0.6435011087932844,0.6435011087932844,0.6435011087932844,0.6435011087932844,0.6435011087932844,0.6435011087932844,0.6435011087932844,0.6435011087932844,0.6435011087932844,0.6435011087932844,0.6435011087932844,0.6435011087932844,0.6435011087932844,0.6435011087932844,0.6435011087932844,0.6435011087932844,0.6435011087932844,0.6435011087932844,0.6435011087932844,0.6435011087932844,0.6435011087932844,0.6435011087932844,0.6435011087932844,0.6435011087932844,0.6435011087932844,0.6435011087932844,0.6435011087932844,0.6435011087932844,0.6435011087932844,0.6435011087932844,0.6435011087932844,0.6435011087932844,0.6435011087932844,0.6435011087932844,0.6435011087932844,0.6435011087932844,0.6435011087932844,0.6435011087932844,0.6435011087932844,0.6435011087932844,0.6435011087932844,0.6435011087932844,0.6435011087932844,0.6435011087932844,0.6435011087932844,0.6435011087932844,0.6435011087932844,0.6435011087932844,0.6435011087932844,0.6435011087932844,0.6435011087932844,0.6435011087932844,0.6435011087932844,0.6435011087932844,0.6435011087932844,0.6435011087932844,0.6435011087932844,0.6435011087932844,0.6435011087932844,0.6435011087932844,0.6487550009063612,0.6540827244143602,0.6540827244143602,0.6719631715902319,0.6831914452901947,0.7076332237947159,0.7454194762741582,0.7922946057857967,0.8643702711388405,0.9380474917927134,1.0169419343230985,1.0966778962893935,1.1722738811284763,1.2490457723982544,1.3521273809209546,1.4553696664279718,1.602036160225165,1.7247409912532465,1.8692952583810758,1.8692952583810758,1.9909930404041718,2.1763409903998667,2.372066173184135,2.6253619829780455,2.8794728123243205,3.1638112189165124,3.3865713167166573,3.5392206451119224,3.682012153860377,3.8066953400592873,3.8966970570684665,3.9824893222329583,4.039556432790927,4.082743797738534,4.124386376837123,4.142348516684979,4.16282896685831,4.182799381602614,4.193242866138167,4.193242866138167,4.207290473325692,4.216345302018512,4.22122538209843,4.23948237672176,4.253349633694004,4.262629367314851,4.262629367314851,4.271992994194346,4.271992994194346,4.271992994194346,4.271992994194346,4.271992994194346,4.271992994194346,4.271992994194346,4.271992994194346,4.271992994194346,4.271992994194346,4.271992994194346,4.271992994194346,4.271992994194346,4.271992994194346,4.271992994194346,4.271992994194346,4.271992994194346,4.271992994194346,4.271992994194346,4.271992994194346,4.271992994194346,4.271992994194346,4.271992994194346,4.271992994194346,4.271992994194346,4.271992994194346,4.271992994194346,4.271992994194346,4.271992994194346,4.271992994194346,4.271992994194346,4.271992994194346,4.271992994194346,4.271992994194346,4.271992994194346,4.271992994194346,4.271992994194346,4.271992994194346,4.271992994194346,4.271992994194346,4.271992994194346,4.271992994194346,4.271992994194346,4.271992994194346,4.271992994194346,4.271992994194346,4.271992994194346,4.271992994194346,4.271992994194346,4.271992994194346,4.271992994194346,4.271992994194346,4.271992994194346,4.271992994194346,4.271992994194346,4.271992994194346,4.271992994194346,4.271992994194346,4.271992994194346,4.271992994194346,4.271992994194346,4.271992994194346,4.271992994194346,4.271992994194346,4.271992994194346,4.271992994194346,4.271992994194346,4.271992994194346,4.271992994194346,4.271992994194346,4.271992994194346,4.271992994194346,4.271992994194346,4.271992994194346,4.271992994194346,4.271992994194346,4.271992994194346,4.271992994194346,4.271992994194346,4.271992994194346,4.271992994194346,4.271992994194346,4.271992994194346,4.271992994194346,4.271992994194346,4.271992994194346,4.271992994194346,4.271992994194346,4.271992994194346,4.271992994194346,4.271992994194346,4.271992994194346,4.271992994194346,4.271992994194346,4.271992994194346,4.271992994194346,4.271992994194346,4.271992994194346,4.271992994194346,4.271992994194346,4.271992994194346,4.271992994194346,4.271992994194346,4.271992994194346,4.271992994194346,4.271992994194346,4.271992994194346,4.271992994194346,4.271992994194346,4.271992994194346,4.271992994194346,4.271992994194346,4.271992994194346,4.271992994194346,4.271992994194346,4.271992994194346,4.271992994194346,4.271992994194346,4.271992994194346,4.271992994194346,4.271992994194346,4.271992994194346,4.271992994194346,4.271992994194346,4.271992994194346,4.271992994194346,4.271992994194346,4.271992994194346,4.271992994194346,4.271992994194346,4.271992994194346,4.271992994194346,4.271992994194346,4.271992994194346,4.271992994194346,4.271992994194346,4.271992994194346,4.271992994194346,4.271992994194346,4.271992994194346,4.271992994194346,4.271992994194346,4.271992994194346,4.271992994194346,4.271992994194346,4.271992994194346,4.271992994194346,4.271992994194346,4.271992994194346,4.271992994194346,4.271992994194346,4.271992994194346,4.271992994194346,4.271992994194346,4.271992994194346,4.271992994194346,4.271992994194346,4.271992994194346,4.271992994194346,4.271992994194346,4.271992994194346,4.271992994194346,4.271992994194346,4.271992994194346,4.271992994194346,4.271992994194346,4.271992994194346,4.271992994194346,4.271992994194346,4.271992994194346,4.271992994194346,4.271992994194346,4.271992994194346,4.271992994194346,4.271992994194346,4.271992994194346,4.271992994194346,4.271992994194346,4.271992994194346,4.271992994194346,4.271992994194346,4.271992994194346,4.271992994194346,4.271992994194346,4.271992994194346,4.271992994194346,4.271992994194346,4.271992994194346,4.271992994194346,4.271992994194346,4.271992994194346,4.271992994194346,4.271992994194346,4.271992994194346,4.271992994194346,4.271992994194346,4.271992994194346,4.271992994194346,4.271992994194346,4.271992994194346,4.271992994194346,4.271992994194346,4.271992994194346,4.271992994194346,4.271992994194346,4.271992994194346,4.271992994194346,4.271992994194346,4.271992994194346,4.271992994194346,4.271992994194346,4.271992994194346,4.271992994194346,4.271992994194346,4.271992994194346,4.271992994194346,4.271992994194346,4.271992994194346,4.271992994194346,4.271992994194346,4.271992994194346,4.271992994194346,4.271992994194346,4.271992994194346,4.281439992984313,4.300581675022974,4.320048836169174,4.345994569635449,4.376750430057081,4.404821871979356,4.426337538667372,4.459123214153937,4.492474705142066,4.524167475079919,4.547240302970063,4.582177537420293,4.605653307735555,4.652935321076033,4.68858395419962,4.68858395419962,4.71238898038469,4.724436590238875,4.736480703809611,4.7605444934446055,4.784552609344347,4.809642178636255,4.833740980955453,4.845739234556242,4.869617031361258,4.895499797647174,4.919262929364432,4.957367643511554,5.007326039233496,5.057036296002716,5.095132490230265,5.133052329517724,5.170689046776345,5.224127822700048,5.224127822700048,5.270988295728252,5.323114944773899,5.367383835893005,5.417316132516677,5.46605177025368,5.5134108724026145,5.560205953778095,5.605065999430541,5.641820947271133,5.671588262871325,5.698072868995158,5.726781377990637,5.7409958972527075,5.769121741289959,5.787874076103166,5.810488171464996,5.83747299455095,5.859874551475866,5.859874551475866,5.873057966638095,5.899015942786987,5.930194919352676,5.952089230475454,5.976818154563539,5.995477323631308,6.01947347271732,6.047640326458723,6.068713608431347,6.089563314323641,6.110175156502424,6.12907719061416,6.148090868730231,6.1576355700710605,6.168308701762687,6.187326160069573,6.187326160069573,6.196861906239123,6.216617143403762,6.245108481589783,6.2641399911975695,0.009433682406000843,0.037717952466864046,0.06594198978127008,0.08470251086965774,0.09318726176887915,0.1116828618398995,0.1392792595368464,0.15756156958565892,0.17573829668536667,0.20278150417940966,0.22064718266034355,0.255943136004682,0.2905991617550352,0.3161326359716867,0.3161326359716867,0.34952119099006307,0.3821166816786121,0.4173486730604825,0.44843965607506897,0.478627761768176,0.511937176307204,0.5446507867250179,0.5723088248413939,0.5969110538492552,0.6165662613863275,0.6403564650708427,0.6590037427183008,0.6819436988144723,0.6995878987009461,0.7216548508647612,0.7487653441734022,0.7802168626132097,0.8058034940839863,0.8058034940839863,0.8358603374143041,0.8652281491096856,0.8938814749524197,0.9231343543577928,0.9561333748727311,0.980888963646129,1.0056468867881372,1.0245152289440171,1.0397662219507142,1.0516502125483735,1.0670467717043346,1.0763891917236212,1.0885750025670429,1.0978897231319673,1.1040527524535408,1.1164942401015803,1.1257801020393552,1.1257801020393552,1.1383885512243588,1.160389890530817,1.1824776086224307,1.2046305571513436,1.2268272070715354,1.2512532743312446,1.2733235621137904,1.2953702230988613,1.3106417630516531,1.3258176636680323,1.339307570448054,1.3476262860370574,1.3543813215067924,1.361156480920684,1.3693412493262085,1.3761107874109466,1.384182020363431,1.384182020363431,1.3909428270024182,1.4056476493802696,1.4124119205065302,1.413486234633837,1.4202206086986735,1.4202206086986735,1.4202206086986735,1.4202206086986735,1.4202206086986735,1.4202206086986735,1.4202206086986735,1.4202206086986735,1.4202206086986735,1.4202206086986735,1.4202206086986735,1.4202206086986735,1.4202206086986735,1.4202206086986735,1.4202206086986735,1.4202206086986735,1.4202206086986735,1.4202206086986735,1.4202206086986735,1.4202206086986735,1.4202206086986735,1.4202206086986735,1.4202206086986735,1.4202206086986735,1.4202206086986735,1.4202206086986735,1.4202206086986735,1.4202206086986735,1.4202206086986735,1.4202206086986735,1.4202206086986735,1.4202206086986735,1.4202206086986735,1.4202206086986735,1.4202206086986735,1.4202206086986735,1.4202206086986735,1.4202206086986735,1.4202206086986735,1.4202206086986735,1.4202206086986735,1.4202206086986735,1.4202206086986735,1.4202206086986735,1.4202206086986735,1.4202206086986735,1.4202206086986735,1.4202206086986735,1.4202206086986735,1.4202206086986735,1.4202206086986735,1.4202206086986735,1.4202206086986735,1.4202206086986735,1.4202206086986735,1.4202206086986735,1.4202206086986735,1.4202206086986735,1.4202206086986735,1.4202206086986735,1.4202206086986735,1.4202206086986735,1.4202206086986735,1.4202206086986735,1.4202206086986735,1.4202206086986735,1.4202206086986735,1.4202206086986735,1.4202206086986735,1.4202206086986735,1.4202206086986735,1.4202206086986735,1.4202206086986735,1.4202206086986735,1.4202206086986735,1.4202206086986735,1.4202206086986735,1.4202206086986735,1.4202206086986735,1.4202206086986735,1.4202206086986735,1.4202206086986735,1.4202206086986735,1.4202206086986735,1.4202206086986735,1.4202206086986735,1.4202206086986735,1.426968772658448,1.433730152484709,1.4405041670658034,1.454087742270699,1.460139105621001,1.4738786990005335,1.4940244355251184,1.507500708606273,1.549371034346362,1.5999851147876911,1.6452851170087783,1.7159226489683002,1.7666651702737153,1.8293400492940786,1.8873655804073002,1.8873655804073002,1.9591150449673624,2.0503156187874927,2.1716516930017304,2.2804774508519925,2.3843560571802374,2.5105132661184637,2.62634768990375,2.745151370371352,2.8438924438784925,2.9441970937399127,3.0199736303284466,3.108637555975495,3.1745477512040914,3.2632116768511397,3.3433549979100805,3.438437326966196,3.5586418955782784,3.5586418955782784,3.71991813987021,3.8942156725831656,4.04641974300558,4.2205798043959915,4.337397253251321,4.428967727236637,4.497573579983031,4.540198165861751,4.578736733067496,4.6062321788720535,4.631917969119229,4.656890475138972,4.680903325917091,4.704637197672483,4.72765496993147,4.757812259806267,4.779955147821188,4.8091012482887265,4.837655551707211,4.852211349168883,4.852211349168883,4.8667077563108085,4.8811390828049905,4.888328605837217,4.888328605837217,4.888328605837217,4.888328605837217,4.888328605837217,4.888328605837217,4.888328605837217,4.888328605837217,4.888328605837217,4.888328605837217,4.888328605837217,4.888328605837217,4.888328605837217,4.888328605837217,4.888328605837217,4.888328605837217,4.888328605837217,4.888328605837217,4.888328605837217,4.888328605837217,4.888328605837217,4.888328605837217,4.888328605837217,4.888328605837217,4.888328605837217,4.888328605837217,4.888328605837217,4.888328605837217,4.888328605837217,4.888328605837217,4.888328605837217,4.888328605837217,4.888328605837217,4.888328605837217,4.888328605837217,4.888328605837217,4.888328605837217,4.888328605837217,4.888328605837217,4.888328605837217,4.888328605837217,4.888328605837217,4.888328605837217,4.888328605837217,4.888328605837217,4.888328605837217,4.888328605837217,4.888328605837217,4.888328605837217,4.888328605837217,4.888328605837217,4.888328605837217,4.888328605837217,4.888328605837217,4.888328605837217,4.888328605837217,4.888328605837217,4.888328605837217,4.888328605837217,4.888328605837217,4.888328605837217,4.895499797647174,4.904037477071366,4.914151324704976,4.939187828438575,4.957367643511554,4.975952863967727,5.004591486879438,5.041620691968559,5.074933217649197,5.128102854986837,5.179838852430846,5.230457508841411,5.288015978145056,5.341185266800123,5.410759201870693,5.410759201870693,5.484089370409272,5.560641304207709,5.625657062342137,5.684009984193279,5.737530252652594,5.796814337337139,5.860798670732259,5.9064739782615225,5.961434752782944,6.006276467861828,6.038206644052722,6.060154338808028,6.081868198804946,6.111425155851383,6.132813879172452,6.144089365697515,6.153910303131443,6.153910303131443,6.153910303131443,6.153910303131443,6.153910303131443,6.163756381161248,6.163756381161248,6.163756381161248,6.173625780405642,6.184497046531179,6.2041424130009935,6.234204906255859,6.273476874345477,0.038442590021187995,0.0760435592791171,0.12318266214127616,0.14981245657289732,0.1682067718570861,0.1682067718570861,0.1682067718570861,0.1682067718570861,0.1682067718570861,0.1682067718570861,0.1682067718570861,0.1682067718570861,0.1682067718570861,0.1682067718570861,0.1682067718570861,0.1682067718570861,0.1682067718570861,0.1682067718570861,0.1682067718570861,0.1682067718570861,0.1682067718570861,0.17736181059689482,0.19558067980982652,0.23161642950286754,0.2845184843079971,0.33583413021950226,0.3886895005062343,0.3886895005062343,0.44814497507578954,0.49046110454864134,0.5201910459456234,0.5418460328264589,0.560359876904843,0.5743048301747017,0.5880026035475675,0.5925583806847975,0.5993399862484444,0.6060593315986424,0.6127166717794428,0.6127166717794428,0.6127166717794428,0.6127166717794428,0.6127166717794428,0.6127166717794428,0.6127166717794428,0.6127166717794428,0.6127166717794428,0.6127166717794428,0.6127166717794428,0.6127166717794428,0.6127166717794428,0.6127166717794428,0.6127166717794428,0.6174058917515726,0.6240230529767568,0.628796286415433,0.6567016621194341,0.702256931509007,0.7613064399725269,0.8462983716754362,0.913526724938145,0.9756168129799077,1.0452125332432862,1.0994860325245512,1.1603304622311306,1.2012099524220767,1.2384641567771784,1.2384641567771784,1.2674164089554159,1.2856785916223004,1.295886485314224,1.3059789968891078,1.3138897999514612,1.315956050426896,1.315956050426896,1.315956050426896,1.315956050426896,1.315956050426896,1.315956050426896,1.315956050426896,1.315956050426896,1.315956050426896,1.315956050426896,1.315956050426896,1.315956050426896,1.315956050426896,1.315956050426896,1.315956050426896,1.315956050426896,1.315956050426896,1.315956050426896,1.315956050426896,1.315956050426896,1.315956050426896,1.315956050426896,1.315956050426896,1.315956050426896,1.315956050426896,1.3238413816559715,1.3238413816559715,1.3317581878464273,1.3397056595989996,1.3397056595989996,1.355689253658327,1.3879864424152932,1.4124688259864666,1.446441332248135,1.4793851249346157,1.5212501322037713,1.5626664246149526,1.6033051950769206,1.6432499228834851,1.673607152762612,1.7038635888034535,1.734667865695723,1.7636806390528712,1.799292966086759,1.8409495265063016,1.8763070097038679,1.9152702420331797,1.9152702420331797,1.9394922294529464,1.9591150449673624,1.97568811307998,2.000817472051995,2.0131705497716412,2.0344439357957027,2.058038376556397,2.075356765571142,2.089144356613896,2.100251354187663,2.1112158270654806,2.1166446553821023,2.122037915382544,2.1273956448051194,2.1273956448051194,2.1273956448051194,2.1273956448051194,2.1273956448051194,2.1273956448051194,2.1273956448051194,2.1273956448051194,2.1273956448051194,2.1273956448051194,2.1273956448051194,2.1273956448051194,2.1273956448051194,2.1273956448051194,2.1273956448051194,2.1273956448051194,2.1273956448051194,2.1273956448051194,2.1273956448051194,2.1273956448051194,2.1273956448051194,2.1273956448051194,2.1273956448051194,2.1273956448051194,2.1273956448051194,2.1273956448051194,2.1273956448051194,2.1273956448051194,2.1273956448051194,2.1273956448051194,2.1273956448051194,2.1273956448051194,2.1273956448051194,2.1273956448051194,2.1273956448051194,2.1273956448051194,2.1273956448051194,2.1273956448051194,2.1273956448051194,2.1273956448051194,2.1273956448051194,2.1273956448051194,2.1273956448051194,2.1273956448051194,2.1273956448051194,2.1273956448051194,2.1273956448051194,2.1273956448051194,2.1273956448051194,2.1273956448051194,2.1273956448051194,2.1273956448051194,2.1273956448051194,2.1273956448051194,2.1273956448051194,2.1273956448051194,2.1273956448051194,2.1273956448051194,2.130736123909285,2.130736123909285,2.139469176467605,2.1482359429394107,2.1694557205092972,2.1948193797716535,2.2486300426625165,2.308154557344582,2.3808200530588133,2.485010895546523,2.5959375990628013,2.731465313048302,2.912905827917569,2.912905827917569,3.107123552590285,3.3593243926153615,3.566797672569411,3.776619388980107,3.95692199534105,4.173412480555544,4.377652143067875,4.587064993893144,4.807687667976532,4.960678889687758,5.104729124600206,5.2005548359644465,5.300391583932257,5.400060236423419,5.455666477070572,5.497787143782138,5.512711408772223,5.516372364238311,5.516372364238311,5.523803577242511,5.523803577242511,5.523803577242511,5.523803577242511,5.523803577242511,5.523803577242511,5.523803577242511,5.523803577242511,5.585053606381854]],"response_history":["Yes"],"rt":43718,"trial_type":"polygon-arrow-question","trial_index":0,"trial_index_global":63,"time_elapsed":1341607,"internal_chunk_id":"0-0.12-0"},{"nsides":9,"question":"Is 6 a generator under <img src=./images/nonagon_symbol.png style=width :14px;he ight:14px>? Please explain in words how you got your answer.","response_type":"multi","response_choices":["Yes","No"],"correct_response":"No","response":"No","explain":true,"explanation":"6 cannot make all the other values.","explanation_history":["6 cannot make all the other values."],"orientation_history":[[0],[0,0,0,0,0,0,0,0,0,0,0,0,-6.266520183465645,-6.249855059751704,-6.249855059751704,-6.183378951577204,-6.1339686511689715,-6.1339686511689715,-6.053151541313837,-5.949950929853242,-5.8241459604889005,-5.6658064001546515,-5.521915702936062,-5.385262872958184,-5.273163472815263,-5.117511116541566,-4.976956058589044,-4.8773726866707605,-4.7812291503489535,-4.686633198005689,-4.598684470688749,-4.523533042147809,-4.456892657086091,-4.384444123778803,-4.322736134870688,-4.253349633694004,-4.18633353046974,-4.18633353046974,-4.122970615631072,-4.066350536274352,-4.01607497839464,-3.9664464759744766,-3.9045454108296385,-3.8261874527421296,-3.7179300917573777,-3.5668394320348655,-3.4173705173278885,-3.2343784790172156,-3.0352808135543654,-2.8388760881585338,-2.7215084965760403,-2.6317318729731523,-2.5826247926602472,-2.5581983123523457,-2.518689865688819,-2.518689865688819,-2.4792382407675673,-2.4399654785272546,-2.3937397659530673,-2.3627809892888667,-2.339529366478404,-2.316277743667941,-2.3007890688149244,-2.292688653562434,-2.2853189670037404,-2.2771105564824463,-2.2687814987247963,-2.260330295508952,-2.260330295508952,-2.253130817119957,-2.2359019064815326,-2.2271022356482133,-2.20218808901147,-2.1930451880848425,-2.1770402572611998,-2.167687348592872,-2.161118867127363,-2.1516876560661204,-2.1516876560661204,-2.1421338066285225,-2.1421338066285225,-2.1421338066285225,-2.1421338066285225,-2.1421338066285225,-2.1421338066285225,-2.1421338066285225,-2.1421338066285225,-2.1421338066285225,-2.1421338066285225,-2.1421338066285225,-2.1421338066285225,-2.1421338066285225,-2.1421338066285225,-2.1421338066285225,-2.1421338066285225,-2.1421338066285225,-2.1421338066285225,-2.1421338066285225,-2.1421338066285225,-2.1421338066285225,-2.1421338066285225,-2.1421338066285225,-2.1421338066285225,-2.1421338066285225,-2.1421338066285225,-2.1421338066285225,-2.1421338066285225,-2.1421338066285225,-2.1421338066285225,-2.1421338066285225,-2.1421338066285225,-2.1421338066285225,-2.1421338066285225,-2.1421338066285225,-2.1421338066285225,-2.1421338066285225,-2.1421338066285225,-2.1421338066285225,-2.1421338066285225,-2.1421338066285225,-2.1421338066285225,-2.1421338066285225,-2.1421338066285225,-2.1421338066285225,-2.1421338066285225,-2.1421338066285225,-2.1421338066285225,-2.1421338066285225,-2.1421338066285225,-2.1421338066285225,-2.1421338066285225,-2.1421338066285225,-2.1421338066285225,-2.1421338066285225,-2.1421338066285225,-2.1421338066285225,-2.1421338066285225,-2.1421338066285225,-2.1421338066285225,-2.1421338066285225,-2.1421338066285225,-2.1421338066285225,-2.1421338066285225,-2.1421338066285225,-2.1421338066285225,-2.1421338066285225,-2.1421338066285225,-2.1421338066285225,-2.1421338066285225,-2.1421338066285225,-2.1421338066285225,-2.1421338066285225,-2.1421338066285225,-2.1421338066285225,-2.1421338066285225,-2.1421338066285225,-2.1421338066285225,-2.1421338066285225,-2.1421338066285225,-2.1421338066285225,-2.1421338066285225,-2.1421338066285225,-2.1421338066285225,-2.1421338066285225,-2.1421338066285225,-2.1421338066285225,-2.1421338066285225,-2.1421338066285225,-2.1421338066285225,-2.1421338066285225,-2.1421338066285225,-2.1421338066285225,-2.1421338066285225,-2.1421338066285225,-2.1421338066285225,-2.1421338066285225,-2.1421338066285225,-2.1421338066285225,-2.1421338066285225,-2.1421338066285225,-2.1421338066285225,-2.1421338066285225,-2.1421338066285225,-2.1421338066285225,-2.1421338066285225,-2.1421338066285225,-2.1421338066285225,-2.1421338066285225,-2.1421338066285225,-2.1421338066285225,-2.1421338066285225,-2.132456689361372,-2.102680605531483,-2.039753296378424,-1.955711743189835,-1.859354336874877,-1.782930048468181,-1.6902701639340956,-1.581521611555818,-1.4709899711925143,-1.356735643231075,-1.2545992140110327,-1.1549104335057025,-1.0582367116448959,-0.9579320617834757,-0.9579320617834757,-0.8338582030178934,-0.7126122569823314,-0.543694753190902,-0.3441716593191497,-0.1455337097494409,-6.230821070786321,-6.004806681064441,-5.817260070853765,-5.614348771708576,-5.453091980108351,-5.334