[{"nsides":6,"instructions":"Let's define a new operation <img src=./images/hexagon_symbol.png style=width:14px;height:14px>. This operation will give us a way of combining two of the numbers 0, 1, 2, 3, 4, 5 to get another one of them back. Consider the hexagon at the right, where I've labeled each point with one of the numbers. To perform <img src=./images/hexagon_symbol.png style=width:14px;height:14px>, you can use the interactive diagram on the right, or perform the operation in your mind. Point the arrow at the first number on the hexagon by clicking, then click (or click and drag) to move the arrow the second number of points clockwise around the hexagon. The number the arrow arrives at is your result. (The operation is called <img src=./images/hexagon_symbol.png style=width:14px;height:14px> because it uses the hexagon, which has 6 sides.) <br /><br />For example, 3 <img src=./images/hexagon_symbol.png style=width:14px;height:14px> 5 =  2, becau se 5 steps clockwise from 3 on the hexagon brings us to 2. So 3 <img src=./images/hexagon_symbol.png style=width:14px;height:14px> 5 = 2.<br /><br />Similarly, 1 <img src=./images/hexagon_symbol.png style=width:14px;height:14px> 4 = 5, because 4 steps clockwise from 1 brings us to 5. <br /><br />Click Continue when you're ready to move on.","orientation_history":[0,[1.0396187075691319,1.0396187075691319,1.0396187075691319,1.0396187075691319,1.0396187075691319,1.0396187075691319,1.0396187075691319,1.0471975511965976],[1.0471975511965976,1.0471975511965976,1.0471975511965976,1.0471975511965976,1.0471975511965976,1.0471975511965976,1.0471975511965976,1.0471975511965976,1.0599329188515607,1.0728613113005694,1.0992969112301714,1.1128033092545186,1.1403890785583515,1.15446581859725,1.1687294847403864,1.1978085474126747,1.1978085474126747,1.2427627287098708,1.2580892240853052,1.273579438015787,1.273579438015787,1.3050309564555944,1.3209811988424902,1.3209811988424902,1.3532999306812703,1.3532999306812703,1.386130712035642,1.386130712035642,1.419413480152908,1.4362040271698406,1.453082517318003,1.4700399560612778,1.521292202327146,1.5556795906286827,1.6076907516855932,1.660209274266646,1.7295887487195283,1.746750568610206,1.7841078388880838,1.801242024850937,1.8182513199081334,1.8518621940293956,1.8518621940293956,1.868448350633302,1.868448350633302,1.868448350633302,1.868448350633302,1.884878796837568,1.884878796837568,1.9172467886339835,1.933172632048894,1.933172632048894,1.933172632048894,1.9489193618987628,1.9489193618987628,1.9489193618987628,1.9644823076357745,1.9798572629710565,2.001604935041893,2.001604935041893,2.001604935041893,2.0167761847550665,2.0464971601852993,2.0464971601852993,2.061042550608894,2.061042550608894,2.061042550608894,2.061042550608894,2.061042550608894,2.061042550608894,2.061042550608894,2.061042550608894,2.061042550608894,2.061042550608894,2.061042550608894,2.061042550608894,2.061042550608894,2.061042550608894,2.061042550608894,2.061042550608894,2.061042550608894,2.061042550608894,2.061042550608894,2.0943951023931953]],"rt":51753,"trial_type":"polygon-arrow-instructions","trial_index":0,"trial_index_global":1,"time_elapsed":70353,"internal_chunk_id":"0-0"},{"nsides":6,"instructions":"Do you see how <img src=./images/hexagon_symbol.png style=width:14px;height:14px> works? By labeling the points of the hexagon with the numbers from 0 to 5, we ensure that when we combine two numbers under <img src=./images/hexagon_symbol.png style=width:14px;height:14px>, we only produce numbers between 0 and 5.<br /><br />Click Continue when you are ready to move on.","orientation_history":[0],"rt":9690,"trial_type":"polygon-arrow-instructions","trial_index":0,"trial_index_global":2,"time_elapsed":80044,"internal_chunk_id":"0-0"},{"nsides":6,"question":"Now try one on your own! What is 4 <img src=./images/hexagon_symbol.png style=width:14px;height:14px> 5? <br /><br /> (Remember , to per form <img src=./images/hexagon_symbol.png style=width:14px;height:14px>, you can use the interactive diagram on the right, or perform the operation in your mind. Point the arrow at the first number on the hexagon, then move the arrow the second number of points clockwise around the hexagon. The number the arrow arrives at is your result.)","response_type":"free","response_choices":[],"correct_response":"3","response":"3","explain":false,"explanation":"","explanation_history":[],"orientation_history":[[0],[4.21919332348199,4.21919332348199,4.21919332348199,4.21919332348199,4.21919332348199,4.21919332348199,4.21919332348199,4.1887902047863905],[5.232969813876349,5.232969813876349,5.232969813876349,5.232969813876349,5.232969813876349,5.232969813876349,5.235987755982988],[0.04647813135100298,0.04647813135100298,0.04647813135100298,0.04647813135100298,0.04647813135100298,0.04647813135100298,0.04647813135100298,0],[1.0648459275238205,1.0648459275238205,1.0648459275238205,1.0648459275238205,1.0648459275238205,1.0648459275238205,1.0648459275238205,1.0648459275238205,1.0471975511965976],[2.075657698454023,2.075657698454023,2.075657698454023,2.075657698454023,2.075657698454023,2.0943951023931953],[3.176061754589301,3.176061754589301,3.176061754589301,3.176061754589301,3.176061754589301,3.176061754589301,3.176061754589301,3.141592653589793]],"response_history":["3"],"rt":18707,"trial_type":"polygon-arrow-question","trial_index":0,"trial_index_global":3,"time_elapsed":98754,"internal_chunk_id":"0-0.3-0"},{"nsides":6,"feedback":"Correct! 4 <img src=./images/hexagon_symbol.png style=width:14px;height:14px> 5 = 3 because 5 steps clockwise on the hexagon from 4 brings us to 3","orientation_history":[0],"rt":3410,"trial_type":"polygon-arrow-feedback","trial_index":0,"trial_index_global":4,"time_elapsed":102166,"internal_chunk_id":"0-0.3-0"},{"nsides":6,"question":"What is 3 <img src=./images/hexagon_symbol.png style=width:14px;height:14px> 2? <b r /><br  /> (Remember, to perform <img src=./images/hexagon_symbol.png style=width:14px;height:14px>, you can use the interactive diagram on the right, or perform the operation in your mind. Point the arrow at the first number on the hexagon, then move the arrow the second number of points clockwise around the hexagon. The number the arrow arrives at is your result.)","response_type":"free","response_choices":[],"correct_response":"5","response":"5","explain":false,"explanation":"","explanation_history":[],"orientation_history":[[0],[3.108637555975495,3.108637555975495,3.108637555975495,3.108637555975495,3.108637555975495,3.108637555975495,3.108637555975495,3.141592653589793],[5.2698200719606305,5.2698200719606305,5.2698200719606305,5.2698200719606305,5.2698200719606305,5.2698200719606305,5.2698200719606305,5.2698200719606305,5.2698200719606305,5.2698200719606305,5.235987755982988]],"response_history":["5"],"rt":7072,"trial_type":"polygon-arrow-question","trial_index":0,"trial_index_global":5,"time_elapsed":109239,"internal_chunk_id":"0-0.3-0"},{"nsides":6,"feedback":"Correct! 3 <img src=./images/hexagon_symbol.png style=width:14px;height:14px> 2 = 5 because 2 steps clockwise on the hexagon from 3 brings us to 5","orientation_history":[0],"rt":1321,"trial_type":"polygon-arrow-feedback","trial_index":0,"trial_index_global":6,"time_elapsed":110561,"internal_chunk_id":"0-0.3-0"},{"nsides":6,"question":"What is 1 <img src=./images/hexagon_symbol.png style=width:14px;height:14px> 5? <br /><br /> (Remember, to perform <img src=./images/hexagon_symbol.png style=width:14px;height:14px>, you can use the interactive diagram on the right, or perform the operation in your mind. Point the arrow at the first number on the hexagon, then move the arrow the second number of points clockwise around the hexagon. The number the arrow arrives at is your result.)","response_type":"free","response_choices":[],"correct_response":"0","response":"0","explain":false,"explanation":"","explanation_history":[],"orientation_history":[[0],[1.0427218783685368,1.0427218783685368,1.0427218783685368,1.0427218783685368,1.0427218783685368,1.0427218783685368,1.0427218783685368,1.0471975511965976],[6.246616251266045,6.246616251266045,6.246616251266045,6.246616251266045,6.246616251266045,6.246616251266045,6.246616251266045,6.246616251266045,6.283185307179586]],"response_history":["0"],"rt":5972,"trial_type":"polygon-arrow-question","trial_index":0,"trial_index_global":7,"time_elapsed":116534,"internal_chunk_id":"0-0.3-0"},{"nsides":6,"feedback":"Correct! 1 <img src=./images/hexagon_symbol.png style=width:14px;height:14px> 5 = 0 because 5 steps clockwise on the hexagon from 1 brings us to 0","orientation_history":[0],"rt":1305,"trial_type":"polygon-arrow-feedback","trial_index":0,"trial_index_global":8,"time_elapsed":117840,"internal_chunk_id":"0-0.3-0"},{"nsides":6,"question":"What is 1 <img src=./images/hexagon_symbol.png style=widt h:14px;h eight:14px> 1? <br /><br /> (Remember, to perform <img src=./images/hexagon_symbol.png style=width:14px;height:14px>, you can use the interactive diagram on the right, or perform the operation in your mind. Point the arrow at the first number on the hexagon, then move the arrow the second number of points clockwise around the hexagon. The number the arrow arrives at is your result.)","response_type":"free","response_choices":[],"correct_response":"2","response":"2","explain":false,"explanation":"","explanation_history":[],"orientation_history":[[0],[2.0235747986184327,2.0235747986184327,2.0235747986184327,2.0235747986184327,2.0235747986184327,2.0943951023931953]],"response_history":["2"],"rt":11342,"trial_type":"polygon-arrow-question","trial_index":0,"trial_index_global":9,"time_elapsed":129182,"internal_chunk_id":"0-0.3-0"},{"nsides":6,"feedback":"Correct! 1 <img src=./images/hexagon_symbol.png style=width:14px;height:14px> 1 = 2 because 1 step clockwise  on the h exagon from 1 brings us to 2","orientation_history":[0],"rt":1744,"trial_type":"polygon-arrow-feedback","trial_index":0,"trial_index_global":10,"time_elapsed":130927,"internal_chunk_id":"0-0.3-0"},{"nsides":6,"question":"What is 3 <img src=./images/hexagon_symbol.png style=width:14px;height:14px> 0? <br /><br /> (Remember, to perform <img src=./images/hexagon_symbol.png style=width:14px;height:14px>, you can use the interactive diagram on the right, or perform the operation in your mind. Point the arrow at the first number on the hexagon, then move the arrow the second number of points clockwise around the hexagon. The number the arrow arrives at is your result.)","response_type":"free","response_choices":[],"correct_response":"3","response":"3","explain":false,"explanation":"","explanation_history":[],"orientation_history":[[0],[3.141592653589793,3.141592653589793,3.141592653589793,3.141592653589793,3.141592653589793,3.141592653589793,3.141592653589793,3.141592653589793]],"response_history":["3"],"rt":6746,"trial_type":"polygon-arrow-question","trial_index":0,"trial_index_global":11,"time_elapsed":137673,"internal_chunk_id":"0-0.3-0"},{"nsides":6,"feedback":"Correct! 3 <img src=./images/hexagon_symbol.png style=width:14px;height:14px> 0 = 3 because 0 steps clockwise on the hexagon from 3 brings us to 3","orientation_history":[0],"rt":1161,"trial_type":"polygon-arrow-feedback","trial_index":0,"trial_index_global":12,"time_elapsed":138835,"internal_chunk_id":"0-0.3-0"},{"nsides":6,"question":"What is 4 <img src=./images/hexagon_symbol.png style=width:14px;height:14px> 4? <br /><br /> (Remember, to perform <img src=./images/hexagon_symbol.png style=width:14px;height:14px>, you can use the interactive diagram on the right, or perform the operation in your mind. Point the arrow at the first number on the hexagon, then move the arrow the second number of points clockwise around the hexagon. The number the arrow arrive s at is  your result.)","response_type":"free","response_choices":[],"correct_response":"2","response":"2","explain":false,"explanation":"","explanation_history":[],"orientation_history":[[0],[4.253949657622956,4.253949657622956,4.253949657622956,4.253949657622956,4.253949657622956,4.253949657622956,4.253949657622956,4.253949657622956,4.1887902047863905],[5.21523219131255,5.21523219131255,5.21523219131255,5.21523219131255,5.21523219131255,5.21523219131255,5.21523219131255,5.235987755982988],[0.06016825115500968,0.06016825115500968,0.06016825115500968,0.06016825115500968,0.06016825115500968,0.06016825115500968,0.06016825115500968,0],[0.9685089806599324,0.9685089806599324,0.9685089806599324,0.9685089806599324,0.9685089806599324,0.9685089806599324,0.9685089806599324,0.9685089806599324,1.0471975511965976],[2.065522009279145,2.065522009279145,2.065522009279145,2.065522009279145,2.065522009279145,2.065522009279145,2.065522009279145,2.0943951023931953]],"response_history":["2"],"rt":8180,"trial_type":"polygon-arrow-question","trial_index":0,"trial_index_global":13,"time_elapsed":147016,"internal_chunk_id":"0-0.3-0"},{"nsides":6,"feedback":"Correct! 4 <img src=./images/hexagon_symbol.png style=width:14px;height:14px> 4 = 2 because 4 steps clockwise on the hexagon from 4 brings us to 2","orientation_history":[0],"rt":1138,"trial_type":"polygon-arrow-feedback","trial_index":0,"trial_index_global":14,"time_elapsed":148155,"internal_chunk_id":"0-0.3-0"},{"nsides":6,"question":"What is 1 <img src=./images/hexagon_symbol.png style=width:14px;height:14px> 3? <br /><br /> (Remember, to perform <img src=./images/hexagon_symbol.png style=width:14px;height:14px>, you can use the interactive diagram on the right, or perform the operation in your mind. Point the arrow at the first number on the hexagon, then move the arrow the second number of points clockwise around the hexagon. The number the arrow arrives at is your result.)","response_type":"free","response_choices":[],"correct_response":"4","response":"4","explain":false,"explanation":"","explanation_history":[],"orientation_history":[[0],[1.082763308621372,1.082763308621372,1.082763308621372,1.082763308621372,1.082763308621372,1.082763308621372,1.082763308621372,1.082763308621372,1.0471975511965976],[4.14653465327663,4.14653465327663,4.14653465327663,4.14653465327663,4.14653465327663,4.14653465327663,4.1887902047863905]],"response_history":["4"],"rt":4556,"trial_type":"polygon-arrow-question","trial_index":0,"trial_index_global":15,"time_elapsed":152712,"internal_chunk_id":"0-0.3-0"},{"nsides":6,"feedback":"Correct! 1 <img src=./images/hexagon_symbol.png style=width:14px;height:14px> 3 = 4 because 3 steps clockwise on the hexagon from 1 brings us to 4","orientation_history":[0],"rt":2414,"trial_type":"polygon-arrow-feedback","trial_index":0,"trial_index_global":16,"time_elapsed":155127,"internal_chunk_id":"0-0.3-0"},{"nsides":6,"question":"What is 4 <img src=./images/he xagon_sy mbol.png style=width:14px;height:14px> 3? <br /><br /> (Remember, to perform <img src=./images/hexagon_symbol.png style=width:14px;height:14px>, you can use the interactive diagram on the right, or perform the operation in your mind. Point the arrow at the first number on the hexagon, then move the arrow the second number of points clockwise around the hexagon. The number the arrow arrives at is your result.)","response_type":"free","response_choices":[],"correct_response":"1","response":"1","explain":false,"explanation":"","explanation_history":[],"orientation_history":[[0],[4.209545769456829,4.209545769456829,4.209545769456829,4.209545769456829,4.209545769456829,4.209545769456829,4.209545769456829,4.1887902047863905],[1.092074482799131,1.092074482799131,1.092074482799131,1.092074482799131,1.092074482799131,1.092074482799131,1.092074482799131,1.0471975511965976]],"response_history":["1"],"rt":4592,"trial_type":"polygon-arrow-question","trial_index":0,"trial_index_global":17,"time_elapsed":159719,"internal_chunk_id":"0-0.3-0"},{"nsides":6,"feedback":"Correct! 4 <img src=./images/hexagon_symbol.png style=width:14px;height:14px> 3 = 1 because 3 steps clockwise on the hexagon from 4 brings us to 1","orientation_history":[0],"rt":6324,"trial_type":"polygon-arrow-feedback","trial_index":0,"trial_index_global":18,"time_elapsed":166045,"internal_chunk_id":"0-0.3-0"},{"nsides":6,"question":"What is 0 <img src=./images/hexagon_symbol.png style=width:14px;height:14px> 5? <br /><br /> (Remember, to perform <img src=./images/hexagon_symbol.png style=width:14px;height:14px>, you can use the interactive diagram on the right, or perform the operation in your mind. Point the arrow at the first number on the hexagon, then move the arrow the second number of points clockwise around the hexagon. The number the arrow arrives at is your result.)","response_type":"free","response_choices":[],"correct_response":"5","response":"5","explain":false,"explanation":"","explanation_history":[],"orientation_history":[[0],[5.134176240255506,5.134176240255506,5.134176240255506,5.134176240255506,5.134176240255506,5.134176240255506,5.134176240255506,5.235987755982988]],"response_history":["5"],"rt":5186,"trial_type":"polygon-arrow-question","trial_index":0,"trial_index_global":19,"time_elapsed":171231,"internal_chunk_id":"0-0.3-0"},{"nsides":6,"feedback":"Correct! 0 <img src=./images/hexagon_symbol.png style=width:14px;height:14px> 5 = 5 because 5 steps clockwise on the hexagon from 0 brings us to 5","orientation_history":[0],"rt":969,"trial_type":"polygon-arrow-feedback","trial_index":0,"trial_index_global":20,"time_elapsed":172201,"internal_chunk_id":"0-0.3-0"},{"nsides":6,"question":"What is 2 <img src=./images/hexagon_symbol.png style=width:14px;height:14px> 5? <br /><br /> (Remember, to perform <img src=./images/hexagon_symbol.png style=width:14px;height:14px>, you can use the interactive diagram o n the ri ght, or perform the operation in your mind. Point the arrow at the first number on the hexagon, then move the arrow the second number of points clockwise around the hexagon. The number the arrow arrives at is your result.)","response_type":"free","response_choices":[],"correct_response":"1","response":"1","explain":false,"explanation":"","explanation_history":[],"orientation_history":[[0],[2.084402331517645,2.084402331517645,2.084402331517645,2.084402331517645,2.084402331517645,2.084402331517645,2.084402331517645,2.084402331517645,2.0943951023931953],[1.1018296190225747,1.1018296190225747,1.1018296190225747,1.1018296190225747,1.1018296190225747,1.1018296190225747,1.1018296190225747,1.1018296190225747,1.0471975511965976]],"response_history":["1"],"rt":5054,"trial_type":"polygon-arrow-question","trial_index":0,"trial_index_global":21,"time_elapsed":177255,"internal_chunk_id":"0-0.3-0"},{"nsides":6,"feedback":"Correct! 2 <img src=./images/hexagon_symbol.png style=width:14 px;heigh t:14px> 5 = 1 because 5 steps clockwise on the hexagon from 2 brings us to 1","orientation_history":[0],"rt":1038,"trial_type":"polygon-arrow-feedback","trial_index":0,"trial_index_global":22,"time_elapsed":178293,"internal_chunk_id":"0-0.3-0"},{"nsides":6,"instructions":"Now we're going to discuss a couple special properties of this new operation, <img src=./images/hexagon_symbol.png style=width:14px;height:14px> that we've learned. First, notice that the number 0 behaves in a special way under <img src=./images/hexagon_symbol.png style=width:14px;height:14px>. Whenever we combine 0 with anything else, we get that same thing back. We'll say that 0 is the <i>identity</i> under <img src=./images/hexagon_symbol.png style=width:14px;height:14px>, because when you combine it with something it gives you that identical thing back.","orientation_history":[0],"rt":14064,"trial_type":"polygon-arrow-instructions","trial_index":0,"trial_index_global":23,"time_elapsed":192360,"internal_chunk_id":"0-0"},{"nsides":6,"instructions":"Now that we know 0 is the identity under <img src=./images/hexagon_symbol.png style=width:14px;height:14px>, we're going to make a new definition. We'll say that the <i>inverse</i> of a number is the element that you combine with it to produce the identity under our operation. For example, 5 <img src=./images/hexagon_symbol.png style=width:14px;height:14px> 1 = 0, so we say 1 is the inverse of 5 under <img src=./images/hexagon_symbol.png style=width:14px;height:14px>, (remember 0 is the identity under <img src=./images/hexagon_symbol.png style=width:14px;height:14px>). Similarly, 3 is its own inverse under <img src=./images/hexagon_symbol.png style=width:14px;height:14px>, because 3 <img src=./images/hexagon_symbol.png style=width:14px;height:14px> 3 = 0.","orientation_history":[0],"rt":29917,"trial_type":"polygon-arrow-instructions","trial_index":0,"trial_index_global":24,"time_elapsed":222278,"internal_chunk_id":"0-0"},{"nsides":6,"question":"Now you try! What is the inverse of 4 under <img src=./images/hexagon_symbol.png style=width:14px;height:14px>? <br /><br /> (Remember, the inverse of an element is the thing which you combine with it to produce the identity.)","response_type":"free","response_choices":[],"correct_response":"2","response":"2","explain":false,"explanation":"","explanation_history":[],"orientation_history":[[0]],"response_history":["2"],"rt":11229,"trial_type":"polygon-arrow-question","trial_index":0,"trial_index_global":25,"time_elapsed":233508,"internal_chunk_id":"0-0.7-0"},{"nsides":6,"feedback":"Correct! The inverse of 4 under <img src=./images/hexagon_symbol.png style=width:14px;height:14px> is 2 because 4 <img src=./images/hexagon_symbol.png style=width:14px;height:14px> 2 = 0, and 0 is the identity under <img src=./images/hexagon_symbol.png style=width:14px;height:14px>.","orientation_history":[0],"rt":1841,"trial_type":"polygon-arrow-feedback","trial_index":0,"trial_index_global":26,"time_elapsed":235349,"internal_chunk_id":"0-0.7-0"},{"nsides":6,"question":"What is the inverse of 1 under <img src=./images/hexagon_symbol.png style=width:14px;height:14px>? <br /><br /> (Remember, the inverse of an element is the thing which you combine with it to produce the identity.)","response_type":"free","response_choices":[],"correct_response":"5","response":"5","explain":false,"explanation":"","explanation_history":[],"orientation_history":[[0]],"response_history":["5"],"rt":4112,"trial_type":"polygon-arrow-question","trial_index":0,"trial_index_global":27,"time_elapsed":239461,"internal_chunk_id":"0-0.7-0"},{"nsides":6,"feedback":"Correct! The inverse of 1 under <img src=./images/hexagon_symbol.png style=width:14px;height:14px> is 5 because 1 <img src=./images/hexagon_symbol.png style=width:14px;height:14px> 5 = 0, and 0 is the identity under <im g src= ./images/hexagon_symbol.png style=width:14px;height:14px>.","orientation_history":[0],"rt":2366,"trial_type":"polygon-arrow-feedback","trial_index":0,"trial_index_global":28,"time_elapsed":241828,"internal_chunk_id":"0-0.7-0"},{"nsides":6,"question":"What is the inverse of 3 under <img src=./images/hexagon_symbol.png style=width:14px;height:14px>? <br /><br /> (Remember, the inverse of an element is the thing which you combine with it to produce the identity.)","response_type":"free","response_choices":[],"correct_response":"3","response":"3","explain":false,"explanation":"","explanation_history":[],"orientation_history":[[0]],"response_history":["3"],"rt":3890,"trial_type":"polygon-arrow-question","trial_index":0,"trial_index_global":29,"time_elapsed":245719,"internal_chunk_id":"0-0.7-0"},{"nsides":6,"feedback":"Correct! The inverse of 3 under <img src=./images/hexagon_symbol.png style=width:14px;height:14px> is 3 because 3 <img src=./images/hexagon_ symbol.p ng style=width:14px;height:14px> 3 = 0, and 0 is the identity under <img src=./images/hexagon_symbol.png style=width:14px;height:14px>.","orientation_history":[0],"rt":2170,"trial_type":"polygon-arrow-feedback","trial_index":0,"trial_index_global":30,"time_elapsed":247890,"internal_chunk_id":"0-0.7-0"},{"nsides":6,"question":"What is the inverse of 2 under <img src=./images/hexagon_symbol.png style=width:14px;height:14px>? <br /><br /> (Remember, the inverse of an element is the thing which you combine with it to produce the identity.)","response_type":"free","response_choices":[],"correct_response":"4","response":"4","explain":false,"explanation":"","explanation_history":[],"orientation_history":[[0]],"response_history":["4"],"rt":4166,"trial_type":"polygon-arrow-question","trial_index":0,"trial_index_global":31,"time_elapsed":252057,"internal_chunk_id":"0-0.7-0"},{"nsides":6,"feedback":"Correct! The inverse of 2 under <img src=./images/hexagon_symbo l.png  style=width:14px;height:14px> is 4 because 2 <img src=./images/hexagon_symbol.png style=width:14px;height:14px> 4 = 0, and 0 is the identity under <img src=./images/hexagon_symbol.png style=width:14px;height:14px>.","orientation_history":[0],"rt":1081,"trial_type":"polygon-arrow-feedback","trial_index":0,"trial_index_global":32,"time_elapsed":253139,"internal_chunk_id":"0-0.7-0"},{"nsides":6,"question":"What is the inverse of 0 under <img src=./images/hexagon_symbol.png style=width:14px;height:14px>? <br /><br /> (Remember, the inverse of an element is the thing which you combine with it to produce the identity.)","response_type":"free","response_choices":[],"correct_response":"0","response":"0","explain":false,"explanation":"","explanation_history":[],"orientation_history":[[0]],"response_history":["0"],"rt":4841,"trial_type":"polygon-arrow-question","trial_index":0,"trial_index_global":33,"time_elapsed":257980,"internal_chunk_id":"0-0.7-0"},{"nsides":6,"feedback":"Correct! The inverse of 0 under <img src=./images/hexagon_symbol.png style=width:14px;height:14px> is 0 because 0 <img src=./images/hexagon_symbol.png style=width:14px;height:14px> 0 = 0, and 0 is the identity under <img src=./images/hexagon_symbol.png style=width:14px;height:14px>.","orientation_history":[0],"rt":2050,"trial_type":"polygon-arrow-feedback","trial_index":0,"trial_index_global":34,"time_elapsed":260031,"internal_chunk_id":"0-0.7-0"},{"instructions":"It is also possible to successively apply <img src=./images/hexagon_symbol.png style=width:14px;height:14px>, and the operation can simply be performed starting with the left-most pair. For example, 2 <img src=./images/hexagon_symbol.png style=width:14px;height:14px> 3 <img src=./images/hexagon_symbol.png style=width:14px;height:14px> 4 = 5 <img src=./images/hexagon_symbol.png style=width:14px;height:14px> 4 = 3.","rt":14916,"trial_type":"instructi ons","trial_index":0,"trial_index_global":35,"time_elapsed":274948,"internal_chunk_id":"0-0"},{"nsides":6,"instructions":"We have one last definition to learn today, using the successive operations we just learned. Let's start with an example. Under our operation <img src=./images/hexagon_symbol.png style=width:14px;height:14px> we can make every other number using just 1: 2 = 1 <img src=./images/hexagon_symbol.png style=width:14px;height:14px> 1, 3 = 1 <img src=./images/hexagon_symbol.png style=width:14px;height:14px> 1 <img src=./images/hexagon_symbol.png style=width:14px;height:14px> 1, 4 = 1 <img src=./images/hexagon_symbol.png style=width:14px;height:14px> 1 <img src=./images/hexagon_symbol.png style=width:14px;height:14px> 1 <img src=./images/hexagon_symbol.png style=width:14px;height:14px> 1, 5 = 1 <img src=./images/hexagon_symbol.png style=width:14px;height:14px> 1 <img src=./images/hexagon_symbol.png style= width: 14px;height:14px> 1 <img src=./images/hexagon_symbol.png style=width:14px;height:14px> 1 <img src=./images/hexagon_symbol.png style=width:14px;height:14px> 1, and 0 = 1 <img src=./images/hexagon_symbol.png style=width:14px;height:14px> 1 <img src=./images/hexagon_symbol.png style=width:14px;height:14px> 1 <img src=./images/hexagon_symbol.png style=width:14px;height:14px> 1 <img src=./images/hexagon_symbol.png style=width:14px;height:14px> 1 <img src=./images/hexagon_symbol.png style=width:14px;height:14px> 1. Because 1 can make every other element under <img src=./images/hexagon_symbol.png style=width:14px;height:14px>, we say that 1 is a <i>generator</i> under <img src=./images/hexagon_symbol.png style=width:14px;height:14px>. <br /><br /> However, 2 is not a generator under <img src=./images/hexagon_symbol.png style=width:14px;height:14px>, because 4 = 2 <img src=./images/hexagon_symbol.png  style =width:14px;height:14px> 2, and 0 = 2 <img src=./images/hexagon_symbol.png style=width:14px;height:14px> 2 <img src=./images/hexagon_symbol.png style=width:14px;height:14px> 2, but there is no way to make 1, 3, or 5 using just 2.","orientation_history":[0],"rt":161090,"trial_type":"polygon-arrow-instructions","trial_index":0,"trial_index_global":36,"time_elapsed":436040,"internal_chunk_id":"0-0"},{"nsides":6,"question":"Now you try! Is 3 a generator under <img src=./images/hexagon_symbol.png style=width:14px;height:14px>? <br /><br /> (Remember, a generator is an element which can make every other element.)","response_type":"multi","response_choices":["Yes","No"],"correct_response":"No","response":"Yes","explain":false,"explanation":"","explanation_history":[],"orientation_history":[[0]],"response_history":["Yes"],"rt":12995,"trial_type":"polygon-arrow-question","trial_index":0,"trial_index_global":37,"time_elapsed":449038,"internal_chunk_id":"0-0 .10-0"},{"nsides":6,"feedback":"Sorry, that's incorrect. 3 is not a generator under <img src=./images/hexagon_symbol.png style=width:14px;height:14px>, because 3 = 3, 0 = 3 <img src=./images/hexagon_symbol.png style=width:14px;height:14px> 3, but there is no way to make 1, 2, 4, or 5 using just 3.","orientation_history":[0],"rt":8023,"trial_type":"polygon-arrow-feedback","trial_index":0,"trial_index_global":38,"time_elapsed":457062,"internal_chunk_id":"0-0.10-0"},{"nsides":6,"question":"Is 5 a generator under <img src=./images/hexagon_symbol.png style=width:14px;height:14px>? <br /><br /> (Remember, a generator is an element which can make every other element.)","response_type":"multi","response_choices":["Yes","No"],"correct_response":"Yes","response":"Yes","explain":false,"explanation":"","explanation_history":[],"orientation_history":[[0]],"response_history":["Yes"],"rt":7466,"trial_type":"polygon-arrow-question","trial_index":0,"trial_index_global":39,"time_elapsed":464529,"internal_chunk_id":"0-0.10-0"},{"nsides":6,"feedback":"Correct! 5 is a generator under <img src=./images/hexagon_symbol.png style=width:14px;height:14px>, because 5 = 5, 4 = 5 <img src=./images/hexagon_symbol.png style=width:14px;height:14px> 5, 3 = 5 <img src=./images/hexagon_symbol.png style=width:14px;height:14px> 5 <img src=./images/hexagon_symbol.png style=width:14px;height:14px> 5, 2 = 5 <img src=./images/hexagon_symbol.png style=width:14px;height:14px> 5 <img src=./images/hexagon_symbol.png style=width:14px;height:14px> 5 <img src=./images/hexagon_symbol.png style=width:14px;height:14px> 5, 1 = 5 <img src=./images/hexagon_symbol.png style=width:14px;height:14px> 5 <img src=./images/hexagon_symbol.png style=width:14px;height:14px> 5 <img src=./images/hexagon_symbol.png style=width:14px;height:14px> 5 <img src=./images/hexagon_symbol.png style=width:14px;height:14px> 5, a nd 0 = 5  <img src=./images/hexagon_symbol.png style=width:14px;height:14px> 5 <img src=./images/hexagon_symbol.png style=width:14px;height:14px> 5 <img src=./images/hexagon_symbol.png style=width:14px;height:14px> 5 <img src=./images/hexagon_symbol.png style=width:14px;height:14px> 5 <img src=./images/hexagon_symbol.png style=width:14px;height:14px> 5, so you can make all of the numbers under <img src=./images/hexagon_symbol.png style=width:14px;height:14px> using 5","orientation_history":[0],"rt":8468,"trial_type":"polygon-arrow-feedback","trial_index":0,"trial_index_global":40,"time_elapsed":472998,"internal_chunk_id":"0-0.10-0"},{"nsides":6,"question":"Is 4 a generator under <img src=./images/hexagon_symbol.png style=width:14px;height:14px>? <br /><br /> (Remember, a generator is an element which can make every other element.)","response_type":"multi","response_choices":["Yes","No"],"correct_response":"No","response":"No","explain":false,"explanation":"","explanation_history":[],"orientation_history":[[0]],"response_history":["No"],"rt":2824,"trial_type":"polygon-arrow-question","trial_index":0,"trial_index_global":41,"time_elapsed":475824,"internal_chunk_id":"0-0.10-0"},{"nsides":6,"feedback":"Correct! 4 is not a generator under <img src=./images/hexagon_symbol.png style=width:14px;height:14px>, because 4 = 4, 2 = 4 <img src=./images/hexagon_symbol.png style=width:14px;height:14px> 4, and 0 = 4 <img src=./images/hexagon_symbol.png style=width:14px;height:14px> 4 <img src=./images/hexagon_symbol.png style=width:14px;height:14px> 4, but there is no way to make 1, 3, or 5 using just 4.","orientation_history":[0],"rt":2405,"trial_type":"polygon-arrow-feedback","trial_index":0,"trial_index_global":42,"time_elapsed":478230,"internal_chunk_id":"0-0.10-0"},{"nsides":6,"question":"Is 0 a generator under <img src=./images/hexagon_symbol.png style=width:14px;height:14px>?  <br /><b r /> (Remember, a generator is an element which can make every other element.)","response_type":"multi","response_choices":["Yes","No"],"correct_response":"No","response":"Yes","explain":false,"explanation":"","explanation_history":[],"orientation_history":[[0]],"response_history":["No","Yes"],"rt":4221,"trial_type":"polygon-arrow-question","trial_index":0,"trial_index_global":43,"time_elapsed":482452,"internal_chunk_id":"0-0.10-0"},{"nsides":6,"feedback":"Sorry, that's incorrect. 0 is not a generator under <img src=./images/hexagon_symbol.png style=width:14px;height:14px>, because 0 = 0, but there is no way to make 1, 2, 3, 4, or 5 using just 0.","orientation_history":[0],"rt":1994,"trial_type":"polygon-arrow-feedback","trial_index":0,"trial_index_global":44,"time_elapsed":484447,"internal_chunk_id":"0-0.10-0"},{"nsides":9,"instructions":"Now we are going to ask you some questions about a new operation, <img src=./images/nonagon_symbol.png style=width:14px;hei ght:14px >, on the numbers 0, 1, 2, 3, 4, 5, 6, 7, 8. It works exactly like <img src=./images/hexagon_symbol.png style=width:14px;height:14px>, except now you use the nonagon shown at the right. <br /><br />Do you see how <img src=./images/nonagon_symbol.png style=width:14px;height:14px> works just like <img src=./images/hexagon_symbol.png style=width:14px;height:14px>? By labeling the points of the nonagon with the numbers from 0 to 8, we ensure that when we combine two numbers under <img src=./images/nonagon_symbol.png style=width:14px;height:14px>, we only produce numbers between 0 and 8. <br /><br />We'll give you one practice question with feedback to make sure you understand the new operation. After that, try to complete the remaining questions as accurately as possible.","orientation_history":[0],"rt":57161,"trial_type":"polygon-arrow-instructions","trial_index":0,"trial_index_global":45,"time_elapsed":541609,"internal_chunk_id":"0-0"},{"nsides":9,"question":"Practice: What is 5 <img src=./images/nonagon_symbol.png style=width:14px;height:14px> 5?","response_type":"free","response_choices":[],"correct_response":"1","response":"1","explain":false,"explanation":"","explanation_history":[],"orientation_history":[[0]],"response_history":["1"],"rt":7261,"trial_type":"polygon-arrow-question","trial_index":0,"trial_index_global":46,"time_elapsed":548871,"internal_chunk_id":"0-0.12-0"},{"nsides":9,"feedback":"Correct! 5 <img src=./images/nonagon_symbol.png style=width:14px;height:14px> 5 = 1 because 5 steps clockwise on the nonagon from 5 brings us to 1","orientation_history":[0],"rt":763305,"trial_type":"polygon-arrow-feedback","trial_index":0,"trial_index_global":47,"time_elapsed":1312177,"internal_chunk_id":"0-0.12-0"},{"nsides":9,"question":"What is 3 <img src=./images/nonagon_symbol.png style=width:14px;height:14px> 3?","response_type":"free","response_choices":[],"correct_response":"6","response":"6 ","explain":false,"explanation":"","explanation_history":[],"orientation_history":[[0]],"response_history":["6"],"rt":4277,"trial_type":"polygon-arrow-question","trial_index":0,"trial_index_global":48,"time_elapsed":1316456,"internal_chunk_id":"0-0.12-0"},{"nsides":9,"question":"What is 7 <img src=./images/nonagon_symbol.png style=width:14px;height:14px> 4?","response_type":"free","response_choices":[],"correct_response":"2","response":"2","explain":false,"explanation":"","explanation_history":[],"orientation_history":[[0]],"response_history":["2"],"rt":4735,"trial_type":"polygon-arrow-question","trial_index":0,"trial_index_global":49,"time_elapsed":1321192,"internal_chunk_id":"0-0.12-0"},{"nsides":9,"question":"What is 1 <img src=./images/nonagon_symbol.png style=width:14px;height:14px> 8?","response_type":"free","response_choices":[],"correct_response":"0","response":"0","explain":false,"explanation":"","explanation_history":[],"orientation_history":[[0]],"response_history":["0"],"rt":6226,"trial_type":"polygon-arrow-question","trial_index":0,"trial_index_global":50,"time_elapsed":1327420,"internal_chunk_id":"0-0.12-0"},{"nsides":9,"question":"What is 5 <img src=./images/nonagon_symbol.png style=width:14px;height:14px> 4?","response_type":"free","response_choices":[],"correct_response":"0","response":"0","explain":false,"explanation":"","explanation_history":[],"orientation_history":[[0]],"response_history":["0"],"rt":4793,"trial_type":"polygon-arrow-question","trial_index":0,"trial_index_global":51,"time_elapsed":1332214,"internal_chunk_id":"0-0.12-0"},{"nsides":9,"question":"What is 6 <img src=./images/nonagon_symbol.png style=width:14px;height:14px> 6?","response_type":"free","response_choices":[],"correct_response":"3","response":"3","explain":false,"explanation":"","explanation_history":[],"orientation_history":[[0]],"response_history":["3"],"rt":5913,"trial_type":"polygon-arrow-question","trial_index":0,"trial_index_global":52,"time_elapsed":1338128,"internal_chunk_id":"0-0.12-0"},{"nsides":9,"instructions":"On the following question, and several others later in the HIT, we will ask you to explain how you got your answer. On these questions, you will be given one box for your answer to the question, and a second for your explanation. Please explain your thought process in as much detail as possible (at least one sentence, and more if you can).","orientation_history":[0],"rt":520107,"trial_type":"polygon-arrow-instructions","trial_index":0,"trial_index_global":53,"time_elapsed":1858235,"internal_chunk_id":"0-0.12-0"},{"nsides":9,"question":"What is 4 <img src=./images/nonagon_symbol.png style=width:14px;height:14px> 1? Please explain in words how you got your answer.","response_type":"free","response_choices":[],"correct_response":"5","response":"5","explain":true,"explanation":"I moved the arrow 4 times, then 1 more time","explanation_history":["I moved the arrow 4 times, then 1 more time"],"orientation_history":[[0],[2.6882539577352302,2.6882539577352302,2.6882539577352302,2.6882539577352302,2.6882539577352302,2.6882539577352302,2.792526803190927],[3.4198923125949046,3.4198923125949046,3.4198923125949046,3.4198923125949046,3.4198923125949046,3.4198923125949046,3.4198923125949046,3.4198923125949046,3.4198923125949046,3.490658503988659]],"response_history":["5"],"rt":20258,"trial_type":"polygon-arrow-question","trial_index":0,"trial_index_global":54,"time_elapsed":1878494,"internal_chunk_id":"0-0.12-0"},{"nsides":9,"question":"What is 8 <img src=./images/nonagon_symbol.png style=width:14px;height:14px> 4? Please explain in words how you got your answer.","response_type":"free","response_choices":[],"correct_response":"3","response":"3","explain":true,"explanation":"Moved arrow 8 times, then 4 more times.","explanation_history":["Moves arrow 8 times, then 4 more times.","Move arrow 8 times, then 4 more times.","Moved arrow 8 times, then 4 more times."],"orientation_history":[[0],[5.580928375670579,5.580928375670579,5.580928375670579,5.580928375670579,5.580928375670579,5.580928375670579,5.580928375670579,5.585053606381854],[2.082027039072686,2.082027039072686,2.082027039072686,2.082027039072686,2.082027039072686,2.082027039072686,2.0943951023931953]],"response_history":["3"],"rt":19037,"trial_type":"polygon-arrow-question","trial_index":0,"trial_index_global":55,"time_elapsed":1897531,"internal_chunk_id":"0-0.12-0"},{"nsides":9,"question":"What is the identity under <img src=./images/nonagon_symbol.png style=width:14px;height:14px>? Please explain in words how you got your answer.","response_type":"free","response_choices":[],"correct_response":"0","response":"0","explain":true,"explanation":"Identity is always 0.","explanation_history":["Identity is always 0."],"orientation_history":[[0]],"response_history":["0"],"rt":15995,"trial_type":"polygon-arrow-question","trial_index":0,"trial_index_global":56,"time_elapsed":1913527,"internal_chunk_id":"0-0.12-0"},{"nsides":9,"question":"What is the inverse of 5 under <img src=./images/nonagon_symbol.png style=width:14px;height:14px>?","response_type":"free","response_choices":[],"correct_response":"4","response":"4","explain":false,"explanation":"","explanation_history":[],"orientation_history":[[0],[3.4633432079864352,3.4633432079864352,3.4633432079864352,3.4633432079864352,3.4633432079864352,3.4633432079864352,3.4633432079864352,3.4633432079864352,3.4633432079864352,3.490658503988659]],"response_history":["4"],"rt":10402,"trial_type":"polygon-arrow-question","trial_index":0,"trial_index_global":57,"time_elapsed":1923930,"internal_chunk_id":"0-0.12-0"},{"nsides":9,"question":"What is the inverse of 2 under <img src=./images/nonagon_symbol.png style=width:14px;height:14px>?","response_type":"free","response_choices":[],"correct_response":"7","response":"7","explain":false,"explanation":"","explanation_history":[],"orientation_history":[[0],[1.4341531643038095,1.4341531643038095,1.4341531643038095,1.4341531643038095,1.4341531643038095,1.4341531643038095,1.4341531643038095,1.4341531643038095,1.3962634015954636]],"response_history":["7"],"rt":8371,"trial_type":"polygon-arrow-question","trial_index":0,"trial_index_global":58,"time_elapsed":1932303,"internal_chunk_id":"0-0.12-0"},{"nsides":9,"question":"What is the inverse of 0 under <img src=./images/nonagon_symbol.png style=width:14px;height:14px>?","response_type":"free","response_choices":[],"correct_response":"0","response":"0","explain":false,"explanation":"","explanation_history":[],"orientation_history":[[0]],"response_history":["0"],"rt":283227,"trial_type":"polygon-arrow-question","trial_index":0,"trial_index_global":59,"time_elapsed":2215531,"internal_chunk_id":"0-0.12-0"},{"nsides":9,"question":"What is the inverse of 3 under <img src=./images/nonagon_symbol.png style=width:14px;height:14px>? Please explain in words how you got your answer.","response_type":"free","response_choices":[],"correct_response":"6","response":"6","explain":true,"explanation":"Moved arrow to 3.  I then counted how many to get to 0.","explanation_history":["Moved arrow ro","Moved arrow r","Moved arrow to 3.  I then counted how many to get to 0."],"orientation_history":[[0],[2.0988707752212563,2.0988707752212563,2.0988707752212563,2.0988707752212563,2.0988707752212563,2.0988707752212563,2.0988707752212563,2.0988707752212563,2.0943951023931953]],"response_history":["3","6"],"rt":26273,"trial_type":"polygon-arrow-question","trial_index":0,"trial_index_global":60,"time_elapsed":2241805,"internal_chunk_id":"0-0.12-0"},{"nsides":9,"question":"Is 2 a generator under <img src=./images/nonagon_symbol.png style=width:14px;height:14px>? Please explain in words how you got your answer.","response_type":"multi","response_choices":["Yes","No"],"correct_response":"Yes","response":"No","explain":true,"explanation":"It can not make every number.","explanation_history":["It can  not make every number."],"orientation_history":[[0]],"response_history":["No"],"rt":132798,"trial_type":"polygon-arrow-question","trial_index":0,"trial_index_global":61,"time_elapsed":2374604,"internal_chunk_id":"0-0.12-0"},{"nsides":9,"question":"Is 3 a generator under <img src=./images/nonagon_symbol.png style=width:14px;height:14px>? Please explain in words how you got your answer.","response_type":"multi","response_choices":["Yes","No"],"correct_response":"No","response":"Yes","explain":true,"explanation":"Odd numbers seem to be able to generate every number.","explanation_history":["Odd numbers seem to be able to generate every number."],"orientation_history":[[0]],"response_history":["Yes"],"rt":21320,"trial_type":"polygon-arrow-question","trial_index":0,"trial_index_global":62,"time_elapsed":2395926,"internal_chunk_id":"0-0.12-0"},{"nsides":9,"question":"Is 5 a generator under <img src=./images/nonagon_symbol.png style=width:14px;height:14px>? Please  explain  in words how you got your answer.","response_type":"multi","response_choices":["Yes","No"],"correct_response":"Yes","response":"Yes","explain":true,"explanation":"Another odd number, so I said yes. ","explanation_history":["ANother odd ","Aother odd ","Another odd  ","Another odd n ","Another odd nu ","Another odd num ","Another odd numb ","Another odd numbe ","Another odd number ","Another odd number,  ","Another odd number, s ","Another odd number, so  ","Another odd number, so I  ","Another odd number, so I s ","Another odd number, so I sa ","Another odd number, so I sais  ","Another odd number, so I sais ye ","Another odd number, so I sais yes ","Another odd number, so I sai yes ","Another odd number, so I said yes ","Another odd number, so I said yes. "],"orientation_history":[[0]],"response_history":["Yes"],"rt":25629,"trial_type":"polygon-arrow-question","trial_index":0,"trial_index_global":63,"time_elapsed":2421556,"internal_chunk_id":"0-0.12-0"},{"nsides":9,"question":"Is 6  a generator under <img src=./images/nonagon_symbol.png style=width:14px;height:14px>? Please explain in words how you got your answer.","response_type":"multi","response_choices":["Yes","No"],"correct_response":"No","response":"No","explain":true,"explanation":"No.  Even numbers don't generate every number.","explanation_history":["No.  Even numbers don't generte ","No.  Even numbers don't generte","No.  Even numbers don't genert","No.  Even numbers don't gener","No.  Even numbers don't generate every number."],"orientation_history":[[0]],"response_history":["No"],"rt":72389,"trial_type":"polygon-arrow-question","trial_index":0,"trial_index_global":64,"time_elapsed":2493946,"internal_chunk_id":"0-0.12-0"},{"nsides":"n","instructions":"Now we'd like to ask you some questions about <img src=./images/ngon_symbol.png style=width:14px;height:14px>, where n could be any positive counting number. For example, n could be 3, and the polygon a triangle, or n could be  any othe r counting number you can think of. If you need to write the operation, you can use (n), and your answers can include n to stand in for the arbitrary value if necessary. (You can use the polygon at the right to think, but it doesn't necessarily correspond to the real polygon, which is why we've left most of it dashed.)","orientation_history":[0,[0.6022873461349642,0.6022873461349642,0.6022873461349642,0.6022873461349642,0.6022873461349642,0.6022873461349642,0.6022873461349642],[1.1926540114722952,1.1926540114722952,1.1926540114722952,1.1926540114722952,1.1926540114722952,1.1926540114722952,1.1926540114722952,1.1926540114722952,1.1926540114722952,1.1926540114722952]],"rt":20466,"trial_type":"polygon-arrow-instructions","trial_index":0,"trial_index_global":65,"time_elapsed":2514413,"internal_chunk_id":"0-0"},{"nsides":"n","question":"What is the formula for the inverse of 1 under <img src=./images/ngon_symbol.png style=width:14px;height:14px>?","response_type":"fre e","response_choices":[],"correct_response":"n-1","response":"8","explain":false,"explanation":"","explanation_history":[],"orientation_history":[[0],[0.6728325475937631,0.6823165548747481,0.6823165548747481,0.6823165548747481,0.6823165548747481,0.6823165548747481,0.6823165548747481],[1.1553042308540058,1.1553042308540058,1.1553042308540058,1.1553042308540058,1.1553042308540058,1.1553042308540058,1.1553042308540058,1.1553042308540058,1.1553042308540058,1.1553042308540058],[1.6886684299921129,1.6886684299921129,1.6886684299921129,1.6886684299921129,1.6886684299921129,1.6886684299921129],[1.7908580294284617,1.7908580294284617,1.7908580294284617,1.7908580294284617,1.7908580294284617,1.7908580294284617,1.7908580294284617,1.7908580294284617,1.7908580294284617,1.7908580294284617,1.7908580294284617],[2.022249418347451,2.022249418347451,2.022249418347451,2.022249418347451,2.022249418347451,2.022249418347451,2.022249418347451,2.022249418347451,2.022249418347451],[1.2793395323170293,1.2793395323170293,1.2793395323170293,1.2793395323170293,1.2793395323170293,1.2793395323170293,1.2793395323170293,1.2793395323170293],[1.9004207342156394,1.9004207342156394,1.9004207342156394,1.9004207342156394,1.9004207342156394,1.9004207342156394,1.9004207342156394,1.9004207342156394,1.9004207342156394],[2.5672878234150915,2.5672878234150915,2.5672878234150915,2.5672878234150915,2.5672878234150915,2.5672878234150915,2.5672878234150915,2.5672878234150915,2.5672878234150915,2.5672878234150915],[3.64869115798213,3.64869115798213,3.64869115798213,3.64869115798213,3.64869115798213,3.64869115798213,3.64869115798213,3.64869115798213,3.64869115798213],[4.536994759841267,4.536994759841267,4.536994759841267,4.536994759841267,4.536994759841267,4.536994759841267,4.536994759841267,4.536994759841267,4.536994759841267,4.536994759841267],[5.237184752034796,5.237184752034796,5.237184752034796,5.237184752034796,5.237184752034796,5.237184752034796,5.237184752034796,5.237184752034796,5.237184752034796],[5.9856235824417805,5.9856235824417805,5.9856235824417805,5.9856235824417805,5.9856235824417805,5.9856235824417805,5.9856235824417805,5.9856235824417805,5.9856235824417805],[6.09554553537522,6.09554553537522,6.09554553537522,6.09554553537522,6.09554553537522,6.09554553537522,6.09554553537522,6.09554553537522]],"response_history":["8"],"rt":18745,"trial_type":"polygon-arrow-question","trial_index":0,"trial_index_global":66,"time_elapsed":2533158,"internal_chunk_id":"0-0.14-0"},{"nsides":"n","question":"What is the formula for the inverse of an element x under <img src=./images/ngon_symbol.png style=width:14px;height:14px>? Please explain in words why your answer is correct.","response_type":"free","response_choices":[],"correct_response":"n-x","response":"8","explain":true,"explanation":"It can be any number.","explanation_history":["It can be any number."],"orientation_history":[[0]],"response_history":["8"],"rt":26461,"trial_type":"polygon-arrow-question","trial_index":0,"trial_index_global":67,"time_elapsed":2559620,"internal_chunk_id":"0-0.14-0"},{"nsides":"n","question":"Is there a pattern to which elements are generators? How can you know if an element x is a generator under <img src=./images/ngon_symbol.png style=width:14px;height:14px> without seeing whether it can make all the elements?.","response_type":"free","response_choices":[],"correct_response":"","response":"There is no pattern.","explain":false,"explanation":"","explanation_history":[],"orientation_history":[[0]],"response_history":["There is no patter exce","There is no patter exc","There is no patter ex","There is no patter e","There is no patter ","There is no patter","There is no pattern."],"rt":17992,"trial_type":"polygon-arrow-question","trial_index":0,"trial_index_global":68,"time_elapsed":2577613,"internal_chunk_id":"0-0.14-0"},{"nsides":"n","question":"True or false: If x is an odd number, it must be a generator under <img src=./images/ngon_symbol.png style=width:14px; height:1 4px>.","response_type":"multi","response_choices":["True","False"],"correct_response":"False","response":"True","explain":false,"explanation":"","explanation_history":[],"orientation_history":[[0]],"response_history":["True"],"rt":5259,"trial_type":"polygon-arrow-question","trial_index":0,"trial_index_global":69,"time_elapsed":2582874,"internal_chunk_id":"0-0.14-0"},{"nsides":"n","question":"True or false: If x is an even number, it must not be a generator under <img src=./images/ngon_symbol.png style=width:14px;height:14px>.","response_type":"multi","response_choices":["True","False"],"correct_response":"False","response":"False","explain":false,"explanation":"","explanation_history":[],"orientation_history":[[0]],"response_history":["False"],"rt":5223,"trial_type":"polygon-arrow-question","trial_index":0,"trial_index_global":70,"time_elapsed":2588099,"internal_chunk_id":"0-0.14-0"},{"nsides":"n","question":"True or false: If x is not a generator under <img src= ./images /ngon_symbol.png style=width:14px;height:14px>, x must be a divisor of n, that is, x must divide n evenly, with no remainder.","response_type":"multi","response_choices":["True","False"],"correct_response":"False","response":"False","explain":false,"explanation":"","explanation_history":[],"orientation_history":[[0]],"response_history":["False"],"rt":15881,"trial_type":"polygon-arrow-question","trial_index":0,"trial_index_global":71,"time_elapsed":2603981,"internal_chunk_id":"0-0.14-0"},{"nsides":"n","question":"True or false: If x is not a generator under <img src=./images/ngon_symbol.png style=width:14px;height:14px>, x must be a multiple of a divisor of n. Please explain in words how you got your answer.","response_type":"multi","response_choices":["True","False"],"correct_response":"True","response":"False","explain":true,"explanation":"It seemed like ti required a lot of things to happen.  So, I played the odds and assumed it was false.","explanation_history":["It  seemed like ti required a lot of things to happen.  So, I played the odds.","It seemed like ti required a lot of things to happen.  So, I played the odds and assumed it was false."],"orientation_history":[[0]],"response_history":["False"],"rt":27775,"trial_type":"polygon-arrow-question","trial_index":0,"trial_index_global":72,"time_elapsed":2631758,"internal_chunk_id":"0-0.14-0"},{"nsides":"n","question":"If an element x is a generator under <img src=./images/ngon_symbol.png style=width:14px;height:14px>, is its inverse a generator under <img src=./images/ngon_symbol.png style=width:14px;height:14px> always, sometimes, or never?","response_type":"multi","response_choices":["Always","Sometimes","Never"],"correct_response":"Always","response":"Sometimes","explain":false,"explanation":"","explanation_history":[],"orientation_history":[[0]],"response_history":["Sometimes"],"rt":10431,"trial_type":"polygon-arrow-question","trial_index":0,"trial_index_global":73,"time_elapsed":2642190,"internal_chunk_id":"0-0.14-0"},{"nsides":"n","question":"If an element x is a generator under <img src=./images/ngon_symbol.png style=width:14px;height:14px>, is x <img src=./images/ngon_symbol.png style=width:14px;height:14px> x a generator under <img src=./images/ngon_symbol.png style=width:14px;height:14px> always, sometimes, or never? Please explain in words how you got your answer.","response_type":"multi","response_choices":["Always","Sometimes","Never"],"correct_response":"Sometimes","response":"Sometimes","explain":true,"explanation":"I think always, but I am guessing there is something I am missing.  So, I chose sometimes.","explanation_history":["I think always, but I am guessing there is something I am missing.  SO, I chose soemtime.","I think always, but I am guessing there is something I am missing.  SO, I chose soemtimees","I think always, but I am guessing there is something I am missing.  SO, I chose soemtimee","I think  always,  but I am guessing there is something I am missing.  SO, I chose soemtimes.","I think always, but I am guessing there is something I am missing.  S, I chose soemtimes.","I think always, but I am guessing there is something I am missing.  So, I chose soemtimes.","I think always, but I am guessing there is something I am missing.  So, I chose somtimes.","I think always, but I am guessing there is something I am missing.  So, I chose sometimes."],"orientation_history":[[0]],"response_history":["Sometimes"],"rt":39364,"trial_type":"polygon-arrow-question","trial_index":0,"trial_index_global":74,"time_elapsed":2681555,"internal_chunk_id":"0-0.14-0"},{"nsides":"n","question":"If an element x is not a generator under <img src=./images/ngon_symbol.png style=width:14px;height:14px>, is x <img src=./images/ngon_symbol.png style=width:14px;height:14px> x a generator under <img src=./images/ngon_symbol.png style=width:14px;height:14px> always, sometimes, or never? ","response_type":"multi","response_choices":["Always","Sometimes","Never"],"correct_response":"Never","response":"Never","explain":false,"explanation":"","explanation_history":[],"orientation_history":[[0]],"response_history":["Never"],"rt":14521,"trial_type":"polygon-arrow-question","trial_index":0,"trial_index_global":75,"time_elapsed":2696076,"internal_chunk_id":"0-0.14-0"},{"instructions":"We would like to ask you some questions about your background. Please press Continue to continue.","rt":2166,"trial_type":"instructions","trial_index":0,"trial_index_global":76,"time_elapsed":2698245,"internal_chunk_id":"0-0.15-0"},{"question":"What is your age?","response_type":"free","response_choices":[],"correct_response":"","response":"37","explain":false,"explanation":"","explanation_history":[],"response_history":["37"],"rt":2230,"trial_type":"question","trial_index":0,"trial_index_global":77,"time_elapsed":2700477,"internal_chunk_id":"0-0.15-0"},{"question":"What is your level of  educatio n?","response_type":"multi","response_choices":["Did not graduate high school","High school diploma","Some college, no degree","Associates Degree","Bachelors Degree","Some graduate school, no degree","Masters Degree","Doctorate, M.D., etc."],"correct_response":"","response":"Bachelors Degree","explain":false,"explanation":"","explanation_history":[],"response_history":["Bachelors Degree"],"rt":2283,"trial_type":"question","trial_index":0,"trial_index_global":78,"time_elapsed":2702762,"internal_chunk_id":"0-0.15-0"},{"question":"What is the most advanced math class you've completed? If you have multiple classes and you're not sure which one is most advanced, please list them.","response_type":"free","response_choices":[],"correct_response":"","response":"Geometry","explain":false,"explanation":"","explanation_history":[],"response_history":["Algebra 2","Geometry"],"rt":17916,"trial_type":"question","trial_index":0,"trial_index_global":79,"time_elapsed":2720680,"internal_chunk_id":"0- 0.15-0"},{"question":"How familiar are you with the concept of modular arithmetic?","response_type":"multi","response_choices":["1 - never heard of it","2 - heard of it but didn't know what it was","3 - seen it used or explained","4 - used it but not often or recently","5 - used it, remember and understand it"],"correct_response":"1","response":"1 - never heard of it","explain":false,"explanation":"","explanation_history":[],"response_history":["1 - never heard of it"],"rt":6671,"trial_type":"question","trial_index":0,"trial_index_global":80,"time_elapsed":2727351,"internal_chunk_id":"0-0.15-0"},{"question":"How familiar are you with the concept of a mathematical group?","response_type":"multi","response_choices":["1 - never heard of it","2 - heard of it but didn't know what it was","3 - seen it used or explained","4 - used it but not often or recently","5 - used it, remember and understand it"],"correct_response":"1","response":"1 - never heard of it","explain":false,"explanation":"","explanation_history":[],"response_history":["1 - never heard of it"],"rt":3710,"trial_type":"question","trial_index":0,"trial_index_global":81,"time_elapsed":2731062,"internal_chunk_id":"0-0.15-0"},{"question":"Do you feel you learned something from this HIT?","response_type":"multi","response_choices":["1 - not at all","2 - somewhat","3 - definitely"],"correct_response":"1","response":"1 - not at all","explain":false,"explanation":"","explanation_history":[],"response_history":["1 - not at all"],"rt":4713,"trial_type":"question","trial_index":0,"trial_index_global":82,"time_elapsed":2735775,"internal_chunk_id":"0-0.15-0"},{"question":"Do you feel you understood the concepts in this HIT?","response_type":"multi","response_choices":["1 - not at all","2 - somewhat","3 - definitely"],"correct_response":"1","response":"2 - somewhat","explain":false,"explanation":"","explanation_history":[],"response_history":["2 - somewhat"],"rt":2880,"trial_type":"question","trial_index":0,"trial_index_global":83,"time_elapsed":2738655,"internal_chunk_id":"0-0.15-0"},{"question":"Did you enjoy this HIT?","response_type":"multi","response_choices":["1 - not at all","2 - somewhat","3 - definitely"],"correct_response":"1","response":"2 - somewhat","explain":false,"explanation":"","explanation_history":[],"response_history":["2 - somewhat"],"rt":2091,"trial_type":"question","trial_index":0,"trial_index_global":84,"time_elapsed":2740747,"internal_chunk_id":"0-0.15-0"},{"question":"What is your gender?","response_type":"multi","response_choices":["Female","Male","Other"],"correct_response":"","response":"Male","explain":false,"explanation":"","explanation_history":[],"response_history":["Male"],"rt":2578,"trial_type":"question","trial_index":0,"trial_index_global":85,"time_elapsed":2743327,"internal_chunk_id":"0-0.15-0"},{"question":"What is/are your native language(s)? (The languages spoken in your household when you were a child.)","response_type":"free","response_choices":[],"correct_response":"","response":"English","explain":false,"explanation":"","explanation_history":[],"response_history":["English"],"rt":5248,"trial_type":"question","trial_index":0,"trial_index_global":86,"time_elapsed":2748576,"internal_chunk_id":"0-0.15-0"},{"question":"Did you use pen and paper at any point on this HIT?","response_type":"free","response_choices":[],"correct_response":"","response":"No.","explain":false,"explanation":"","explanation_history":[],"response_history":["No."],"rt":4311,"trial_type":"question","trial_index":0,"trial_index_global":87,"time_elapsed":2752888,"internal_chunk_id":"0-0.15-0"},{"question":"Do you have any comments on this HIT?","response_type":"free","response_choices":[],"correct_response":"","response":"No.","explain":false,"explanation":"","explanation_history":[],"response_history":["No."],"rt":3736,"trial_type":"question","trial_index":0,"trial_index_global":88,"time_elapsed":2756625,"internal_chunk_id":"0-0.15-0"}]