[{"nsides":6,"instructions":"Let's define a new operation <img src=./images/hexagon_symbol.png style=width:14px;height:14px>. This operation will give us a way of combining two of the numbers 0, 1, 2, 3, 4, 5 to get another one of them back. To perform <img src=./images/hexagon_symbol.png style=width:14px;height:14px>, you can either use a method based on the hexagon at right, or a method based on arithmetic.<br /><b>Hexagon method:</b> you can use the interactive diagram on the right, or perform the operation in your mind. Point the arrow at the first number on the hexagon by clicking, then click (or click and drag) to move the arrow the second number of points clockwise around the hexagon. The number the arrow arrives at is your result. (The operation is called <img src=./images/hexagon_symbol.png style=width:14px;height:14px> because it uses the hexagon, which has 6 sides.) <br ><b>Arithmetic method:</b> you start with the first number, and then add  the sec ond one to it. If the sum is smaller than 6, that's your result. If the sum is 6 or bigger, you subtract 6 to get your result. <br /><br />For example, 3 <img src=./images/hexagon_symbol.png style=width:14px;height:14px> 5 = 2, because 5 steps clockwise from 3 on the hexagon brings us to 2. Equivalently, 3 + 5 = 8, and 8 is bigger than 6, so we subtract 6, and 8 - 6 = 2. So 3 <img src=./images/hexagon_symbol.png style=width:14px;height:14px> 5 = 2.<br /><br />Similarly, 1 <img src=./images/hexagon_symbol.png style=width:14px;height:14px> 4 = 5, because 1 + 4 = 5, and 5 is less than 6 so we leave it alone. Equivalently, 4 steps clockwise from 1 on the hexagon brings us to 5. <br /><br />Click Continue when you're ready to move on.","orientation_history":[0],"rt":2919,"trial_type":"polygon-arrow-instructions","trial_index":0,"trial_index_global":1,"time_elapsed":10137,"internal_chunk_id":"0-0"},{"nsides":6,"instructions":"Do you see how the differen t ways o f performing <img src=./images/hexagon_symbol.png style=width:14px;height:14px> give the same result? By labeling the points of the hexagon with the numbers from 0 to 5, we ensure that when we combine two numbers using the hexagon, we only produce numbers between 0 and 5. When we use the arithmetic strategy, adding the second number to the first mimics counting around the hexagon, and subtracting 6 each time we get above 5 makes sure the results correspond to the numbers on the points of the hexagon. <br /><br />Click Continue when you're ready to move on.","orientation_history":[0],"rt":1677,"trial_type":"polygon-arrow-instructions","trial_index":0,"trial_index_global":2,"time_elapsed":11815,"internal_chunk_id":"0-0"},{"nsides":6,"question":"Now try one on your own! What is 4 <img src=./images/hexagon_symbol.png style=width:14px;height:14px> 5? <br /><br /> (Remember, to perform <img src=./images/hexagon_symbol.png style=width:14px;height:14px>,  you can  either use a method based on the hexagon at right, or a method based on arithmetic.<br /><br /><b>Hexagon method:</b> you can use the interactive diagram on the right, or perform the operation in your mind. Point the arrow at the first number, then move the arrow the second number of points clockwise around the hexagon. The number the arrow arrives at is your result. <br /><br /><b>Arithmetic method:</b> you start with the first number, and then add the second one to it. If the sum is smaller than 6, that's your result. If the sum is 6 or bigger, you subtract 6 to get your result.)","response_type":"free","response_choices":[],"correct_response":"3","response":"4","explain":false,"explanation":"","explanation_history":[],"orientation_history":[[0]],"response_history":["4"],"rt":6404,"trial_type":"polygon-arrow-question","trial_index":0,"trial_index_global":3,"time_elapsed":18221,"internal_chunk_id":"0-0.3-0"},{"nsides":6,"feedback":"Sorry, that was incorrect. 4 <img src=./ images/h exagon_symbol.png style=width:14px;height:14px> 5 = 3 because 5 steps clockwise on the hexagon from 4 brings us to 3. Equivalently, 4 + 5 = 9 and 9 - 6 = 3.","orientation_history":[0],"rt":2786,"trial_type":"polygon-arrow-feedback","trial_index":0,"trial_index_global":4,"time_elapsed":21009,"internal_chunk_id":"0-0.3-0"},{"nsides":6,"question":"What is 3 <img src=./images/hexagon_symbol.png style=width:14px;height:14px> 2? Try to solve this problem using the hexagon. <br /><br /> (Remember, to perform <img src=./images/hexagon_symbol.png style=width:14px;height:14px> on the hexagon, you can use the interactive diagram on the right, or perform the operation in your mind. Point the arrow at the first number on the hexagon, and then move the arrow the second number of points clockwise around the hexagon.)","response_type":"free","response_choices":[],"correct_response":"5","response":"5","explain":false,"explanation":"","explanation_history":[],"orientation_history":[[0]],"response_history":["5"],"rt":3834,"trial_type":"polygon-arrow-question","trial_index":0,"trial_index_global":5,"time_elapsed":24844,"internal_chunk_id":"0-0.3-0"},{"nsides":6,"feedback":"Correct! 3 <img src=./images/hexagon_symbol.png style=width:14px;height:14px> 2 = 5 because 2 steps clockwise on the hexagon from 3 brings us to 5. Equivalently, 3 + 2 = 5 and 5 is less than 6.","orientation_history":[0],"rt":804,"trial_type":"polygon-arrow-feedback","trial_index":0,"trial_index_global":6,"time_elapsed":25649,"internal_chunk_id":"0-0.3-0"},{"nsides":6,"question":"What is 1 <img src=./images/hexagon_symbol.png style=width:14px;height:14px> 5? Try to solve this probem using the arithmetic technique. <br /><br /> (Remember, to perform <img src=./images/hexagon_symbol.png style=width:14px;height:14px> by arithmetic, you start with the first number, and then add the second one to it. If the sum is smaller than 6, that's your result. If the sum is  6 or bi gger, you subtract 6 to get your result.)","response_type":"free","response_choices":[],"correct_response":"0","response":"0","explain":false,"explanation":"","explanation_history":[],"orientation_history":[[0]],"response_history":["0"],"rt":2383,"trial_type":"polygon-arrow-question","trial_index":0,"trial_index_global":7,"time_elapsed":28033,"internal_chunk_id":"0-0.3-0"},{"nsides":6,"feedback":"Correct! 1 <img src=./images/hexagon_symbol.png style=width:14px;height:14px> 5 = 0 because 1 + 5 = 6 and 6 - 6 = 0.  Equivalently, 5 steps clockwise on the hexagon from 1 brings us to 0.","orientation_history":[0],"rt":787,"trial_type":"polygon-arrow-feedback","trial_index":0,"trial_index_global":8,"time_elapsed":28820,"internal_chunk_id":"0-0.3-0"},{"nsides":6,"question":"What is 1 <img src=./images/hexagon_symbol.png style=width:14px;height:14px> 1? Try to solve this problem using the hexagon. <br /><br /> (Remember, to perform <img src=./images/hexagon_symbol.p ng sty le=width:14px;height:14px> on the hexagon, you can use the interactive diagram on the right, or perform the operation in your mind. Point the arrow at the first number on the hexagon, and then move the arrow the second number of points clockwise around the hexagon.)","response_type":"free","response_choices":[],"correct_response":"2","response":"2","explain":false,"explanation":"","explanation_history":[],"orientation_history":[[0]],"response_history":["2"],"rt":2235,"trial_type":"polygon-arrow-question","trial_index":0,"trial_index_global":9,"time_elapsed":31056,"internal_chunk_id":"0-0.3-0"},{"nsides":6,"feedback":"Correct! 1 <img src=./images/hexagon_symbol.png style=width:14px;height:14px> 1 = 2 because 1 step clockwise on the hexagon from 1 brings us to 2. Equivalently, 1 + 1 = 2 and 2 is less than 6.","orientation_history":[0],"rt":647,"trial_type":"polygon-arrow-feedback","trial_index":0,"trial_index_global":10,"time_elapsed":31704,"internal_chunk_id":"0-0 .3-0"},{"nsides":6,"question":"What is 3 <img src=./images/hexagon_symbol.png style=width:14px;height:14px> 0? Try to solve this problem using the arithmetic technique. <br /><br /> (Remember, to perform <img src=./images/hexagon_symbol.png style=width:14px;height:14px> using arithmetic, you start with the first number, and then add the second one to it. If the sum is smaller than 6, that's your result. If the sum is 6 or bigger, you subtract 6 to get your result.)","response_type":"free","response_choices":[],"correct_response":"3","response":"3","explain":false,"explanation":"","explanation_history":[],"orientation_history":[[0]],"response_history":["3"],"rt":1873,"trial_type":"polygon-arrow-question","trial_index":0,"trial_index_global":11,"time_elapsed":33578,"internal_chunk_id":"0-0.3-0"},{"nsides":6,"feedback":"Correct! 3 <img src=./images/hexagon_symbol.png style=width:14px;height:14px> 0 = 3 because 3 + 0 = 3 and 3 - 6 = 3.  Equivalently, 0 steps cloc kwise on  the hexagon from 3 brings us to 3.","orientation_history":[0],"rt":705,"trial_type":"polygon-arrow-feedback","trial_index":0,"trial_index_global":12,"time_elapsed":34283,"internal_chunk_id":"0-0.3-0"},{"nsides":6,"question":"What is 4 <img src=./images/hexagon_symbol.png style=width:14px;height:14px> 4? Try to solve this problem using the hexagon. <br /><br /> (Remember, to perform <img src=./images/hexagon_symbol.png style=width:14px;height:14px> on the hexagon, you can use the interactive diagram on the right, or perform the operation in your mind. Point the arrow at the first number on the hexagon, and then move the arrow the second number of points clockwise around the hexagon.)","response_type":"free","response_choices":[],"correct_response":"2","response":"2","explain":false,"explanation":"","explanation_history":[],"orientation_history":[[0]],"response_history":["2"],"rt":2701,"trial_type":"polygon-arrow-question","trial_index":0,"trial_index_global":13,"time_elapsed":36985,"internal_chunk_id":"0-0.3-0"},{"nsides":6,"feedback":"Correct! 4 <img src=./images/hexagon_symbol.png style=width:14px;height:14px> 4 = 2 because 4 steps clockwise on the hexagon from 4 brings us to 2. Equivalently, 4 + 4 = 8 and 8 - 6 = 2.","orientation_history":[0],"rt":703,"trial_type":"polygon-arrow-feedback","trial_index":0,"trial_index_global":14,"time_elapsed":37689,"internal_chunk_id":"0-0.3-0"},{"nsides":6,"question":"What is 1 <img src=./images/hexagon_symbol.png style=width:14px;height:14px> 3? Try to solve this problem using the arithmetic technique. <br /><br /> (Remember, to perform <img src=./images/hexagon_symbol.png style=width:14px;height:14px> by arithmetic, you start with the first number, and then add the second one to it. If the sum is smaller than 6, that's your result. If the sum is 6 or bigger, you subtract 6 to get your result.)","response_type":"free","response_choices":[],"correct_response":"4","response":" 4","explain":false,"explanation":"","explanation_history":[],"orientation_history":[[0]],"response_history":["4"],"rt":1500,"trial_type":"polygon-arrow-question","trial_index":0,"trial_index_global":15,"time_elapsed":39189,"internal_chunk_id":"0-0.3-0"},{"nsides":6,"feedback":"Correct! 1 <img src=./images/hexagon_symbol.png style=width:14px;height:14px> 3 = 4 because 1 + 3 = 4 and 4 - 6 = 4.  Equivalently, 3 steps clockwise on the hexagon from 1 brings us to 4.","orientation_history":[0],"rt":645,"trial_type":"polygon-arrow-feedback","trial_index":0,"trial_index_global":16,"time_elapsed":39836,"internal_chunk_id":"0-0.3-0"},{"nsides":6,"question":"What is 4 <img src=./images/hexagon_symbol.png style=width:14px;height:14px> 3? <br /><br /> (Remember, to perform <img src=./images/hexagon_symbol.png style=width:14px;height:14px>, you can either use a method based on the hexagon at right, or a method based on arithmetic.<br /><br /><b>Hexagon method:</b> you can  use the  interactive diagram on the right, or perform the operation in your mind. Point the arrow at the first number, then move the arrow the second number of points clockwise around the hexagon. The number the arrow arrives at is your result. <br /><br /><b>Arithmetic method:</b> you start with the first number, and then add the second one to it. If the sum is smaller than 6, that's your result. If the sum is 6 or bigger, you subtract 6 to get your result.)","response_type":"free","response_choices":[],"correct_response":"1","response":"1","explain":false,"explanation":"","explanation_history":[],"orientation_history":[[0]],"response_history":["1"],"rt":6804,"trial_type":"polygon-arrow-question","trial_index":0,"trial_index_global":17,"time_elapsed":46641,"internal_chunk_id":"0-0.3-0"},{"nsides":6,"feedback":"Correct! 4 <img src=./images/hexagon_symbol.png style=width:14px;height:14px> 3 = 1 because 3 steps clockwise on the hexagon from 4 brings us to 1. Equivalently, 4 + 3  = 7 and  7 - 6 = 1.","orientation_history":[0],"rt":1241,"trial_type":"polygon-arrow-feedback","trial_index":0,"trial_index_global":18,"time_elapsed":47883,"internal_chunk_id":"0-0.3-0"},{"nsides":6,"question":"What is 0 <img src=./images/hexagon_symbol.png style=width:14px;height:14px> 5? <br /><br /> (Remember, to perform <img src=./images/hexagon_symbol.png style=width:14px;height:14px>, you can either use a method based on the hexagon at right, or a method based on arithmetic.<br /><br /><b>Hexagon method:</b> you can use the interactive diagram on the right, or perform the operation in your mind. Point the arrow at the first number, then move the arrow the second number of points clockwise around the hexagon. The number the arrow arrives at is your result. <br /><br /><b>Arithmetic method:</b> you start with the first number, and then add the second one to it. If the sum is smaller than 6, that's your result. If the sum is 6 or bigger, you subtract 6 to get your  result. )","response_type":"free","response_choices":[],"correct_response":"5","response":"5","explain":false,"explanation":"","explanation_history":[],"orientation_history":[[0]],"response_history":["5"],"rt":2108,"trial_type":"polygon-arrow-question","trial_index":0,"trial_index_global":19,"time_elapsed":49992,"internal_chunk_id":"0-0.3-0"},{"nsides":6,"feedback":"Correct! 0 <img src=./images/hexagon_symbol.png style=width:14px;height:14px> 5 = 5 because 5 steps clockwise on the hexagon from 0 brings us to 5. Equivalently, 0 + 5 = 5 and 5 is less than 6.","orientation_history":[0],"rt":1147,"trial_type":"polygon-arrow-feedback","trial_index":0,"trial_index_global":20,"time_elapsed":51140,"internal_chunk_id":"0-0.3-0"},{"nsides":6,"question":"What is 2 <img src=./images/hexagon_symbol.png style=width:14px;height:14px> 5? <br /><br /> (Remember, to perform <img src=./images/hexagon_symbol.png style=width:14px;height:14px>, you can either use a method based on  the hex agon at right, or a method based on arithmetic.<br /><br /><b>Hexagon method:</b> you can use the interactive diagram on the right, or perform the operation in your mind. Point the arrow at the first number, then move the arrow the second number of points clockwise around the hexagon. The number the arrow arrives at is your result. <br /><br /><b>Arithmetic method:</b> you start with the first number, and then add the second one to it. If the sum is smaller than 6, that's your result. If the sum is 6 or bigger, you subtract 6 to get your result.)","response_type":"free","response_choices":[],"correct_response":"1","response":"1","explain":false,"explanation":"","explanation_history":[],"orientation_history":[[0]],"response_history":["1"],"rt":2781,"trial_type":"polygon-arrow-question","trial_index":0,"trial_index_global":21,"time_elapsed":53922,"internal_chunk_id":"0-0.3-0"},{"nsides":6,"feedback":"Correct! 2 <img src=./images/hexagon_symbol.png style=width:14px;height :14px>  5 = 1 because 5 steps clockwise on the hexagon from 2 brings us to 1. Equivalently, 2 + 5 = 7 and 7 - 6 = 1.","orientation_history":[0],"rt":1037,"trial_type":"polygon-arrow-feedback","trial_index":0,"trial_index_global":22,"time_elapsed":54960,"internal_chunk_id":"0-0.3-0"},{"nsides":6,"instructions":"Now we're going to discuss a couple special properties of this new operation, <img src=./images/hexagon_symbol.png style=width:14px;height:14px> that we've learned. First, notice that the number 0 behaves in a special way under <img src=./images/hexagon_symbol.png style=width:14px;height:14px>. Whenever we combine 0 with anything else, we get that same thing back. We'll say that 0 is the <i>identity</i> under <img src=./images/hexagon_symbol.png style=width:14px;height:14px>, because when you combine it with something it gives you that identical thing back.","orientation_history":[0],"rt":2258,"trial_type":"polygon-arrow-instructions","trial_index":0,"trial_index_global":23,"time_elapsed":57220,"internal_chunk_id":"0-0"},{"nsides":6,"instructions":"Now that we know 0 is the identity under <img src=./images/hexagon_symbol.png style=width:14px;height:14px>, we're going to make a new definition. We'll say that the <i>inverse</i> of a number is the element that you combine with it to produce the identity. For example, 5 <img src=./images/hexagon_symbol.png style=width:14px;height:14px> 1 = 0, so we say 1 is the inverse of 5 under <img src=./images/hexagon_symbol.png style=width:14px;height:14px>, (remember 0 is the identity under <img src=./images/hexagon_symbol.png style=width:14px;height:14px>). Similarly, 3 is its own inverse under <img src=./images/hexagon_symbol.png style=width:14px;height:14px>, because 3 <img src=./images/hexagon_symbol.png style=width:14px;height:14px> 3 = 0.","orientation_history":[0],"rt":14137,"trial_type":"polygon-arrow-instructions","trial_index":0,"trial_index_global":24,"time_elapsed":71358,"internal_chunk_id":"0-0"},{"nsides":6,"question":"Now you try! What is the inverse of 4 under <img src=./images/hexagon_symbol.png style=width:14px;height:14px>? <br /><br /> (Remember, the inverse of an element is the thing which you combine with it to produce the identity.)","response_type":"free","response_choices":[],"correct_response":"2","response":"2","explain":false,"explanation":"","explanation_history":[],"orientation_history":[[0]],"response_history":["2"],"rt":58738,"trial_type":"polygon-arrow-question","trial_index":0,"trial_index_global":25,"time_elapsed":130098,"internal_chunk_id":"0-0.7-0"},{"nsides":6,"feedback":"Correct! The inverse of 4 under <img src=./images/hexagon_symbol.png style=width:14px;height:14px> is 2 because 4 <img src=./images/hexagon_symbol.png style=width:14px;height:14px> 2 = 0, and 0 is the identity under <img src=./images/hexagon_symbol.png style=width:14px;height:14px>.","orientation_history":[0],"rt":735,"trial_type":"polygon-arrow-feedback","trial_index":0,"trial_index_global":26,"time_elapsed":130835,"internal_chunk_id":"0-0.7-0"},{"nsides":6,"question":"What is the inverse of 1 under <img src=./images/hexagon_symbol.png style=width:14px;height:14px>? <br /><br /> (Remember, the inverse of an element is the thing which you combine with it to produce the identity.)","response_type":"free","response_choices":[],"correct_response":"5","response":"5","explain":false,"explanation":"","explanation_history":[],"orientation_history":[[0]],"response_history":["5"],"rt":2194,"trial_type":"polygon-arrow-question","trial_index":0,"trial_index_global":27,"time_elapsed":133029,"internal_chunk_id":"0-0.7-0"},{"nsides":6,"feedback":"Correct! The inverse of 1 under <img src=./images/hexagon_symbol.png style=width:14px;height:14px> is 5 because 1 <img src=./images/hexagon_symbol.png style=width:14px;height:14px> 5 = 0, and 0 is the identity und er <img  src=./images/hexagon_symbol.png style=width:14px;height:14px>.","orientation_history":[0],"rt":685,"trial_type":"polygon-arrow-feedback","trial_index":0,"trial_index_global":28,"time_elapsed":133715,"internal_chunk_id":"0-0.7-0"},{"nsides":6,"question":"What is the inverse of 3 under <img src=./images/hexagon_symbol.png style=width:14px;height:14px>? <br /><br /> (Remember, the inverse of an element is the thing which you combine with it to produce the identity.)","response_type":"free","response_choices":[],"correct_response":"3","response":"3","explain":false,"explanation":"","explanation_history":[],"orientation_history":[[0]],"response_history":["3"],"rt":4663,"trial_type":"polygon-arrow-question","trial_index":0,"trial_index_global":29,"time_elapsed":138379,"internal_chunk_id":"0-0.7-0"},{"nsides":6,"feedback":"Correct! The inverse of 3 under <img src=./images/hexagon_symbol.png style=width:14px;height:14px> is 3 because 3 <img src=./images/hex agon_sym bol.png style=width:14px;height:14px> 3 = 0, and 0 is the identity under <img src=./images/hexagon_symbol.png style=width:14px;height:14px>.","orientation_history":[0],"rt":1914,"trial_type":"polygon-arrow-feedback","trial_index":0,"trial_index_global":30,"time_elapsed":140293,"internal_chunk_id":"0-0.7-0"},{"nsides":6,"question":"What is the inverse of 2 under <img src=./images/hexagon_symbol.png style=width:14px;height:14px>? <br /><br /> (Remember, the inverse of an element is the thing which you combine with it to produce the identity.)","response_type":"free","response_choices":[],"correct_response":"4","response":"4","explain":false,"explanation":"","explanation_history":[],"orientation_history":[[0]],"response_history":["4"],"rt":8111,"trial_type":"polygon-arrow-question","trial_index":0,"trial_index_global":31,"time_elapsed":148404,"internal_chunk_id":"0-0.7-0"},{"nsides":6,"feedback":"Correct! The inverse of 2 under <img src=./images/hexagon_ symbol.p ng style=width:14px;height:14px> is 4 because 2 <img src=./images/hexagon_symbol.png style=width:14px;height:14px> 4 = 0, and 0 is the identity under <img src=./images/hexagon_symbol.png style=width:14px;height:14px>.","orientation_history":[0],"rt":1233,"trial_type":"polygon-arrow-feedback","trial_index":0,"trial_index_global":32,"time_elapsed":149638,"internal_chunk_id":"0-0.7-0"},{"nsides":6,"question":"What is the inverse of 0 under <img src=./images/hexagon_symbol.png style=width:14px;height:14px>? <br /><br /> (Remember, the inverse of an element is the thing which you combine with it to produce the identity.)","response_type":"free","response_choices":[],"correct_response":"0","response":"0","explain":false,"explanation":"","explanation_history":[],"orientation_history":[[0]],"response_history":["0"],"rt":2403,"trial_type":"polygon-arrow-question","trial_index":0,"trial_index_global":33,"time_elapsed":152043,"internal_chunk_id":"0-0.7-0"},{"nsides":6,"feedback":"Correct! The inverse of 0 under <img src=./images/hexagon_symbol.png style=width:14px;height:14px> is 0 because 0 <img src=./images/hexagon_symbol.png style=width:14px;height:14px> 0 = 0, and 0 is the identity under <img src=./images/hexagon_symbol.png style=width:14px;height:14px>.","orientation_history":[0],"rt":1312,"trial_type":"polygon-arrow-feedback","trial_index":0,"trial_index_global":34,"time_elapsed":153355,"internal_chunk_id":"0-0.7-0"},{"nsides":6,"instructions":"It is also possible to successively apply <img src=./images/hexagon_symbol.png style=width:14px;height:14px>, and the operation can simply be performed starting with the left-most pair. For example, 2 <img src=./images/hexagon_symbol.png style=width:14px;height:14px> 3 <img src=./images/hexagon_symbol.png style=width:14px;height:14px> 4 = 5 <img src=./images/hexagon_symbol.png style=width:14px;height:14px> 4 = 3.","orientation_history":[0],"rt":49111,"trial_type":"polygon-arrow-instructions","trial_index":0,"trial_index_global":35,"time_elapsed":202467,"internal_chunk_id":"0-0"},{"nsides":6,"instructions":"We have one last definition to learn today, using the successive operations we just learned. Let's start with an example. Under our operation <img src=./images/hexagon_symbol.png style=width:14px;height:14px> we can make every other number using just 1: 2 = 1 <img src=./images/hexagon_symbol.png style=width:14px;height:14px> 1, 3 = 1 <img src=./images/hexagon_symbol.png style=width:14px;height:14px> 1 <img src=./images/hexagon_symbol.png style=width:14px;height:14px> 1, 4 = 1 <img src=./images/hexagon_symbol.png style=width:14px;height:14px> 1 <img src=./images/hexagon_symbol.png style=width:14px;height:14px> 1 <img src=./images/hexagon_symbol.png style=width:14px;height:14px> 1, 5 = 1 <img src=./images/hexagon_symbol.png style=width:14px;height:1 4px> 1  <img src=./images/hexagon_symbol.png style=width:14px;height:14px> 1 <img src=./images/hexagon_symbol.png style=width:14px;height:14px> 1 <img src=./images/hexagon_symbol.png style=width:14px;height:14px> 1, and 0 = 1 <img src=./images/hexagon_symbol.png style=width:14px;height:14px> 1 <img src=./images/hexagon_symbol.png style=width:14px;height:14px> 1 <img src=./images/hexagon_symbol.png style=width:14px;height:14px> 1 <img src=./images/hexagon_symbol.png style=width:14px;height:14px> 1 <img src=./images/hexagon_symbol.png style=width:14px;height:14px> 1. Because 1 can make every other element under <img src=./images/hexagon_symbol.png style=width:14px;height:14px>, we say that 1 is a <i>generator</i> under <img src=./images/hexagon_symbol.png style=width:14px;height:14px>. <br /><br /> However, 2 is not a generator under <img src=./images/hexagon_symbol.png style=width:14px;height:14px>, beca use 4 = 2 <img src=./images/hexagon_symbol.png style=width:14px;height:14px> 2, and 0 = 2 <img src=./images/hexagon_symbol.png style=width:14px;height:14px> 2 <img src=./images/hexagon_symbol.png style=width:14px;height:14px> 2, but there is no way to make 1, 3, or 5 using just 2.","orientation_history":[0],"rt":36124,"trial_type":"polygon-arrow-instructions","trial_index":0,"trial_index_global":36,"time_elapsed":238592,"internal_chunk_id":"0-0"},{"nsides":6,"question":"Now you try! Is 3 a generator under <img src=./images/hexagon_symbol.png style=width:14px;height:14px>? <br /><br /> (Remember, a generator is an element which can make every other element.)","response_type":"multi","response_choices":["Yes","No"],"correct_response":"No","response":"No","explain":false,"explanation":"","explanation_history":[],"orientation_history":[[0]],"response_history":["No"],"rt":9545,"trial_type":"polygon-arrow-question","trial_index":0,"trial_index_global":37,"time_elapsed":248138,"internal_chunk_id":"0-0.10-0"},{"nsides":6,"feedback":"Correct! 3 is not a generator under <img src=./images/hexagon_symbol.png style=width:14px;height:14px>, because 3 = 3, 0 = 3 <img src=./images/hexagon_symbol.png style=width:14px;height:14px> 3, but there is no way to make 1, 2, 4, or 5 using just 3.","orientation_history":[0],"rt":1056,"trial_type":"polygon-arrow-feedback","trial_index":0,"trial_index_global":38,"time_elapsed":249194,"internal_chunk_id":"0-0.10-0"},{"nsides":6,"question":"Is 5 a generator under <img src=./images/hexagon_symbol.png style=width:14px;height:14px>? <br /><br /> (Remember, a generator is an element which can make every other element.)","response_type":"multi","response_choices":["Yes","No"],"correct_response":"Yes","response":"Yes","explain":false,"explanation":"","explanation_history":[],"orientation_history":[[0]],"response_history":["Yes"],"rt":12028,"trial_type":"polygon-arrow-question","trial_index":0,"trial_index_global":39,"time_elapsed":261223,"internal_chunk_id":"0-0.10-0"},{"nsides":6,"feedback":"Correct! 5 is a generator under <img src=./images/hexagon_symbol.png style=width:14px;height:14px>, because 5 = 5, 4 = 5 <img src=./images/hexagon_symbol.png style=width:14px;height:14px> 5, 3 = 5 <img src=./images/hexagon_symbol.png style=width:14px;height:14px> 5 <img src=./images/hexagon_symbol.png style=width:14px;height:14px> 5, 2 = 5 <img src=./images/hexagon_symbol.png style=width:14px;height:14px> 5 <img src=./images/hexagon_symbol.png style=width:14px;height:14px> 5 <img src=./images/hexagon_symbol.png style=width:14px;height:14px> 5, 1 = 5 <img src=./images/hexagon_symbol.png style=width:14px;height:14px> 5 <img src=./images/hexagon_symbol.png style=width:14px;height:14px> 5 <img src=./images/hexagon_symbol.png style=width:14px;height:14px> 5 <img src=./images/hexagon_symbol.png s tyle=w idth:14px;height:14px> 5, and 0 = 5 <img src=./images/hexagon_symbol.png style=width:14px;height:14px> 5 <img src=./images/hexagon_symbol.png style=width:14px;height:14px> 5 <img src=./images/hexagon_symbol.png style=width:14px;height:14px> 5 <img src=./images/hexagon_symbol.png style=width:14px;height:14px> 5 <img src=./images/hexagon_symbol.png style=width:14px;height:14px> 5, so you can make all of the numbers under <img src=./images/hexagon_symbol.png style=width:14px;height:14px> using 5","orientation_history":[0],"rt":984,"trial_type":"polygon-arrow-feedback","trial_index":0,"trial_index_global":40,"time_elapsed":262208,"internal_chunk_id":"0-0.10-0"},{"nsides":6,"question":"Is 4 a generator under <img src=./images/hexagon_symbol.png style=width:14px;height:14px>? <br /><br /> (Remember, a generator is an element which can make every other element.)","response_type":"multi","response_choices":["Yes","No"],"correct_response":"No","response":"No","explain":false,"explanation":"","explanation_history":[],"orientation_history":[[0]],"response_history":["No"],"rt":9561,"trial_type":"polygon-arrow-question","trial_index":0,"trial_index_global":41,"time_elapsed":271769,"internal_chunk_id":"0-0.10-0"},{"nsides":6,"feedback":"Correct! 4 is not a generator under <img src=./images/hexagon_symbol.png style=width:14px;height:14px>, because 4 = 4, 2 = 4 <img src=./images/hexagon_symbol.png style=width:14px;height:14px> 4, and 0 = 4 <img src=./images/hexagon_symbol.png style=width:14px;height:14px> 4 <img src=./images/hexagon_symbol.png style=width:14px;height:14px> 4, but there is no way to make 1, 3, or 5 using just 4.","orientation_history":[0],"rt":1008,"trial_type":"polygon-arrow-feedback","trial_index":0,"trial_index_global":42,"time_elapsed":272778,"internal_chunk_id":"0-0.10-0"},{"nsides":6,"question":"Is 0 a generator under <img src=./images/hexagon_symbol.png  style=width:14px;height:14px>? <br /><br /> (Remember, a generator is an element which can make every other element.)","response_type":"multi","response_choices":["Yes","No"],"correct_response":"No","response":"No","explain":false,"explanation":"","explanation_history":[],"orientation_history":[[0]],"response_history":["No"],"rt":3705,"trial_type":"polygon-arrow-question","trial_index":0,"trial_index_global":43,"time_elapsed":276483,"internal_chunk_id":"0-0.10-0"},{"nsides":6,"feedback":"Correct! 0 is not a generator under <img src=./images/hexagon_symbol.png style=width:14px;height:14px>, because 0 = 0, but there is no way to make 1, 2, 3, 4, or 5 using just 0.","orientation_history":[0],"rt":1084,"trial_type":"polygon-arrow-feedback","trial_index":0,"trial_index_global":44,"time_elapsed":277568,"internal_chunk_id":"0-0.10-0"},{"nsides":9,"instructions":"Now we are going to ask you some questions about a new operation, <img src=./images/nonagon_symbol.png style=w idth:14p x;height:14px>, on the numbers 0, 1, 2, 3, 4, 5, 6, 7, 8. It works exactly like <img src=./images/hexagon_symbol.png style=width:14px;height:14px>, except now you use the nonagon shown at the right. Equivalently, after adding the two numbers you subtract 9 if your result is 9 or greater.<br /><br />Do you see how the different ways of performing <img src=./images/nonagon_symbol.png style=width:14px;height:14px> give the same result, just like with <img src=./images/hexagon_symbol.png style=width:14px;height:14px>? By labeling the points of the nonagon with the numbers from 0 to 8, we ensure that when we combine two numbers under <img src=./images/nonagon_symbol.png style=width:14px;height:14px>, we only produce numbers between 0 and 8. When we use the arithmetic strategy, adding the second number to the first mimics counting around the nonagon, and subtracting 9 each time we get above 8 makes sure the results correspond to the numbers on the  points  of the nonagon.<br /><br />We'll give you one practice question with feedback to make sure you understand the new operation. After that, try to complete the remaining questions as accurately as possible.","orientation_history":[0],"rt":23735,"trial_type":"polygon-arrow-instructions","trial_index":0,"trial_index_global":45,"time_elapsed":301304,"internal_chunk_id":"0-0"},{"nsides":9,"question":"Practice: What is 5 <img src=./images/nonagon_symbol.png style=width:14px;height:14px> 5?","response_type":"free","response_choices":[],"correct_response":"1","response":"1","explain":false,"explanation":"","explanation_history":[],"orientation_history":[[0]],"response_history":["1"],"rt":6022,"trial_type":"polygon-arrow-question","trial_index":0,"trial_index_global":46,"time_elapsed":307327,"internal_chunk_id":"0-0.12-0"},{"nsides":9,"feedback":"Correct! 5 <img src=./images/nonagon_symbol.png style=width:14px;height:14px> 5 = 1 because 5 steps clockwise on the nonagon  from 5 b rings us to 1. Equivalently, 5 + 5 = 10 and 10 - 9 = 1.","orientation_history":[0],"rt":1014,"trial_type":"polygon-arrow-feedback","trial_index":0,"trial_index_global":47,"time_elapsed":308342,"internal_chunk_id":"0-0.12-0"},{"nsides":9,"question":"What is 3 <img src=./images/nonagon_symbol.png style=width:14px;height:14px> 3?","response_type":"free","response_choices":[],"correct_response":"6","response":"6","explain":false,"explanation":"","explanation_history":[],"orientation_history":[[0]],"response_history":["6"],"rt":2961,"trial_type":"polygon-arrow-question","trial_index":0,"trial_index_global":48,"time_elapsed":311304,"internal_chunk_id":"0-0.12-0"},{"nsides":9,"question":"What is 7 <img src=./images/nonagon_symbol.png style=width:14px;height:14px> 4?","response_type":"free","response_choices":[],"correct_response":"2","response":"2","explain":false,"explanation":"","explanation_history":[],"orientation_history":[[0]],"response_history":["2"],"rt":4694,"trial_type":"polygon-arrow-question","trial_index":0,"trial_index_global":49,"time_elapsed":315999,"internal_chunk_id":"0-0.12-0"},{"nsides":9,"question":"What is 1 <img src=./images/nonagon_symbol.png style=width:14px;height:14px> 8?","response_type":"free","response_choices":[],"correct_response":"0","response":"0","explain":false,"explanation":"","explanation_history":[],"orientation_history":[[0]],"response_history":["0"],"rt":2420,"trial_type":"polygon-arrow-question","trial_index":0,"trial_index_global":50,"time_elapsed":318420,"internal_chunk_id":"0-0.12-0"},{"nsides":9,"question":"What is 5 <img src=./images/nonagon_symbol.png style=width:14px;height:14px> 4?","response_type":"free","response_choices":[],"correct_response":"0","response":"0","explain":false,"explanation":"","explanation_history":[],"orientation_history":[[0]],"response_history":["0"],"rt":1922,"trial_type":"polygon-arrow-question","trial_index":0,"trial_index_global":51,"time_elapsed":320342,"internal_chunk_id":"0-0.12-0"},{"nsides":9,"question":"What is 6 <img src=./images/nonagon_symbol.png style=width:14px;height:14px> 6?","response_type":"free","response_choices":[],"correct_response":"3","response":"3","explain":false,"explanation":"","explanation_history":[],"orientation_history":[[0]],"response_history":["3"],"rt":2483,"trial_type":"polygon-arrow-question","trial_index":0,"trial_index_global":52,"time_elapsed":322826,"internal_chunk_id":"0-0.12-0"},{"nsides":9,"instructions":"On the following question, and several others later in the HIT, we will ask you to explain how you got your answer. On these questions, you will be given one box for your answer to the question, and a second for your explanation. Please explain your thought process in as much detail as possible (at least one sentence, and more if you can).","orientation_history":[0],"rt":7733,"trial_type":"polygon-arrow-instructions","trial_index":0,"trial_index_global":53,"time_elapsed":330560,"internal_chunk_id":"0-0.12-0"},{"nsides":9,"question":"What is 4 <img src=./images/nonagon_symbol.png style=width:14px;height:14px> 1? Please explain in words how you got your answer.","response_type":"free","response_choices":[],"correct_response":"5","response":"5","explain":true,"explanation":"I used the arithmetic method, adding 4 and 1 together, it was less than 9 so 5 is the answer. ","explanation_history":["I used the arithmetic method, 4_+","I used the arithmetic method, 4_","I used the arithmetic method, 4","I used the arithmetic method, adding 4 and 1 together, it was less than 9 ","I used the arithmetic method, adding 4 and 1 together, it was less than 9, so ","I used the arithmetic method, adding 4 and 1 together, it was less than 9, so","I used the arithmetic method, adding 4 and 1 together, it was less than 9, s","I used the arithmetic method, adding 4 and 1 together, it was less than 9, ","I used the arithmetic method, adding 4 and 1 together, it was less than  9,","I u sed the arithmetic method, adding 4 and 1 together, it was less than 9 so there was ","I used the arithmetic method, adding 4 and 1 together, it was less than 9 so there was","I used the arithmetic method, adding 4 and 1 together, it was less than 9 so there wa","I used the arithmetic method, adding 4 and 1 together, it was less than 9 so there w","I used the arithmetic method, adding 4 and 1 together, it was less than 9 ss","I used the arithmetic method, adding 4 and 1 together, it was less than 9 so 5 is the answer. "],"orientation_history":[[0]],"response_history":["5"],"rt":30260,"trial_type":"polygon-arrow-question","trial_index":0,"trial_index_global":54,"time_elapsed":360821,"internal_chunk_id":"0-0.12-0"},{"nsides":9,"question":"What is 8 <img src=./images/nonagon_symbol.png style=width:14px;height:14px> 4? Please explain in words how you got your answer.","response_type":"free","response_choices":[],"correct_response":"3","response":"3","explain":true,"explanation":"I used the arithmetic method, 8+4=12 which is over 9, so the answer is 12-9=3","explanation_history":["I used the arithmetic method, I","I used the arithmetic method, *","I used the arithmetic method, 8+3","I used the arithmetic method, 8+4=12 which iso","I used the arithmetic method, 8+4=12 which is over 9, so the ansdw","I used the arithmetic method, 8+4=12 which is over 9, so the ansd","I used the arithmetic method, 8+4=12 which is over 9, so the answer is 12-9=3"],"orientation_history":[[0]],"response_history":["3"],"rt":29142,"trial_type":"polygon-arrow-question","trial_index":0,"trial_index_global":55,"time_elapsed":389965,"internal_chunk_id":"0-0.12-0"},{"nsides":9,"question":"What is the identity under <img src=./images/nonagon_symbol.png style=width:14px;height:14px>? Please explain in words how you got your answer.","response_type":"free","response_choices":[],"correct_response":"0","response":"0","explain":true,"explanation":"The identity is the number wh ich can  be used with each number to get itself, that is only possible with 0","explanation_history":["The identity is the number which h","The identity is the number which each number can be mu","The identity is the number which each number can be m","The identity is the number which each number can be asside","The identity is the number which each number can be assid","The identity is the number which each number can be assi","The identity is the number which each number can be ass","The identity is the number which each number can be as","The identity is the number which each number can be a","The identity is the number which each number can be u","The identity is the number which can be used with each number to get ise","The identity is the number which can be used with each number to get is","The identity is the number which can be used with each number to get itself, that is only possible with 0"],"orientation_history":[[0]],"response_history":["0","0"],"rt":32649,"trial_type":"polygon -arrow-question","trial_index":0,"trial_index_global":56,"time_elapsed":422615,"internal_chunk_id":"0-0.12-0"},{"nsides":9,"question":"What is the inverse of 5 under <img src=./images/nonagon_symbol.png style=width:14px;height:14px>?","response_type":"free","response_choices":[],"correct_response":"4","response":"4","explain":false,"explanation":"","explanation_history":[],"orientation_history":[[0]],"response_history":["4"],"rt":7093,"trial_type":"polygon-arrow-question","trial_index":0,"trial_index_global":57,"time_elapsed":429709,"internal_chunk_id":"0-0.12-0"},{"nsides":9,"question":"What is the inverse of 2 under <img src=./images/nonagon_symbol.png style=width:14px;height:14px>?","response_type":"free","response_choices":[],"correct_response":"7","response":"7","explain":false,"explanation":"","explanation_history":[],"orientation_history":[[0]],"response_history":["7"],"rt":2086,"trial_type":"polygon-arrow-question","trial_index":0,"trial_index_global":58,"time_elapsed":431795,"internal_chunk_id":"0-0.12-0"},{"nsides":9,"question":"What is the inverse of 0 under <img src=./images/nonagon_symbol.png style=width:14px;height:14px>?","response_type":"free","response_choices":[],"correct_response":"0","response":"0","explain":false,"explanation":"","explanation_history":[],"orientation_history":[[0]],"response_history":["0"],"rt":1976,"trial_type":"polygon-arrow-question","trial_index":0,"trial_index_global":59,"time_elapsed":433771,"internal_chunk_id":"0-0.12-0"},{"nsides":9,"question":"What is the inverse of 3 under <img src=./images/nonagon_symbol.png style=width:14px;height:14px>? Please explain in words how you got your answer.","response_type":"free","response_choices":[],"correct_response":"6","response":"6","explain":true,"explanation":"I used the arithmetic method to get to 0, 6+3=9, and then 9-9=0","explanation_history":["I used the arithmetic method to get to the uinve","I used the arithmetic method to get t o the ui nv","I used the arithmetic method to get to the uin","I used the arithmetic method to get to the ui","I used the arithmetic method to get to the u","I used the arithmetic method to get to the ","I used the arithmetic method to get to the","I used the arithmetic method to get to th","I used the arithmetic method to get to t","I used the arithmetic method to get to 0, 6=","I used the arithmetic method to get to 0, 6-","I used the arithmetic method to get to 0, 6+_","I used the arithmetic method to get to 0, 6+3-","I used the arithmetic method to get to 0, 6+3=9, and then 0","I used the arithmetic method to get to 0, 6+3=9, and then 9-9=-","I used the arithmetic method to get to 0, 6+3=9, and then 9-9=0"],"orientation_history":[[0]],"response_history":["7","6"],"rt":28862,"trial_type":"polygon-arrow-question","trial_index":0,"trial_index_global":60,"time_elapsed":462634,"internal_chunk_id":"0-0.12-0"},{"nsides":9,"question":"Is 2 a generator under <img src=./images/nonagon_sy mbol.png  style=width:14px;height:14px>? Please explain in words how you got your answer.","response_type":"multi","response_choices":["Yes","No"],"correct_response":"Yes","response":"Yes","explain":true,"explanation":"It is possible to get every number with 2:2(9)0=2, 2(9)2=4, 2(9)2(9)2=6, 2(9)2(9)2(9)2=8 2(9)2(9)2(9)22(9)2=1, 2(9)2(9)2(9)2(9)2(9)2=3, 2(9)2(9)2(9)2(9)2(9)2(9)2=5, 2(9)2(9)2(9)2(9)2(9)2(9)2(9)2=7,2(9)2(9)2(9)2(9)2(9)2(9)2(9)2(9)2=0","explanation_history":["It is possible to get every number with 2:2(9)2=4, @","It is possible to get every number with 2:2(9)2=4, 2(9)2(9)2(9)","It is possible to get every number with 2:2(9)2=4, 2(9)2(9)2(9","It is possible to get every number with 2:2(9)2=4, 2(9)2(9)2(","It is possible to get every number with 2:2(9)2=4, 2(9)2(9)2=6 ","It is possible to get every number with 2:2(9)2=4, 2(9)2(9)2=6, 2(9)2(9)2(9)2(9)","It is possible to get every number with 2:2(9)2=4, 2(9)2(9)2=6, 2(9)2(9)2(9)2(9","It is possible to get every number  with 2: 2(9)2=4, 2(9)2(9)2=6, 2(9)2(9)2(9)2(","It is possible to get every number with 2:2(9)2=4, 2(9)2(9)2=6, 2(9)2(9)2(9)2=8 2(9)2(9)2(9)2(9)","It is possible to get every number with 2:2(9)2=4, 2(9)2(9)2=6, 2(9)2(9)2(9)2=8 2(9)2(9)2(9)2(9","It is possible to get every number with 2:2(9)2=4, 2(9)2(9)2=6, 2(9)2(9)2(9)2=8 2(9)2(9)2(9)2(","It is possible to get every number with 2:2(9)2=4, 2(9)2(9)2=6, 2(9)2(9)2(9)2=8 2(9)2(9)2(9)22(9)2(9)","It is possible to get every number with 2:2(9)2=4, 2(9)2(9)2=6, 2(9)2(9)2(9)2=8 2(9)2(9)2(9)22(9)2(9","It is possible to get every number with 2:2(9)2=4, 2(9)2(9)2=6, 2(9)2(9)2(9)2=8 2(9)2(9)2(9)22(9)2(","It is possible to get every number with 2:2(9)2=4, 2(9)2(9)2=6, 2(9)2(9)2(9)2=8 2(9)2(9)2(9)22(9)2=1, ","It is possible to get every number with 2:2(9)2=4, 2(9)2(9)2=6, 2(9)2(9)2(9)2=8 2(9)2(9)2(9)22(9)2=1, 2(9)2(9)2(9)2(9)2(9)2(9)","It is possible to get every number with 2:2(9)2=4, 2(9)2(9)2=6, 2(9)2(9)2(9)2=8 2(9)2(9)2(9)22(9)2=1, 2(9)2(9)2(9 )2(9)2(9 )2(9","It is possible to get every number with 2:2(9)2=4, 2(9)2(9)2=6, 2(9)2(9)2(9)2=8 2(9)2(9)2(9)22(9)2=1, 2(9)2(9)2(9)2(9)2(9)2(","It is possible to get every number with 2:2(9)2=4, 2(9)2(9)2=6, 2(9)2(9)2(9)2=8 2(9)2(9)2(9)22(9)2=1, 2(9)2(9)2(9)2(9)2(9)2=3","It is possible to get every number with 2:22(9)2=4, 2(9)2(9)2=6, 2(9)2(9)2(9)2=8 2(9)2(9)2(9)22(9)2=1, 2(9)2(9)2(9)2(9)2(9)2=3","It is possible to get every number with 2:2(2(9)2=4, 2(9)2(9)2=6, 2(9)2(9)2(9)2=8 2(9)2(9)2(9)22(9)2=1, 2(9)2(9)2(9)2(9)2(9)2=3","It is possible to get every number with 2:2(92(9)2=4, 2(9)2(9)2=6, 2(9)2(9)2(9)2=8 2(9)2(9)2(9)22(9)2=1, 2(9)2(9)2(9)2(9)2(9)2=3","It is possible to get every number with 2:2(9)2(9)2=4, 2(9)2(9)2=6, 2(9)2(9)2(9)2=8 2(9)2(9)2(9)22(9)2=1, 2(9)2(9)2(9)2(9)2(9)2=3","It is possible to get every number with 2:2(9)02(9)2=4, 2(9)2(9)2=6, 2(9)2(9)2(9)2=8 2(9)2(9)2(9)22(9)2=1, 2(9)2(9)2(9)2(9)2(9)2=3","It is possible to get every number with 2:2(9)0=2(9)2=4, 2(9)2(9)2=6, 2( 9)2(9)2( 9)2=8 2(9)2(9)2(9)22(9)2=1, 2(9)2(9)2(9)2(9)2(9)2=3","It is possible to get every number with 2:2(9)0=22(9)2=4, 2(9)2(9)2=6, 2(9)2(9)2(9)2=8 2(9)2(9)2(9)22(9)2=1, 2(9)2(9)2(9)2(9)2(9)2=3","It is possible to get every number with 2:2(9)0=2 2(9)2=4, 2(9)2(9)2=6, 2(9)2(9)2(9)2=8 2(9)2(9)2(9)22(9)2=1, 2(9)2(9)2(9)2(9)2(9)2=3","It is possible to get every number with 2:2(9)0=22(9)2=4, 2(9)2(9)2=6, 2(9)2(9)2(9)2=8 2(9)2(9)2(9)22(9)2=1, 2(9)2(9)2(9)2(9)2(9)2=3","It is possible to get every number with 2:2(9)0=2, 2(9)2=4, 2(9)2(9)2=6, 2(9)2(9)2(9)2=8 2(9)2(9)2(9)22(9)2=1, 2(9)2(9)2(9)2(9)2(9)2=3, 2(9)2(9)2(9)2(9)2(9)2=3","It is possible to get every number with 2:2(9)0=2, 2(9)2=4, 2(9)2(9)2=6, 2(9)2(9)2(9)2=8 2(9)2(9)2(9)22(9)2=1, 2(9)2(9)2(9)2(9)2(9)2=3, 2(9)2(9)2(9)2(9)2(9)2(9)2=3","It is possible to get every number with 2:2(9)0=2, 2(9)2=4, 2(9)2(9)2=6, 2(9)2(9)2(9)2=8 2(9)2(9)2(9)22(9)2=1, 2(9)2(9)2(9)2(9)2(9)2=3, 2(9)2(9)2(9)2(9)2(9)2(9)2=6","It is possible to get every number  with 2:2 (9)0=2, 2(9)2=4, 2(9)2(9)2=6, 2(9)2(9)2(9)2=8 2(9)2(9)2(9)22(9)2=1, 2(9)2(9)2(9)2(9)2(9)2=3, 2(9)2(9)2(9)2(9)2(9)2(9)2=5, 2(9)2(9)2(9)2(9)2(9)2(9)2=5","It is possible to get every number with 2:2(9)0=2, 2(9)2=4, 2(9)2(9)2=6, 2(9)2(9)2(9)2=8 2(9)2(9)2(9)22(9)2=1, 2(9)2(9)2(9)2(9)2(9)2=3, 2(9)2(9)2(9)2(9)2(9)2(9)2=5, 2(9)2(9)2(9)2(9)2(9)2(9)2=7","It is possible to get every number with 2:2(9)0=2, 2(9)2=4, 2(9)2(9)2=6, 2(9)2(9)2(9)2=8 2(9)2(9)2(9)22(9)2=1, 2(9)2(9)2(9)2(9)2(9)2=3, 2(9)2(9)2(9)2(9)2(9)2(9)2=5, 2(9)2(9)2(9)2(9)2(9)2(9)2(9)2=7,2(9)2(9)2(9)2(9)2(9)2(9)2(9)2=7","It is possible to get every number with 2:2(9)0=2, 2(9)2=4, 2(9)2(9)2=6, 2(9)2(9)2(9)2=8 2(9)2(9)2(9)22(9)2=1, 2(9)2(9)2(9)2(9)2(9)2=3, 2(9)2(9)2(9)2(9)2(9)2(9)2=5, 2(9)2(9)2(9)2(9)2(9)2(9)2(9)2=7,2(9)2(9)2(9)2(9)2(9)2(9)2(9)2(9)2=7","It is possible to get every number with 2:2(9)0=2, 2(9)2=4, 2(9)2(9)2=6, 2(9)2(9)2(9)2=8 2(9)2(9)2(9)22(9)2=1, 2(9)2(9)2(9)2(9)2(9)2=3, 2(9)2(9)2(9)2(9)2(9)2(9)2=5, 2(9)2(9)2(9 )2(9)2(9 )2(9)2(9)2=7,2(9)2(9)2(9)2(9)2(9)2(9)2(9)2(9)2=0"],"orientation_history":[[0]],"response_history":["Yes"],"rt":165567,"trial_type":"polygon-arrow-question","trial_index":0,"trial_index_global":61,"time_elapsed":628202,"internal_chunk_id":"0-0.12-0"},{"nsides":9,"question":"Is 3 a generator under <img src=./images/nonagon_symbol.png style=width:14px;height:14px>? Please explain in words how you got your answer.","response_type":"multi","response_choices":["Yes","No"],"correct_response":"No","response":"No","explain":true,"explanation":"no, it is only possible to get 3, 6 and 0 with using only 3","explanation_history":["no, it is only pis","no, it is only pi","no, it is only possible to get 3, 6 and 0 with using only 3"],"orientation_history":[[0]],"response_history":["No"],"rt":27677,"trial_type":"polygon-arrow-question","trial_index":0,"trial_index_global":62,"time_elapsed":655880,"internal_chunk_id":"0-0.12-0"},{"nsides":9,"question":"Is 5 a generator under <img src =./ima ges/nonagon_symbol.png style=width:14px;height:14px>? Please explain in words how you got your answer.","response_type":"multi","response_choices":["Yes","No"],"correct_response":"Yes","response":"Yes","explain":true,"explanation":"it is possible by using only 5 to get every number in the equation. ","explanation_history":["it is possible by using only 5 to get every number in the indentiy","it is possible by using only 5 to get every number in the in","it is possible by using only 5 to get every number in the i","it is possible by using only 5 to get every number in the equation. "],"orientation_history":[[0]],"response_history":["Yes"],"rt":40918,"trial_type":"polygon-arrow-question","trial_index":0,"trial_index_global":63,"time_elapsed":696799,"internal_chunk_id":"0-0.12-0"},{"nsides":9,"question":"Is 6 a generator under <img src=./images/nonagon_symbol.png style=width:14px;height:14px>? Please explain in words how you got your answer.","response_type":"mult i","response_choices":["Yes","No"],"correct_response":"No","response":"No","explain":true,"explanation":"it is only possible to get 6,3, and 0 with using only 6. ","explanation_history":["it is only pso","it is only ps","it is only possible to get 6,3,0","it is only possible to get 6,3, and 0 with using only 6. "],"orientation_history":[[0]],"response_history":["No"],"rt":32071,"trial_type":"polygon-arrow-question","trial_index":0,"trial_index_global":64,"time_elapsed":728871,"internal_chunk_id":"0-0.12-0"},{"nsides":"n","instructions":"Now we'd like to ask you some questions about <img src=./images/ngon_symbol.png style=width:14px;height:14px>, where n could be any postive counting number. For example, n could be 3, and the polygon a triangle, or n could be any other counting number you can think of, in which case the corresponding polygon would have n sides. Just as before, you can use either the polygon or arithmetic methods. If you need to write the operation, you can us e (n), and your answers can include n to stand in for the arbitrary value if necessary. (You can use the polygon at the right to think, but it doesn't necessarily correspond to the real polygon, which is why we've left most of it dashed.)","orientation_history":[0],"rt":30511,"trial_type":"polygon-arrow-instructions","trial_index":0,"trial_index_global":65,"time_elapsed":759385,"internal_chunk_id":"0-0"},{"nsides":"n","question":"What is the formula for the inverse of 1 under <img src=./images/ngon_symbol.png style=width:14px;height:14px>?","response_type":"free","response_choices":[],"correct_response":"n-1","response":"1N(n-1)","explain":false,"explanation":"","explanation_history":[],"orientation_history":[[0]],"response_history":["1(N)","1(N","1(","1B","1N(n=","1N(n-1_","1N(n-1)"],"rt":49438,"trial_type":"polygon-arrow-question","trial_index":0,"trial_index_global":66,"time_elapsed":808823,"internal_chunk_id":"0-0.14-0"},{"nsides":"n","question":"What is the formula  for the  inverse of an element x under <img src=./images/ngon_symbol.png style=width:14px;height:14px>? Please explain in words how you got your answer.","response_type":"free","response_choices":[],"correct_response":"n-x","response":"XN(n-x)","explain":true,"explanation":"The inverse of N would be whatever was needed to get back around to 0 from the given point, for example, if n was 5, and x was 2, then it would be 2(5)(5-2)\nwhich would be 2(n)3","explanation_history":["The inverse of N would be whatever was needed to get back around to - f","The inverse of N would be whatever was needed to get back around to - ","The inverse of N would be whatever was needed to get back around to -","The inverse of N would be whatever was needed to get back around to 0 from the given point, for example, if n was 6","The inverse of N would be whatever was needed to get back around to 0 from the given point, for example, if n was 5, then ","The inverse of N would be whatever was needed to  get back  around to 0 from the given point, for example, if n was 5, then","The inverse of N would be whatever was needed to get back around to 0 from the given point, for example, if n was 5, the","The inverse of N would be whatever was needed to get back around to 0 from the given point, for example, if n was 5, th","The inverse of N would be whatever was needed to get back around to 0 from the given point, for example, if n was 5, t","The inverse of N would be whatever was needed to get back around to 0 from the given point, for example, if n was 5, and x was 2, then it would be %","The inverse of N would be whatever was needed to get back around to 0 from the given point, for example, if n was 5, and x was 2, then it would be 2(N","The inverse of N would be whatever was needed to get back around to 0 from the given point, for example, if n was 5, and x was 2, then it would be 2(5)3","The inverse of N would be whatever was needed to get back around to 0 from the given point, for e xample,  if n was 5, and x was 2, then it would be 2(5)(5-2)\nwhich would be 2(n)3"],"orientation_history":[[0]],"response_history":["X(n) ","X(n)(","X(n)","X(n","X(","XN(b-","XN(b","XN(n-x)"],"rt":113656,"trial_type":"polygon-arrow-question","trial_index":0,"trial_index_global":67,"time_elapsed":922480,"internal_chunk_id":"0-0.14-0"},{"nsides":"n","question":"Is there a pattern to which elements are generators? How can you know if an element x is a generator under <img src=./images/ngon_symbol.png style=width:14px;height:14px> without seeing whether it can make all the elements?.","response_type":"free","response_choices":[],"correct_response":"","response":"If X is a factor of n, then it will not be able to be a generator, example if n was 6, then 2 or 3 could not be generators as they are factors of n. ","explain":false,"explanation":"","explanation_history":[],"orientation_history":[[0]],"response_history":["typically if X is a factor of N ","If x","If X is a factor of n,  then it  will not be able to be a generator, example if n was 6, then 2 or 3 could not be generators ar","If X is a factor of n, then it will not be able to be a generator, example if n was 6, then 2 or 3 could not be generators as they are factors of n. "],"rt":41097,"trial_type":"polygon-arrow-question","trial_index":0,"trial_index_global":68,"time_elapsed":963578,"internal_chunk_id":"0-0.14-0"},{"nsides":"n","question":"True or false: If x is an odd number, it must be a generator under <img src=./images/ngon_symbol.png style=width:14px;height:14px>.","response_type":"multi","response_choices":["True","False"],"correct_response":"False","response":"False","explain":false,"explanation":"","explanation_history":[],"orientation_history":[[0]],"response_history":["False"],"rt":7311,"trial_type":"polygon-arrow-question","trial_index":0,"trial_index_global":69,"time_elapsed":970890,"internal_chunk_id":"0-0.14-0"},{"nsides":"n","question":"True or false: If x is an even number, i t must n ot be a generator under <img src=./images/ngon_symbol.png style=width:14px;height:14px>.","response_type":"multi","response_choices":["True","False"],"correct_response":"False","response":"False","explain":false,"explanation":"","explanation_history":[],"orientation_history":[[0]],"response_history":["False"],"rt":3891,"trial_type":"polygon-arrow-question","trial_index":0,"trial_index_global":70,"time_elapsed":974781,"internal_chunk_id":"0-0.14-0"},{"nsides":"n","question":"True or false: If x is not a generator under <img src=./images/ngon_symbol.png style=width:14px;height:14px>, x must be a divisor of n, that is, x must divide n evenly, with no remainder.","response_type":"multi","response_choices":["True","False"],"correct_response":"False","response":"True","explain":false,"explanation":"","explanation_history":[],"orientation_history":[[0]],"response_history":["True"],"rt":9209,"trial_type":"polygon-arrow-question","trial_index":0,"trial_index_global":71,"time_elapsed":983992,"internal_chunk_id":"0-0.14-0"},{"nsides":"n","question":"True or false: If x is not a generator under <img src=./images/ngon_symbol.png style=width:14px;height:14px>, x must be a multiple of a divisor of n. Please explain in words how you got your answer.","response_type":"multi","response_choices":["True","False"],"correct_response":"True","response":"True","explain":true,"explanation":"If x is a factor of N, then it will not be able to generate every number, for example if n is 6, then 2 or 3 would not be able to factor every number, 2 could only factor, 2,4,0 and 3 could only factor 3, and 0. ","explanation_history":["If x is a factor of N, then it will nto be a","If x is a factor of N, then it will not be able to generate every number, for example if n is 6, then 2 or 3 would not be able to factor every number, 2 could only cf","If x is a factor of N, then it will not be able to generate every number, for example if n is 6, then 2 or 3 would not  be able  to factor every number, 2 could only c","If x is a factor of N, then it will not be able to generate every number, for example if n is 6, then 2 or 3 would not be able to factor every number, 2 could only factor, 2,4,0 and 3 could only factor, ","If x is a factor of N, then it will not be able to generate every number, for example if n is 6, then 2 or 3 would not be able to factor every number, 2 could only factor, 2,4,0 and 3 could only factor,","If x is a factor of N, then it will not be able to generate every number, for example if n is 6, then 2 or 3 would not be able to factor every number, 2 could only factor, 2,4,0 and 3 could only factor 3 ","If x is a factor of N, then it will not be able to generate every number, for example if n is 6, then 2 or 3 would not be able to factor every number, 2 could only factor, 2,4,0 and 3 could only factor 3, and 0. "],"orientation_history":[[0]],"response_history":["True"],"rt":43754,"trial_type":"polygon-arrow-question","trial_index":0,"trial_index_global":72,"time_elapsed":1027747,"internal_chunk_id":"0-0.14-0"},{"nsides":"n","question":"If an element x is a generator under <img src=./images/ngon_symbol.png style=width:14px;height:14px>, is its inverse a generator under <img src=./images/ngon_symbol.png style=width:14px;height:14px> always, sometimes, or never?","response_type":"multi","response_choices":["Always","Sometimes","Never"],"correct_response":"Always","response":"Always","explain":false,"explanation":"","explanation_history":[],"orientation_history":[[0]],"response_history":["Always"],"rt":13031,"trial_type":"polygon-arrow-question","trial_index":0,"trial_index_global":73,"time_elapsed":1040779,"internal_chunk_id":"0-0.14-0"},{"nsides":"n","question":"if an element x is a generator under <img src=./images/ngon_symbol.png style=width:14px;height:14px>, is x <img src=./images/ngon_symbol.png style=width:14px;height:14px> x a generator under <img src=./images/ngon_s ymbol.pn g style=width:14px;height:14px> always, sometimes, or never? Please explain in words how you got your answer.","response_type":"multi","response_choices":["Always","Sometimes","Never"],"correct_response":"Sometimes","response":"Never","explain":true,"explanation":"if x is a generator then it is not factorable into n, if x is not factor-able then the inverse also would not be, otherwise it would be a factor-able ","explanation_history":["if the ","if the","if th","if t","if x is a generator then it is not facot","if x is a generator then it is not faco","if x is a generator then it is not factorable into t","if x is a generator then it is not factorable into n, if i","if x is a generator then it is not factorable into n, if x is not factorable then the gen","if x is a generator then it is not factorable into n, if x is not factorable then the ge","if x is a generator then it is not factorable into n, if x is not factorable then the g","if x is a generator then it is not  factora ble into n, if x is not factorable then the inverse w","if x is a generator then it is not factorable into n, if x is not factorable then the inverse also would not be, otherwise it would be a g","if x is a generator then it is not factorable into n, if x is not factorable then the inverse also would not be, otherwise it would be a factor. unless ","if x is a generator then it is not factorable into n, if x is not factorable then the inverse also would n","if the ","if x is a generator then it is not factorable into n, if x is not factorable then the inverse also would not be, otherwise it would be a factorable ","if x is a generator then it is not factorable into n, if x is not factor-able then the inverse also would not be, otherwise it would be a factor-able "],"orientation_history":[[0]],"response_history":["Always","Sometimes","Never"],"rt":58283,"trial_type":"polygon-arrow-question","trial_index":0,"trial_index_global":74,"time_elapsed":1099064,"internal_chunk_id":"0-0 .14-0"},{"nsides":"n","question":"If an element x is not a generator under <img src=./images/ngon_symbol.png style=width:14px;height:14px>, is x <img src=./images/ngon_symbol.png style=width:14px;height:14px> x a generator under <img src=./images/ngon_symbol.png style=width:14px;height:14px> always, sometimes, or never?","response_type":"multi","response_choices":["Always","Sometimes","Never"],"correct_response":"Never","response":"Never","explain":false,"explanation":"","explanation_history":[],"orientation_history":[[0]],"response_history":["Never"],"rt":23027,"trial_type":"polygon-arrow-question","trial_index":0,"trial_index_global":75,"time_elapsed":1122092,"internal_chunk_id":"0-0.14-0"},{"instructions":"Now we'd like you to do a few of the questions and tell us how much you're using the arithmetic and polygon methods to solve them. We'll give you a demonstration of the response screen first.<br /><br />Press continue when you're ready to begin.","rt":1843,"trial_type":"instructions","trial_index":0,"trial_index_global":76,"time_elapsed":1123936,"internal_chunk_id":"0-0.15-0"},{"nsides":9,"added_prompt":"<i>This is a demo response screen. You can respond independently to both questions, so it's okay to say you used both methods.</i><br /><br />","polygon_response":"0","modular_response":"4","rt":7946,"trial_type":"polygon-arrow-which-representation","trial_index":0,"trial_index_global":77,"time_elapsed":1131883,"internal_chunk_id":"0-0.15-0"},{"question":"<i>This is a demo response screen.</i><br /><br />Please describe in as much detail as possible how you used the arithmetic method, polygon method, or both for the problem.","response_type":"free","response_choices":[],"correct_response":"","response":"I always used the arithmetic method, as I found it to be the easiest. ","explain":false,"explanation":"","explanation_history":[],"response_history":["I als","I always used the arithmetic method, as I found it to be the eases","I al ways use d the arithmetic method, as I found it to be the ease","I always used the arithmetic method, as I found it to be the easiest. "],"rt":16479,"trial_type":"question","trial_index":0,"trial_index_global":78,"time_elapsed":1148363,"internal_chunk_id":"0-0.15-0"},{"instructions":"Great! Now we have a few questions for you to do (some of which you may have seen earlier), and after each question you will tell us how much you used the polygon and arithmetic methods.<br /><br />Press continue when you're ready to begin.","rt":2349,"trial_type":"instructions","trial_index":0,"trial_index_global":79,"time_elapsed":1150714,"internal_chunk_id":"0-0.15-0"},{"nsides":9,"question":"Please answer the following question:<br /><br />What is the inverse of 4 under <img src=./images/nonagon_symbol.png style=width:14px;height:14px>?","response_type":"free","response_choices":[],"correct_response":"5","response":"5","explain":false,"explanation":"","explanation_history":[],"orientation_history":[[0]],"response_history":["5"],"rt":4514,"trial_type":"polygon-arrow-question","trial_index":0,"trial_index_global":80,"time_elapsed":1155229,"internal_chunk_id":"0-0.15-0"},{"nsides":9,"question":"Please answer the following question:<br /><br />What is the inverse of 4 under <img src=./images/nonagon_symbol.png style=width:14px;height:14px>?","added_prompt":"","polygon_response":"0","modular_response":"4","rt":4428,"trial_type":"polygon-arrow-which-representation","trial_index":0,"trial_index_global":81,"time_elapsed":1159658,"internal_chunk_id":"0-0.15-0"},{"question":"Please describe in as much detail as possible how you used the arithmetic method, polygon method, or both for the problem.","response_type":"free","response_choices":[],"correct_response":"","response":"the inverse of 4(9) is 4+5=9 the arithmetic method is very easy to use. ","explain":false,"explanation":"","explanation_history":[],"response_history":["the invers of","the invers o","the invers ","the  inverse  of 4(9) is 4+5=9 s","the inverse of 4(9) is 4+5=9 the arti","the inverse of 4(9) is 4+5=9 the art","the inverse of 4(9) is 4+5=9 the arithemetic ","the inverse of 4(9) is 4+5=9 the arithemetic","the inverse of 4(9) is 4+5=9 the arithemeti","the inverse of 4(9) is 4+5=9 the arithemet","the inverse of 4(9) is 4+5=9 the aritheme","the inverse of 4(9) is 4+5=9 the arithem","the inverse of 4(9) is 4+5=9 the arithe","the inverse of 4(9) is 4+5=9 the arithmetic method is very ea","the inverse of 4(9) is 4+5=9 the arithmetic method is very e","the inverse of 4(9) is 4+5=9 the arithmetic method is very easy to use. "],"rt":28833,"trial_type":"question","trial_index":0,"trial_index_global":82,"time_elapsed":1188492,"internal_chunk_id":"0-0.15-0"},{"nsides":9,"question":"Please answer the following question:<br /><br />What is the inverse of 0 under <img src=./images/nonagon_symbol.png style=width:14px;height:14px>?","response_type":"free","response_choices":[],"correct_response":"0","response":"0","explain":false,"explanation":"","explanation_history":[],"orientation_history":[[0]],"response_history":["0"],"rt":4609,"trial_type":"polygon-arrow-question","trial_index":0,"trial_index_global":83,"time_elapsed":1193102,"internal_chunk_id":"0-0.15-0"},{"nsides":9,"question":"Please answer the following question:<br /><br />What is the inverse of 0 under <img src=./images/nonagon_symbol.png style=width:14px;height:14px>?","added_prompt":"","polygon_response":"0","modular_response":"4","rt":5086,"trial_type":"polygon-arrow-which-representation","trial_index":0,"trial_index_global":84,"time_elapsed":1198188,"internal_chunk_id":"0-0.15-0"},{"question":"Please describe in as much detail as possible how you used the arithmetic method, polygon method, or both for the problem.","response_type":"free","response_choices":[],"correct_response":"","response":"the inverse of 0 is always 0, because nothing is needed to be done to 0 to get to 0. ","explain":false,"explanation":"","explanation_history":[],"response_history":["the inverse of 0 is always 0, because nothing is needed to be done to 0 to get to 0. "],"rt":24575,"trial_type":"question","trial_index":0,"trial_index_global":85,"time_elapsed":1222765,"internal_chunk_id":"0-0.15-0"},{"nsides":9,"question":"Please answer the following question:<br /><br />Is 4 a generator under <img src=./images/nonagon_symbol.png style=width:14px;height:14px>?","response_type":"Multi","response_choices":["Yes","No"],"correct_response":"Yes","response":"Yes","explain":false,"explanation":"","explanation_history":[],"orientation_history":[[0],[2.8049178342030663,2.796037073008081,2.796037073008081,2.796037073008081,2.796037073008081,2.796037073008081,2.796037073008081,2.796037073008081,2.796037073008081,2.796037073008081,2.792526803190927],[2.8387077852148215,2.8387077852148215,2.8387077852148215,2.8387077852148215,2.8387077852148215,2.8387077852148215,2.8387077852148215,2.8387077852148215,2.8387077852148215,2.8387077852148215,2.8387077852148215,2.896613990462929,2.94620109907322,2.976443976175166,2.998252598544191,3.0185066938947873,3.0593046638151113,3.1003788909314727,3.141592653589793,3.223044697895664,3.323241483589805,3.410433135268772,3.4479598062058403,3.4572083156285593,3.4572083156285593,3.4572083156285593,3.4572083156285593,3.4846165940104967,3.4936369679052106,3.4936369679052106,3.4936369679052106,3.4936369679052106,3.4936369679052106,3.4936369679052106,3.4936369679052106,3.4936369679052106,3.4936369679052106,3.4936369679052106,3.4936369679052106,3.4936369679052106,3.4936369679052106,3.4936369679052106,3.4936369679052106,3.4936369679052106,3.5666328464624484,3.6477677972103835,3.7850937623830774,3.938895016545551,4.042496485017745,4.080845448133509,4.080845448133509,4.080845448133509,4.080845448133509,4.093015918366777,4.099181631510181,4.111675197073696,4.124386376837123,4.137316690652299,4.1504674181278745,4.1504674181278745,4.1504674181278745,4.1504674181278745,4.1504674181278745,4.1504674181278745,4.1504674181278745,4.1504674181278745,4.1504674181278745,4.157125766092472,4.181467159243387,4.216837306898862,4.259610508561154,4.311854464998904,4.350659738864758,4.374510792144411,4.398768328167991,4.431711204578502,4.473779657876489,4.5341215220854565,4.595802974923374,4.632204133083373,4.641710446334084,4.65052113452031,4.659341450623218,4.659341450623218,4.659341450623218,4.659341450623218,4.659341450623218,4.659341450623218,4.659341450623218,4.659341450623218,4.659341450623218,4.659341450623218,4.659341450623218,4.659341450623218,4.69469171312692,4.810289288123151,4.923482313607436,5.02338726099023,5.10971334355726,5.176036589385496,5.231535094631212,5.3066026841851235,5.354447088736536,5.382719807869745,5.377596313149323,5.370516705600601,5.370516705600601,5.370516705600601,5.370516705600601,5.370516705600601,5.370516705600601,5.370516705600601,5.370516705600601,5.370516705600601,5.370516705600601,5.370516705600601,5.370516705600601,5.370516705600601,5.370516705600601,5.370516705600601,5.370516705600601,5.370516705600601,5.370516705600601,5.370516705600601,5.370516705600601,5.370516705600601,5.370516705600601,5.370516705600601,5.370516705600601,5.370516705600601,5.370516705600601,5.370516705600601,5.370516705600601,5.370516705600601,5.393405990831807,5.440158716304664,5.546767544705865,5.611719462416437,5.6853016023039515,5.793227980925858,5.906857178733262,6.0162723195921854,6.118036629764959,6.156993767406561,6.166076562612722,6.166923661097099,6.167758646812661,6.167758646812661,6.167758646812661,6.167758646812661,6.160614432060073,6.160614432060073,6.160614432060073,6.160614432060073,6.160614432060073,6.160614432060073,6.160614432060073,6.160614432060073,6.160614432060073,6.181349028025568,6.260966741852867,0.05258306161094173,0.12246105741734126,0.2319682448556477,0.37910385348780795,0.5280744484263595,0.6448672281620083,0.6810170104471179,0.6810170104471179,0.6810170104471179,0.6810170104471179,0.6852558017991333,0.6895390162874351,0.6938671962776498,0.6938671962776498,0.6938671962776498,0.6938671962776498,0.6810170104471179,0.6810170104471179,0.6810170104471179,0.6810170104471179,0.6810170104471179,0.6810170104471179,0.6810170104471179,0.6810170104471179,0.6810170104471179,0.6810170104471179,0.6810170104471179,0.6810170104471179,0.6810170104471179,0.6810170104471179,0.7248661436153411,0.8073726476941108,0.8921338360465839,1.0054598660310134,1.115882120202517,1.2132304752184657,1.2793395323170293,1.3101939350475555,1.3101939350475555,1.3101939350475555,1.3101939350475555,1.3045442776439713,1.2939981681629065,1.2939981681629065,1.2939981681629065,1.2939981681629065,1.2939981681629065,1.2939981681629065,1.2939981681629065,1.2939981681629065,1.2939981681629065,1.2939981681629065,1.2939981681629065,1.2939981681629065,1.2939981681629065,1.2939981681629065,1.3045442776439713,1.4688779593140227,1.6162196062164735,1.7659547539115668,1.97568811307998,2.100385925576973,2.1645459935056675,2.2040937080942267,2.2264919530364327,2.2264919530364327,2.2264919530364327,2.2264919530364327,2.2264919530364327,2.2264919530364327,2.2264919530364327,2.2264919530364327,2.2264919530364327,2.2264919530364327,2.2390857456254807,2.2390857456254807,2.2390857456254807,2.2390857456254807,2.2390857456254807,2.2390857456254807,2.2390857456254807,2.2390857456254807,2.2390857456254807,2.2390857456254807,2.2390857456254807,2.2390857456254807,2.2390857456254807,2.2390857456254807,2.2390857456254807,2.2390857456254807,2.278338000649376,2.341909747604948,2.44293282886833,2.53669025065438,2.609868586330988,2.668895517875204,2.722360259835898,2.779365775883022,2.819842099193151,2.851081932623419,2.8605719128652165,2.8605719128652165,2.8605719128652165,2.8605719128652165,2.8605719128652165,2.8605719128652165,2.8605719128652165,2.8605719128652165,2.8605719128652165,2.8605719128652165,2.8605719128652165,2.8605719128652165,2.8605719128652165,2.8605719128652165,2.8822609091891085,2.9634997153585956,3.061762667877556,3.1712868931967026,3.297187481566823,3.3979603459075927,3.4604277643516603,3.5087664874080122,3.528776727771116,3.5405533113228174,3.5524438448915783,3.5524438448915783,3.5524438448915783,3.5524438448915783,3.5524438448915783,3.5524438448915783,3.5524438448915783,3.54884850166464,3.54884850166464,3.54884850166464,3.54884850166464,3.54884850166464,3.54884850166464,3.54884850166464,3.54884850166464,3.54884850166464,3.557084749530684,3.634277741763244,3.771122615588919,3.8673601038560723,3.973831529903211,4.051345811534003,4.068887871591405,4.077836178608181,4.0869039401454605,4.0869039401454605,4.0869039401454605,4.0869039401454605,4.0869039401454605,4.0869039401454605,4.0869039401454605,4.0869039401454605,4.0869039401454605,4.0869039401454605,4.0869039401454605,4.0869039401454605,4.0869039401454605,4.0869039401454605,4.0869039401454605,4.124386376837123,4.163839577934162,4.2487413713838835,4.386419041745044,4.55868145132621,4.740550547372582,4.879820758855212,4.957367643511554,5.00893478945439,5.058927844818632,5.083280269197352,5.112170078627486,5.124060323816584,5.124060323816584,5.124060323816584,5.124060323816584,5.124060323816584,5.124060323816584,5.124060323816584,5.124060323816584,5.124060323816584,5.124060323816584,5.124060323816584,5.124060323816584,5.124060323816584,5.124060323816584,5.124060323816584,5.124060323816584,5.124060323816584,5.124060323816584,5.124060323816584,5.124060323816584,5.124060323816584,5.124060323816584,5.124060323816584,5.124060323816584,5.135828386544409,5.2395349239710995,5.345814863353834,5.4452040821711964,5.489383980234491,5.514452267496079,5.531108139660385,5.531108139660385,5.531108139660385,5.531108139660385,5.531108139660385,5.531108139660385,5.531108139660385,5.531108139660385,5.531108139660385,5.531108139660385,5.531108139660385,5.531108139660385,5.531108139660385,5.531108139660385,5.531108139660385,5.531108139660385,5.602664082512372,5.79485135612318,6.034697886522183,6.2397344117880555,0.10915346290887773,0.1178721031972163,0.11487660541689904,0.11202896242598781,0.11065722117389565,0.11990398536502389,0.11990398536502389,0.11848995915813765,0.11848995915813765,0.11848995915813765,0.11848995915813765,0.11848995915813765,0.11848995915813765,0.11848995915813765,0.11848995915813765,0.13021144296439635,0.231090667195897,0.4006243868693222,0.4960436783661779,0.535273748090159,0.5471534052187033,0.5747758616989801,0.6084601072397451,0.6733692009714604,0.6947382761967031,0.7012599228662773,0.7012599228662773,0.7012599228662773,0.7012599228662773,0.7012599228662773,0.7012599228662773,0.7012599228662773,0.7012599228662773,0.7012599228662773,0.7012599228662773,0.7012599228662773,0.7012599228662773,0.7012599228662773,0.7012599228662773,0.7012599228662773,0.7252299122424385,0.8771642448372546,1.0230563130789943,1.1626472230398073,1.3024301158889897,1.4005844015094222,1.4651307446950408,1.502719868536897,1.5178156508907934,1.5178156508907934,1.5178156508907934,1.5102643070127895,1.4801364395941514,1.4794482084571159,1.4794482084571159,1.4794482084571159,1.4794482084571159,1.4794482084571159,1.4794482084571159,1.4794482084571159,1.4794482084571159,1.4794482084571159,1.4794482084571159,1.4794482084571159,1.4794482084571159,1.4794482084571159,1.5098033713459633,1.5323537367737086,1.5707963267948966,1.6015558528653657,1.6628431756583033,1.7459073147174942,1.8214140278939097,1.9100889412489412,1.9799524795549714,2.020056439406777,2.0556421734017793,2.087026997406644,2.1178735183105237,2.124477649001894,2.124477649001894,2.124477649001894,2.124477649001894,2.124477649001894,2.124477649001894,2.124477649001894,2.124477649001894,2.124477649001894,2.124477649001894,2.124477649001894,2.124477649001894,2.158798930342464,2.201875714266226,2.2406888221618413,2.279422598922567,2.3228734943140976,2.396173177315635,2.49644409982895,2.604006006931047,2.681621498613097,2.7069224384405484,2.7103078421738322,2.7103078421738322,2.7103078421738322,2.7103078421738322,2.7103078421738322,2.7103078421738322,2.7103078421738322,2.7103078421738322,2.7103078421738322,2.7103078421738322,2.7103078421738322,2.7103078421738322,2.7103078421738322,2.7103078421738322,2.7103078421738322,2.7103078421738322,2.7103078421738322,2.7103078421738322,2.796347728481157,2.942510754697608,3.1591347136471954,3.4338611362010916,3.706586765856267,3.9572845769060168,4.03414848989266,4.064577553457591,4.067814910629762,4.067814910629762,4.067814910629762,4.067814910629762,4.067814910629762,4.067814910629762,4.067814910629762,4.067814910629762,4.067814910629762,4.067814910629762,4.067814910629762,4.067814910629762,4.067814910629762,4.067814910629762,4.067814910629762,4.067814910629762,4.067814910629762,4.067814910629762,4.067814910629762,4.067814910629762,4.067814910629762,4.067814910629762,4.067814910629762,4.067814910629762,4.067814910629762,4.067814910629762,4.067814910629762,4.067814910629762,4.067814910629762,4.067814910629762,4.067814910629762,4.067814910629762,4.067814910629762,4.067814910629762,4.067814910629762,4.067814910629762,4.067814910629762,4.067814910629762,4.067814910629762,4.067814910629762,4.067814910629762,4.067814910629762,4.067814910629762,4.067814910629762,4.067814910629762,4.067814910629762,4.067814910629762,4.067814910629762,4.067814910629762,4.067814910629762,4.067814910629762,4.067814910629762,4.067814910629762,4.067814910629762,4.067814910629762,4.067814910629762,4.067814910629762,4.067814910629762,4.067814910629762,4.067814910629762,4.067814910629762,4.067814910629762,4.067814910629762,4.067814910629762,4.067814910629762,4.067814910629762,4.067814910629762,4.067814910629762,4.067814910629762,4.067814910629762,4.067814910629762,4.067814910629762,4.067814910629762,4.067814910629762,4.067814910629762,4.067814910629762,4.067814910629762,4.067814910629762,4.067814910629762,4.067814910629762,4.067814910629762,4.067814910629762,4.067814910629762,4.067814910629762,4.067814910629762,4.067814910629762,4.067814910629762,4.067814910629762,4.067814910629762,4.067814910629762,4.067814910629762,4.067814910629762,4.067814910629762,4.067814910629762,4.067814910629762,4.067814910629762,4.067814910629762,4.067814910629762,4.067814910629762,4.067814910629762,4.067814910629762,4.067814910629762,4.067814910629762,4.067814910629762,4.067814910629762,4.067814910629762,4.067814910629762,4.067814910629762,4.067814910629762,4.067814910629762,4.067814910629762,4.067814910629762,4.067814910629762,4.067814910629762,4.067814910629762,4.067814910629762,4.067814910629762,4.067814910629762,4.067814910629762,4.067814910629762,4.067814910629762,4.067814910629762,4.067814910629762,4.067814910629762,4.067814910629762,4.067814910629762,4.067814910629762,4.067814910629762,4.067814910629762,4.067814910629762,4.067814910629762,4.067814910629762,4.067814910629762,4.067814910629762,4.067814910629762,4.067814910629762,4.067814910629762,4.067814910629762,4.067814910629762,4.067814910629762,4.067814910629762,4.067814910629762,4.067814910629762,4.067814910629762,4.067814910629762,4.067814910629762,4.067814910629762,4.067814910629762,4.067814910629762,4.067814910629762,4.067814910629762,4.067814910629762,4.067814910629762,4.067814910629762,4.067814910629762,4.067814910629762,4.067814910629762,4.067814910629762,4.067814910629762,4.067814910629762,4.067814910629762,4.067814910629762,4.067814910629762,4.067814910629762,4.067814910629762,4.067814910629762,4.067814910629762,4.067814910629762,4.067814910629762,4.067814910629762,4.067814910629762,4.067814910629762,4.067814910629762,4.067814910629762,4.067814910629762,4.067814910629762,4.067814910629762,4.067814910629762,4.067814910629762,4.067814910629762,4.067814910629762,4.067814910629762,4.067814910629762,4.067814910629762,4.067814910629762,4.067814910629762,4.067814910629762,4.067814910629762,4.067814910629762,4.067814910629762,4.067814910629762,4.067814910629762,4.067814910629762,4.067814910629762,4.067814910629762,4.067814910629762,4.067814910629762,4.067814910629762,4.067814910629762,4.067814910629762,4.067814910629762,4.067814910629762,4.067814910629762,4.067814910629762,4.067814910629762,4.067814910629762,4.067814910629762,4.067814910629762,4.067814910629762,4.067814910629762,4.067814910629762,4.067814910629762,4.067814910629762,4.067814910629762,4.067814910629762,4.067814910629762,4.067814910629762,4.067814910629762,4.067814910629762,4.067814910629762,4.067814910629762,4.067814910629762,4.067814910629762,4.067814910629762,4.067814910629762,4.067814910629762,4.067814910629762,4.067814910629762,4.067814910629762,4.067814910629762,4.067814910629762,4.067814910629762,4.067814910629762,4.067814910629762,4.067814910629762,4.067814910629762,4.067814910629762,4.067814910629762,4.067814910629762,4.067814910629762,4.067814910629762,4.067814910629762,4.067814910629762,4.067814910629762,4.067814910629762,4.067814910629762,4.067814910629762,4.067814910629762,4.067814910629762,4.067814910629762,4.067814910629762,4.067814910629762,4.067814910629762,4.067814910629762,4.067814910629762,4.067814910629762,4.067814910629762,4.067814910629762,4.067814910629762,4.067814910629762,4.067814910629762,4.067814910629762,4.067814910629762,4.067814910629762,4.067814910629762,4.067814910629762,4.067814910629762,4.067814910629762,4.067814910629762,4.067814910629762,4.067814910629762,4.067814910629762,4.067814910629762,4.067814910629762,4.067814910629762,4.067814910629762,4.067814910629762,4.067814910629762,4.067814910629762,4.067814910629762,4.067814910629762,4.067814910629762,4.067814910629762,4.067814910629762,4.067814910629762,4.067814910629762,4.067814910629762,4.067814910629762,4.067814910629762,4.067814910629762,4.067814910629762,4.067814910629762,4.067814910629762,4.067814910629762,4.067814910629762,4.067814910629762,4.067814910629762,4.067814910629762,4.067814910629762,4.067814910629762,4.067814910629762,4.067814910629762,4.067814910629762,4.067814910629762,4.067814910629762,4.067814910629762,4.067814910629762,4.067814910629762,4.067814910629762,4.067814910629762,4.067814910629762,4.067814910629762,4.067814910629762,4.067814910629762,4.067814910629762,4.067814910629762,4.067814910629762,4.067814910629762,4.067814910629762,4.067814910629762,4.067814910629762,4.067814910629762,4.067814910629762,4.067814910629762,4.067814910629762,4.067814910629762,4.067814910629762,4.067814910629762,4.067814910629762,4.067814910629762,4.067814910629762,4.067814910629762,4.067814910629762,4.067814910629762,4.067814910629762,4.067814910629762,4.067814910629762,4.067814910629762,4.067814910629762,4.067814910629762,4.067814910629762,4.067814910629762,4.067814910629762,4.067814910629762,4.067814910629762,4.067814910629762,4.067814910629762,4.067814910629762,4.067814910629762,4.067814910629762,4.067814910629762,4.067814910629762,4.067814910629762,4.067814910629762,4.067814910629762,4.067814910629762,4.067814910629762,4.067814910629762,4.067814910629762,4.067814910629762,4.067814910629762,4.067814910629762,4.067814910629762,4.067814910629762,4.067814910629762,4.067814910629762,4.067814910629762,4.067814910629762,4.067814910629762,4.067814910629762,4.067814910629762,4.067814910629762,4.067814910629762,4.067814910629762,4.067814910629762,4.067814910629762,4.067814910629762,4.067814910629762,4.067814910629762,4.067814910629762,4.067814910629762,4.067814910629762,4.067814910629762,4.067814910629762,4.067814910629762,4.067814910629762,4.067814910629762,4.067814910629762,4.067814910629762,4.067814910629762,4.067814910629762,4.067814910629762,4.067814910629762,4.067814910629762,4.067814910629762,4.067814910629762,4.067814910629762,4.067814910629762,4.067814910629762,4.067814910629762,4.067814910629762,4.067814910629762,4.067814910629762,4.067814910629762,4.067814910629762,4.067814910629762,4.067814910629762,4.067814910629762,4.067814910629762,4.067814910629762,4.067814910629762,4.067814910629762,4.067814910629762,4.067814910629762,4.067814910629762,4.067814910629762,4.067814910629762,4.067814910629762,4.067814910629762,4.067814910629762,4.067814910629762,4.067814910629762,4.067814910629762,4.067814910629762,4.067814910629762,4.067814910629762,4.067814910629762,4.067814910629762,4.067814910629762,4.067814910629762,4.067814910629762,4.067814910629762,4.067814910629762,4.067814910629762,4.067814910629762,4.067814910629762,4.067814910629762,4.067814910629762,4.067814910629762,4.067814910629762,4.067814910629762,4.067814910629762,4.067814910629762,4.067814910629762,4.067814910629762,4.067814910629762,4.067814910629762,4.067814910629762,4.067814910629762,4.067814910629762,4.067814910629762,4.067814910629762,4.067814910629762,4.067814910629762,4.067814910629762,4.067814910629762,4.067814910629762,4.067814910629762,4.067814910629762,4.067814910629762,4.067814910629762,4.067814910629762,4.067814910629762,4.067814910629762,4.067814910629762,4.067814910629762,4.067814910629762,4.067814910629762,4.067814910629762,4.067814910629762,4.067814910629762,4.067814910629762,4.067814910629762,4.067814910629762,4.067814910629762,4.067814910629762,4.067814910629762,4.067814910629762,4.067814910629762,4.067814910629762,4.067814910629762,4.067814910629762,4.067814910629762,4.067814910629762,4.067814910629762,4.067814910629762,4.067814910629762,4.067814910629762,4.067814910629762,4.067814910629762,4.067814910629762,4.067814910629762,4.067814910629762,4.067814910629762,4.067814910629762,4.067814910629762,4.067814910629762,4.067814910629762,4.067814910629762,4.067814910629762,4.067814910629762,4.067814910629762,4.067814910629762,4.067814910629762,4.067814910629762,4.067814910629762,4.067814910629762,4.067814910629762,4.067814910629762,4.067814910629762,4.067814910629762,4.067814910629762,4.067814910629762,4.067814910629762,4.067814910629762,4.067814910629762,4.067814910629762,4.067814910629762,4.067814910629762,4.067814910629762,4.067814910629762,4.067814910629762,4.067814910629762,4.067814910629762,4.067814910629762,4.067814910629762,4.067814910629762,4.067814910629762,4.067814910629762,4.067814910629762,4.067814910629762,4.067814910629762,4.067814910629762,4.067814910629762,4.067814910629762,4.067814910629762,4.067814910629762,4.067814910629762,4.067814910629762,4.067814910629762,4.067814910629762,4.067814910629762,4.067814910629762,4.067814910629762,4.067814910629762,4.067814910629762,4.067814910629762,4.067814910629762,4.067814910629762,4.067814910629762,4.067814910629762,4.067814910629762,4.067814910629762,4.067814910629762,4.067814910629762,4.067814910629762,4.067814910629762,4.067814910629762,4.067814910629762,4.067814910629762,4.067814910629762,4.067814910629762,4.067814910629762,4.067814910629762,4.067814910629762,4.067814910629762,4.067814910629762,4.067814910629762,4.067814910629762,4.067814910629762,4.067814910629762,4.067814910629762,4.067814910629762,4.067814910629762,4.067814910629762,4.067814910629762,4.067814910629762,4.067814910629762,4.067814910629762,4.067814910629762,4.067814910629762,4.067814910629762,4.067814910629762,4.067814910629762,4.067814910629762,4.067814910629762,4.067814910629762,4.067814910629762,4.067814910629762,4.067814910629762,4.067814910629762,4.067814910629762,4.067814910629762,4.067814910629762,4.067814910629762,4.067814910629762,4.067814910629762,4.067814910629762,4.067814910629762,4.067814910629762,4.067814910629762,4.067814910629762,4.067814910629762,4.067814910629762,4.067814910629762,4.067814910629762,4.067814910629762,4.067814910629762,4.067814910629762,4.067814910629762,4.067814910629762,4.067814910629762,4.067814910629762,4.067814910629762,4.067814910629762,4.067814910629762,4.067814910629762,4.067814910629762,4.067814910629762,4.067814910629762,4.067814910629762,4.067814910629762,4.067814910629762,4.067814910629762,4.067814910629762,4.067814910629762,4.067814910629762,4.067814910629762,4.067814910629762,4.067814910629762,4.067814910629762,4.067814910629762,4.067814910629762,4.067814910629762,4.067814910629762,4.067814910629762,4.067814910629762,4.067814910629762,4.067814910629762,4.067814910629762,4.067814910629762,4.067814910629762,4.067814910629762,4.067814910629762,4.067814910629762,4.067814910629762,4.067814910629762,4.067814910629762,4.067814910629762,4.067814910629762,4.067814910629762,4.067814910629762,4.067814910629762,4.067814910629762,4.067814910629762,4.067814910629762,4.067814910629762,4.067814910629762,4.067814910629762,4.067814910629762,4.067814910629762,4.067814910629762,4.067814910629762,4.067814910629762,4.067814910629762,4.067814910629762,4.067814910629762,4.067814910629762,4.067814910629762,4.067814910629762,4.067814910629762,4.067814910629762,4.067814910629762,4.067814910629762,4.067814910629762,4.067814910629762,4.067814910629762,4.067814910629762,4.067814910629762,4.067814910629762,4.067814910629762,4.067814910629762,4.067814910629762,4.067814910629762,4.067814910629762,4.067814910629762,4.067814910629762,4.067814910629762,4.067814910629762,4.067814910629762,4.067814910629762,4.067814910629762,4.067814910629762,4.067814910629762,4.067814910629762,4.067814910629762,4.067814910629762,4.067814910629762,4.067814910629762,4.067814910629762,4.067814910629762,4.067814910629762,4.067814910629762,4.067814910629762,4.067814910629762,4.067814910629762,4.067814910629762,4.067814910629762,4.067814910629762,4.067814910629762,4.067814910629762,4.067814910629762,4.067814910629762,4.067814910629762,4.067814910629762,4.067814910629762,4.067814910629762,4.067814910629762,4.067814910629762,4.067814910629762,4.067814910629762,4.067814910629762,4.067814910629762,4.067814910629762,4.067814910629762,4.067814910629762,4.067814910629762,4.067814910629762,4.067814910629762,4.067814910629762,4.067814910629762,4.067814910629762,4.067814910629762,4.067814910629762,4.067814910629762,4.067814910629762,4.067814910629762,4.067814910629762,4.067814910629762,4.067814910629762,4.067814910629762,4.067814910629762,4.067814910629762,4.067814910629762,4.067814910629762,4.067814910629762,4.067814910629762,4.067814910629762,4.067814910629762,4.067814910629762,4.067814910629762,4.067814910629762,4.067814910629762,4.067814910629762,4.067814910629762,4.067814910629762,4.067814910629762,4.067814910629762,4.067814910629762,4.067814910629762,4.067814910629762,4.067814910629762,4.067814910629762,4.067814910629762,4.067814910629762,4.067814910629762,4.067814910629762,4.067814910629762,4.067814910629762,4.067814910629762,4.067814910629762,4.067814910629762,4.067814910629762,4.067814910629762,4.067814910629762,4.067814910629762,4.067814910629762,4.067814910629762,4.067814910629762,4.067814910629762,4.067814910629762,4.067814910629762,4.067814910629762,4.067814910629762,4.067814910629762,4.067814910629762,4.067814910629762,4.067814910629762,4.067814910629762,4.067814910629762,4.067814910629762,4.067814910629762,4.067814910629762,4.067814910629762,4.067814910629762,4.067814910629762,4.067814910629762,4.067814910629762,4.067814910629762,4.067814910629762,4.067814910629762,4.067814910629762,4.067814910629762,4.067814910629762,4.067814910629762,4.067814910629762,4.067814910629762,4.067814910629762,4.067814910629762,4.067814910629762,4.067814910629762,4.067814910629762,4.067814910629762,4.067814910629762,4.067814910629762,4.067814910629762,4.067814910629762,4.067814910629762,4.067814910629762,4.067814910629762,4.067814910629762,4.067814910629762,4.067814910629762,4.067814910629762,4.067814910629762,4.067814910629762,4.067814910629762,4.067814910629762,4.067814910629762,4.067814910629762,4.067814910629762,4.067814910629762,4.067814910629762,4.067814910629762,4.067814910629762,4.067814910629762,4.067814910629762,4.067814910629762,4.067814910629762,4.067814910629762,4.067814910629762,4.067814910629762,4.067814910629762,4.067814910629762,4.067814910629762,4.067814910629762,4.067814910629762,4.067814910629762,4.067814910629762,4.067814910629762,4.067814910629762,4.067814910629762,4.067814910629762,4.067814910629762,4.067814910629762,4.067814910629762,4.067814910629762,4.067814910629762,4.067814910629762,4.067814910629762,4.067814910629762,4.067814910629762,4.067814910629762,4.067814910629762,4.067814910629762,4.067814910629762,4.067814910629762,4.067814910629762,4.067814910629762,4.067814910629762,4.067814910629762,4.067814910629762,4.067814910629762,4.067814910629762,4.067814910629762,4.067814910629762,4.067814910629762,4.067814910629762,4.067814910629762,4.067814910629762,4.067814910629762,4.067814910629762,4.067814910629762,4.067814910629762,4.067814910629762,4.067814910629762,4.067814910629762,4.067814910629762,4.067814910629762,4.067814910629762,4.067814910629762,4.067814910629762,4.067814910629762,4.067814910629762,4.067814910629762,4.067814910629762,4.067814910629762,4.067814910629762,4.067814910629762,4.067814910629762,4.067814910629762,4.067814910629762,4.067814910629762,4.067814910629762,4.067814910629762,4.067814910629762,4.067814910629762,4.067814910629762,4.067814910629762,4.067814910629762,4.067814910629762,4.067814910629762,4.067814910629762,4.067814910629762,4.067814910629762,4.067814910629762,4.067814910629762,4.067814910629762,4.067814910629762,4.067814910629762,4.067814910629762,4.067814910629762,4.067814910629762,4.067814910629762,4.067814910629762,4.067814910629762,4.067814910629762,4.067814910629762,4.067814910629762,4.067814910629762,4.067814910629762,4.067814910629762,4.067814910629762,4.067814910629762,4.067814910629762,4.067814910629762,4.067814910629762,4.067814910629762,4.067814910629762,4.067814910629762,4.067814910629762,4.067814910629762,4.067814910629762,4.067814910629762,4.067814910629762,4.067814910629762,4.067814910629762,4.067814910629762,4.067814910629762,4.067814910629762,4.067814910629762,4.067814910629762,4.067814910629762,4.067814910629762,4.067814910629762,4.067814910629762,4.067814910629762,4.067814910629762,4.067814910629762,4.067814910629762,4.067814910629762,4.067814910629762,4.067814910629762,4.067814910629762,4.067814910629762,4.067814910629762,4.067814910629762,4.067814910629762,4.067814910629762,4.067814910629762,4.067814910629762,4.067814910629762,4.067814910629762,4.067814910629762,4.067814910629762,4.067814910629762,4.067814910629762,4.067814910629762,4.067814910629762,4.067814910629762,4.067814910629762,4.067814910629762,4.067814910629762,4.067814910629762,4.067814910629762,4.067814910629762,4.067814910629762,4.067814910629762,4.067814910629762,4.067814910629762,4.067814910629762,4.067814910629762,4.067814910629762,4.067814910629762,4.067814910629762,4.067814910629762,4.067814910629762,4.067814910629762,4.067814910629762,4.067814910629762,4.067814910629762,4.067814910629762,4.067814910629762,4.067814910629762,4.067814910629762,4.067814910629762,4.067814910629762,4.067814910629762,4.067814910629762,4.067814910629762,4.067814910629762,4.067814910629762,4.067814910629762,4.067814910629762,4.067814910629762,4.067814910629762,4.067814910629762,4.067814910629762,4.067814910629762,4.067814910629762,4.067814910629762,4.067814910629762,4.067814910629762,4.067814910629762,4.067814910629762,4.067814910629762,4.067814910629762,4.067814910629762,4.067814910629762,4.067814910629762,4.067814910629762,4.067814910629762,4.067814910629762,4.067814910629762,4.067814910629762,4.067814910629762,4.067814910629762,4.067814910629762,4.067814910629762,4.067814910629762,4.067814910629762,4.067814910629762,4.067814910629762,4.067814910629762,4.067814910629762,4.067814910629762,4.067814910629762,4.067814910629762,4.067814910629762,4.067814910629762,4.067814910629762,4.067814910629762,4.067814910629762,4.067814910629762,4.067814910629762,4.067814910629762,4.067814910629762,4.067814910629762,4.067814910629762,4.067814910629762,4.067814910629762,4.067814910629762,4.067814910629762,4.067814910629762,4.067814910629762,4.067814910629762,4.067814910629762,4.067814910629762,4.067814910629762,4.067814910629762,4.067814910629762,4.067814910629762,4.067814910629762,4.067814910629762,4.067814910629762,4.067814910629762,4.067814910629762,4.067814910629762,4.067814910629762,4.067814910629762,4.067814910629762,4.067814910629762,4.067814910629762,4.067814910629762,4.067814910629762,4.067814910629762,4.067814910629762,4.067814910629762,4.067814910629762,4.067814910629762,4.067814910629762,4.067814910629762,4.067814910629762,4.067814910629762,4.067814910629762,4.067814910629762,4.067814910629762,4.067814910629762,4.067814910629762,4.067814910629762,4.067814910629762,4.067814910629762,4.067814910629762,4.067814910629762,4.067814910629762,4.067814910629762,4.067814910629762,4.067814910629762,4.067814910629762,4.067814910629762,4.067814910629762,4.067814910629762,4.067814910629762,4.067814910629762,4.067814910629762,4.067814910629762,4.067814910629762,4.067814910629762,4.067814910629762,4.067814910629762,4.067814910629762,4.067814910629762,4.067814910629762,4.067814910629762,4.067814910629762,4.067814910629762,4.067814910629762,4.067814910629762,4.067814910629762,4.067814910629762,4.067814910629762,4.067814910629762,4.067814910629762,4.067814910629762,4.067814910629762,4.067814910629762,4.067814910629762,4.067814910629762,4.067814910629762,4.067814910629762,4.067814910629762,4.067814910629762,4.067814910629762,4.067814910629762,4.067814910629762,4.067814910629762,4.067814910629762,4.067814910629762,4.067814910629762,4.067814910629762,4.067814910629762,4.067814910629762,4.067814910629762,4.067814910629762,4.067814910629762,4.067814910629762,4.067814910629762,4.067814910629762,4.067814910629762,4.067814910629762,4.067814910629762,4.067814910629762,4.067814910629762,4.067814910629762,4.067814910629762,4.067814910629762,4.067814910629762,4.067814910629762,4.067814910629762,4.067814910629762,4.067814910629762,4.067814910629762,4.067814910629762,4.067814910629762,4.067814910629762,4.067814910629762,4.067814910629762,4.067814910629762,4.067814910629762,4.067814910629762,4.067814910629762,4.067814910629762,4.067814910629762,4.067814910629762,4.067814910629762,4.067814910629762,4.067814910629762,4.067814910629762,4.067814910629762,4.067814910629762,4.067814910629762,4.067814910629762,4.067814910629762,4.067814910629762,4.067814910629762,4.067814910629762,4.067814910629762,4.067814910629762,4.067814910629762,4.067814910629762,4.067814910629762,4.067814910629762,4.067814910629762,4.067814910629762,4.067814910629762,4.067814910629762,4.067814910629762,4.067814910629762,4.067814910629762,4.067814910629762,4.067814910629762,4.067814910629762,4.067814910629762,4.067814910629762,4.067814910629762,4.067814910629762,4.067814910629762,4.067814910629762,4.067814910629762,4.067814910629762,4.067814910629762,4.067814910629762,4.067814910629762,4.067814910629762,4.067814910629762,4.067814910629762,4.067814910629762,4.067814910