[{"nsides":6,"instructions":"Let's define a new operation <img src=./images/hexagon_symbol.png style=width:14px;height:14px>. This operation will give us a way of combining two of the numbers 0, 1, 2, 3, 4, 5 to get another one of them back. Consider the hexagon at the right, where I've labeled each point with one of the numbers. To perform <img src=./images/hexagon_symbol.png style=width:14px;height:14px>, you can use the interactive diagram on the right, or perform the operation in your mind. Point the arrow at the first number on the hexagon by clicking, then click (or click and drag) to move the arrow the second number of points clockwise around the hexagon. The number the arrow arrives at is your result. (The operation is called <img src=./images/hexagon_symbol.png style=width:14px;height:14px> because it uses the hexagon, which has 6 sides.) <br /><br />For example, 3 <img src=./images/hexagon_symbol.png style=width:14px;height:14px> 5 =  2, becau se 5 steps clockwise from 3 on the hexagon brings us to 2. So 3 <img src=./images/hexagon_symbol.png style=width:14px;height:14px> 5 = 2.<br /><br />Similarly, 1 <img src=./images/hexagon_symbol.png style=width:14px;height:14px> 4 = 5, because 4 steps clockwise from 1 brings us to 5. <br /><br />Click Continue when you're ready to move on.","orientation_history":[0],"rt":9306,"trial_type":"polygon-arrow-instructions","trial_index":0,"trial_index_global":1,"time_elapsed":10657,"internal_chunk_id":"0-0"},{"nsides":6,"instructions":"Do you see how <img src=./images/hexagon_symbol.png style=width:14px;height:14px> works? By labeling the points of the hexagon with the numbers from 0 to 5, we ensure that when we combine two numbers under <img src=./images/hexagon_symbol.png style=width:14px;height:14px>, we only produce numbers between 0 and 5.<br /><br />Click Continue when you are ready to move on.","orientation_history":[0],"rt":1668,"trial_type":"polygon-arrow-instructions","trial_index":0,"trial_index_global":2,"time_elapsed":12333,"internal_chunk_id":"0-0"},{"nsides":6,"question":"Now try one on your own! What is 4 <img src=./images/hexagon_symbol.png style=width:14px;height:14px> 5? <br /><br /> (Remember, to perform <img src=./images/hexagon_symbol.png style=width:14px;height:14px>, you can use the interactive diagram on the right, or perform the operation in your mind. Point the arrow at the first number on the hexagon, then move the arrow the second number of points clockwise around the hexagon. The number the arrow arrives at is your result.)","response_type":"free","response_choices":[],"correct_response":"3","response":"3","explain":false,"explanation":"","explanation_history":[],"orientation_history":[[0],[4.073226239167028,4.073226239167028,4.073226239167028,4.073226239167028,4.073226239167028,4.073226239167028,4.073226239167028,4.073226239167028,4.1887902047863905],[5.428930654481093,5.428930654481093,5.428930654481093,5.428930654481093,5.428930654481093,5.428930654481093,5.428930654481093,5.428930654481093,5.428930654481093,5.235987755982988],[0.08238193059169063,0.08238193059169063,0.06472428141559194,0.06472428141559194,0.06472428141559194,0.06472428141559194,0.06472428141559194,0.06472428141559194,0],[1.1401038154083887,1.1401038154083887,1.1401038154083887,1.1401038154083887,1.1401038154083887,1.1401038154083887,1.1401038154083887,1.1401038154083887,1.1401038154083887,1.1071487177940904,1.0471975511965976],[2.3318090810196264,2.3318090810196264,2.3318090810196264,2.3318090810196264,2.3318090810196264,2.3318090810196264,2.3318090810196264,2.3318090810196264,2.3318090810196264,2.3318090810196264,2.0943951023931953],[3.245384994046836,3.245384994046836,3.245384994046836,3.245384994046836,3.245384994046836,3.245384994046836,3.245384994046836,3.245384994046836,3.141592653589793]],"response_history":["3"],"rt":11427,"trial_type":"polygon-arrow-question","trial_index":0,"trial_index_global":3,"time_elapsed":23770,"internal_chunk_id":"0-0.3-0"},{"nsides":6,"feedback":"Correct! 4 <img src=./images/hexagon_symbol.png style=width:14px;height:14px> 5 = 3 because 5 steps clockwise on the hexagon from 4 brings us to 3","orientation_history":[0],"rt":2800,"trial_type":"polygon-arrow-feedback","trial_index":0,"trial_index_global":4,"time_elapsed":26587,"internal_chunk_id":"0-0.3-0"},{"nsides":6,"question":"What is 3 <img src=./images/hexagon_symbol.png style=width:14px;height:14px> 2? <br /><br /> (Remember, to perform <img src=./images/hexagon_symbol.png style=width:14px;height:14px>, you can use the interactive diagram on the right, or perform the operation in your mind. Point the arrow at the first number on the hexagon, then move the arrow the second number of points clockwise around the hexagon. The number the arrow arrives at is your result.)","response_type":"free","response_choices":[],"correct_response":"5","response":"5 ","explain":false,"explanation":"","explanation_history":[],"orientation_history":[[0],[3.3587039683246984,3.3587039683246984,3.3587039683246984,3.3587039683246984,3.3587039683246984,3.3587039683246984,3.3587039683246984,3.3587039683246984,3.3587039683246984,3.3587039683246984,3.141592653589793],[4.243422272612368,4.243422272612368,4.243422272612368,4.243422272612368,4.243422272612368,4.243422272612368,4.243422272612368,4.275051088636806,4.285761487257814,4.1887902047863905],[5.58030609821512,5.58030609821512,5.58030609821512,5.58030609821512,5.58030609821512,5.58030609821512,5.235987755982988]],"response_history":["5"],"rt":15990,"trial_type":"polygon-arrow-question","trial_index":0,"trial_index_global":5,"time_elapsed":42583,"internal_chunk_id":"0-0.3-0"},{"nsides":6,"feedback":"Correct! 3 <img src=./images/hexagon_symbol.png style=width:14px;height:14px> 2 = 5 because 2 steps clockwise on the hexagon from 3 brings us to 5","orientation_history":[0],"rt":1692,"trial_type":"polygon -arrow-feedback","trial_index":0,"trial_index_global":6,"time_elapsed":44283,"internal_chunk_id":"0-0.3-0"},{"nsides":6,"question":"What is 1 <img src=./images/hexagon_symbol.png style=width:14px;height:14px> 5? <br /><br /> (Remember, to perform <img src=./images/hexagon_symbol.png style=width:14px;height:14px>, you can use the interactive diagram on the right, or perform the operation in your mind. Point the arrow at the first number on the hexagon, then move the arrow the second number of points clockwise around the hexagon. The number the arrow arrives at is your result.)","response_type":"free","response_choices":[],"correct_response":"0","response":"0","explain":false,"explanation":"","explanation_history":[],"orientation_history":[[0],[0.9667179377989384,0.9667179377989384,0.9667179377989384,0.9667179377989384,0.9667179377989384,0.9667179377989384,1.0471975511965976],[2.2744101095743487,2.2744101095743487,2.2744101095743487,2.2744101095743487,2.2744101095743487,2.2744101095743487,2.2744101095743487,2.2744101095743487,2.0943951023931953],[3.0235006251706995,3.0235006251706995,3.0235006251706995,3.0235006251706995,3.0235006251706995,3.0235006251706995,3.0235006251706995,3.141592653589793],[4.394930245130059,4.394930245130059,4.394930245130059,4.394930245130059,4.394930245130059,4.394930245130059,4.394930245130059,4.394930245130059,4.1887902047863905],[5.300391583932257,5.300391583932257,5.300391583932257,5.300391583932257,5.300391583932257,5.300391583932257,5.300391583932257,5.300391583932257,5.235987755982988],[6.183516654688424,6.183516654688424,6.183516654688424,6.183516654688424,6.283185307179586]],"response_history":["0"],"rt":7264,"trial_type":"polygon-arrow-question","trial_index":0,"trial_index_global":7,"time_elapsed":51550,"internal_chunk_id":"0-0.3-0"},{"nsides":6,"feedback":"Correct! 1 <img src=./images/hexagon_symbol.png style=width:14px;height:14px> 5 = 0 because 5 steps clockwise on the hexagon from 1 brings  us to 0","orientation_history":[0],"rt":1266,"trial_type":"polygon-arrow-feedback","trial_index":0,"trial_index_global":8,"time_elapsed":52818,"internal_chunk_id":"0-0.3-0"},{"nsides":6,"question":"What is 1 <img src=./images/hexagon_symbol.png style=width:14px;height:14px> 1? <br /><br /> (Remember, to perform <img src=./images/hexagon_symbol.png style=width:14px;height:14px>, you can use the interactive diagram on the right, or perform the operation in your mind. Point the arrow at the first number on the hexagon, then move the arrow the second number of points clockwise around the hexagon. The number the arrow arrives at is your result.)","response_type":"free","response_choices":[],"correct_response":"2","response":"2","explain":false,"explanation":"","explanation_history":[],"orientation_history":[[0],[0.8779167845170951,0.8779167845170951,0.8870870151605252,0.8870870151605252,0.8870870151605252,0.8870870151605252,0.8870870151605252,0.8870870151605252,1.0471975511965976],[2.026868323144507,2.0344439357957027,2.0344439357957027,2.0344439357957027,2.0416901857756,2.0416901857756,2.0943951023931953]],"response_history":["2"],"rt":5717,"trial_type":"polygon-arrow-question","trial_index":0,"trial_index_global":9,"time_elapsed":58538,"internal_chunk_id":"0-0.3-0"},{"nsides":6,"feedback":"Correct! 1 <img src=./images/hexagon_symbol.png style=width:14px;height:14px> 1 = 2 because 1 step clockwise on the hexagon from 1 brings us to 2","orientation_history":[0],"rt":1167,"trial_type":"polygon-arrow-feedback","trial_index":0,"trial_index_global":10,"time_elapsed":59711,"internal_chunk_id":"0-0.3-0"},{"nsides":6,"question":"What is 3 <img src=./images/hexagon_symbol.png style=width:14px;height:14px> 0? <br /><br /> (Remember, to perform <img src=./images/hexagon_symbol.png style=width:14px;height:14px>, you can use the interactive diagram on the right, or perform the operation in your mind. Point the arrow at the first number o n the he xagon, then move the arrow the second number of points clockwise around the hexagon. The number the arrow arrives at is your result.)","response_type":"free","response_choices":[],"correct_response":"3","response":"3","explain":false,"explanation":"","explanation_history":[],"orientation_history":[[0],[3.3412765389648946,3.3412765389648946,3.3412765389648946,3.3412765389648946,3.3412765389648946,3.3412765389648946,3.3412765389648946,3.3412765389648946,3.141592653589793]],"response_history":["0","3"],"rt":7607,"trial_type":"polygon-arrow-question","trial_index":0,"trial_index_global":11,"time_elapsed":67320,"internal_chunk_id":"0-0.3-0"},{"nsides":6,"feedback":"Correct! 3 <img src=./images/hexagon_symbol.png style=width:14px;height:14px> 0 = 3 because 0 steps clockwise on the hexagon from 3 brings us to 3","orientation_history":[0],"rt":1034,"trial_type":"polygon-arrow-feedback","trial_index":0,"trial_index_global":12,"time_elapsed":68358,"internal_chunk_id":"0-0.3-0"},{"nsides":6,"question":"What is 4 <img src=./images/hexagon_symbol.png style=width:14px;height:14px> 4? <br /><br /> (Remember, to perform <img src=./images/hexagon_symbol.png style=width:14px;height:14px>, you can use the interactive diagram on the right, or perform the operation in your mind. Point the arrow at the first number on the hexagon, then move the arrow the second number of points clockwise around the hexagon. The number the arrow arrives at is your result.)","response_type":"free","response_choices":[],"correct_response":"2","response":"2","explain":false,"explanation":"","explanation_history":[],"orientation_history":[[0],[4.230991756327386,4.230991756327386,4.230991756327386,4.230991756327386,4.230991756327386,4.230991756327386,4.230991756327386,4.230991756327386,4.230991756327386,4.1887902047863905],[5.427197553963264,5.427197553963264,5.427197553963264,5.427197553963264,5.427197553963264,5.235987755982988],[0.053711729303232536,0.053711729303232536,0.053711729303232536,0.053711729303232536,0.053711729303232536,0.053711729303232536,0.053711729303232536,0.053711729303232536,0.053711729303232536,0],[1.0957855705297996,1.1186424645091209,1.1186424645091209,1.1186424645091209,1.1186424645091209,1.1186424645091209,1.1186424645091209,1.1186424645091209,1.1186424645091209,1.0471975511965976],[2.1280918619124023,2.1280918619124023,2.1280918619124023,2.1280918619124023,2.1280918619124023,2.1280918619124023,2.1280918619124023,2.0943951023931953]],"response_history":["2"],"rt":5355,"trial_type":"polygon-arrow-question","trial_index":0,"trial_index_global":13,"time_elapsed":73718,"internal_chunk_id":"0-0.3-0"},{"nsides":6,"feedback":"Correct! 4 <img src=./images/hexagon_symbol.png style=width:14px;height:14px> 4 = 2 because 4 steps clockwise on the hexagon from 4 brings us to 2","orientation_history":[0],"rt":1079,"trial_type":"polygon-arrow-feedback","trial_index":0,"trial_index_global":14,"time_elapsed":74799,"internal_chunk_id":"0-0.3- 0"},{"nsides":6,"question":"What is 1 <img src=./images/hexagon_symbol.png style=width:14px;height:14px> 3? <br /><br /> (Remember, to perform <img src=./images/hexagon_symbol.png style=width:14px;height:14px>, you can use the interactive diagram on the right, or perform the operation in your mind. Point the arrow at the first number on the hexagon, then move the arrow the second number of points clockwise around the hexagon. The number the arrow arrives at is your result.)","response_type":"free","response_choices":[],"correct_response":"4","response":"3","explain":false,"explanation":"","explanation_history":[],"orientation_history":[[0],[1.0779599298012958,1.0779599298012958,1.0779599298012958,1.0779599298012958,1.0779599298012958,1.0779599298012958,1.0779599298012958,1.0779599298012958,1.0471975511965976],[2.109018028406375,2.109018028406375,2.109018028406375,2.109018028406375,2.109018028406375,2.109018028406375,2.109018028406375,2.109018028406375,2.0943951023931953],[3.2067178169241792,3.2067178169241792,3.2067178169241792,3.2067178169241792,3.2067178169241792,3.2067178169241792,3.2067178169241792,3.141592653589793],[4.222431654130961,4.222431654130961,4.222431654130961,4.222431654130961,4.222431654130961,4.222431654130961,4.222431654130961,4.222431654130961,4.222431654130961,4.1887902047863905]],"response_history":["3"],"rt":7304,"trial_type":"polygon-arrow-question","trial_index":0,"trial_index_global":15,"time_elapsed":82109,"internal_chunk_id":"0-0.3-0"},{"nsides":6,"feedback":"Sorry, that was incorrect. 1 <img src=./images/hexagon_symbol.png style=width:14px;height:14px> 3 = 4 because 3 steps clockwise on the hexagon from 1 brings us to 4","orientation_history":[0],"rt":5434,"trial_type":"polygon-arrow-feedback","trial_index":0,"trial_index_global":16,"time_elapsed":87548,"internal_chunk_id":"0-0.3-0"},{"nsides":6,"question":"What is 4 <img src=./images/hexagon_symbol.png style=width:14px;height:14px> 3? <br /> <br /> ( Remember, to perform <img src=./images/hexagon_symbol.png style=width:14px;height:14px>, you can use the interactive diagram on the right, or perform the operation in your mind. Point the arrow at the first number on the hexagon, then move the arrow the second number of points clockwise around the hexagon. The number the arrow arrives at is your result.)","response_type":"free","response_choices":[],"correct_response":"1","response":"1","explain":false,"explanation":"","explanation_history":[],"orientation_history":[[0],[3.338988213439674,3.338988213439674,3.338988213439674,3.141592653589793],[4.2424123419676825,4.2424123419676825,4.2424123419676825,4.2424123419676825,4.1887902047863905],[5.31969420555094,5.31969420555094,5.31969420555094,5.31969420555094,5.31969420555094,5.31969420555094,5.31969420555094,5.339131881595737,5.235987755982988],[6.191339180914849,6.191339180914849,6.191339180914849,6.191339180914849,6.191339180914849,6.191339180914849,6.283185307179586],[0.8773368222796694,0.8928958374231025,0.8928958374231025,0.9151007005533603,0.9151007005533603,0.9151007005533603,0.9151007005533603,0.9151007005533603,0.9151007005533603,0.9151007005533603,1.0471975511965976]],"response_history":["1"],"rt":16527,"trial_type":"polygon-arrow-question","trial_index":0,"trial_index_global":17,"time_elapsed":104081,"internal_chunk_id":"0-0.3-0"},{"nsides":6,"feedback":"Correct! 4 <img src=./images/hexagon_symbol.png style=width:14px;height:14px> 3 = 1 because 3 steps clockwise on the hexagon from 4 brings us to 1","orientation_history":[0],"rt":1092,"trial_type":"polygon-arrow-feedback","trial_index":0,"trial_index_global":18,"time_elapsed":105181,"internal_chunk_id":"0-0.3-0"},{"nsides":6,"question":"What is 0 <img src=./images/hexagon_symbol.png style=width:14px;height:14px> 5? <br /><br /> (Remember, to perform <img src=./images/hexagon_symbol.png style=width:14px;height:14px>, you can use the interactive diagram on the righ t, or pe rform the operation in your mind. Point the arrow at the first number on the hexagon, then move the arrow the second number of points clockwise around the hexagon. The number the arrow arrives at is your result.)","response_type":"free","response_choices":[],"correct_response":"5","response":"5","explain":false,"explanation":"","explanation_history":[],"orientation_history":[[0]],"response_history":["5"],"rt":6991,"trial_type":"polygon-arrow-question","trial_index":0,"trial_index_global":19,"time_elapsed":112175,"internal_chunk_id":"0-0.3-0"},{"nsides":6,"feedback":"Correct! 0 <img src=./images/hexagon_symbol.png style=width:14px;height:14px> 5 = 5 because 5 steps clockwise on the hexagon from 0 brings us to 5","orientation_history":[0],"rt":1055,"trial_type":"polygon-arrow-feedback","trial_index":0,"trial_index_global":20,"time_elapsed":113233,"internal_chunk_id":"0-0.3-0"},{"nsides":6,"question":"What is 2 <img src=./images/hexagon_symbol.png style=width:14px ;height: 14px> 5? <br /><br /> (Remember, to perform <img src=./images/hexagon_symbol.png style=width:14px;height:14px>, you can use the interactive diagram on the right, or perform the operation in your mind. Point the arrow at the first number on the hexagon, then move the arrow the second number of points clockwise around the hexagon. The number the arrow arrives at is your result.)","response_type":"free","response_choices":[],"correct_response":"1","response":"1","explain":false,"explanation":"","explanation_history":[],"orientation_history":[[0],[1.8313987185422376,1.8622531212727638,1.8622531212727638,2.0943951023931953],[3.4291684843702406,3.4291684843702406,3.4291684843702406,3.4291684843702406,3.4291684843702406,3.4291684843702406,3.4291684843702406,3.4291684843702406,3.141592653589793],[4.290137826933417,4.290137826933417,4.290137826933417,4.290137826933417,4.290137826933417,4.290137826933417,4.290137826933417,4.290137826933417,4.326895113455361,4.1887902047863905],[5.387129922608242,5.387129922608242,5.387129922608242,5.387129922608242,5.387129922608242,5.387129922608242,5.235987755982988],[0.06965457372856809,0.06965457372856809,0.06965457372856809,0.06965457372856809,0.06965457372856809,0.06965457372856809,0.06965457372856809,0.06965457372856809,0.06965457372856809,0],[0.7349359893805923,0.7349359893805923,0.7349359893805923,0.7349359893805923,0.7349359893805923,0.7349359893805923,0.7349359893805923,1.0471975511965976]],"response_history":["1"],"rt":5203,"trial_type":"polygon-arrow-question","trial_index":0,"trial_index_global":21,"time_elapsed":118441,"internal_chunk_id":"0-0.3-0"},{"nsides":6,"feedback":"Correct! 2 <img src=./images/hexagon_symbol.png style=width:14px;height:14px> 5 = 1 because 5 steps clockwise on the hexagon from 2 brings us to 1","orientation_history":[0],"rt":1216,"trial_type":"polygon-arrow-feedback","trial_index":0,"trial_index_global":22,"time_elapsed":119659,"internal_chunk_id":"0-0.3-0"},{"nsides":6,"instructions":"Now we're going to discuss a couple special properties of this new operation, <img src=./images/hexagon_symbol.png style=width:14px;height:14px> that we've learned. First, notice that the number 0 behaves in a special way under <img src=./images/hexagon_symbol.png style=width:14px;height:14px>. Whenever we combine 0 with anything else, we get that same thing back. We'll say that 0 is the <i>identity</i> under <img src=./images/hexagon_symbol.png style=width:14px;height:14px>, because when you combine it with something it gives you that identical thing back.","orientation_history":[0],"rt":7191,"trial_type":"polygon-arrow-instructions","trial_index":0,"trial_index_global":23,"time_elapsed":126872,"internal_chunk_id":"0-0"},{"nsides":6,"instructions":"Now that we know 0 is the identity under <img src=./images/hexagon_symbol.png style=width:14px;height:14px>, we're going to make a new definition. We'll say that the <i>inverse</i> of a numbe r is the  element that you combine with it to produce the identity under our operation. For example, 5 <img src=./images/hexagon_symbol.png style=width:14px;height:14px> 1 = 0, so we say 1 is the inverse of 5 under <img src=./images/hexagon_symbol.png style=width:14px;height:14px>, (remember 0 is the identity under <img src=./images/hexagon_symbol.png style=width:14px;height:14px>). Similarly, 3 is its own inverse under <img src=./images/hexagon_symbol.png style=width:14px;height:14px>, because 3 <img src=./images/hexagon_symbol.png style=width:14px;height:14px> 3 = 0.","orientation_history":[0],"rt":24000,"trial_type":"polygon-arrow-instructions","trial_index":0,"trial_index_global":24,"time_elapsed":150880,"internal_chunk_id":"0-0"},{"nsides":6,"question":"Now you try! What is the inverse of 4 under <img src=./images/hexagon_symbol.png style=width:14px;height:14px>? <br /><br /> (Remember, the inverse of an element is the thing which  you comb ine with it to produce the identity.)","response_type":"free","response_choices":[],"correct_response":"2","response":"2","explain":false,"explanation":"","explanation_history":[],"orientation_history":[[0]],"response_history":["2"],"rt":14780,"trial_type":"polygon-arrow-question","trial_index":0,"trial_index_global":25,"time_elapsed":165664,"internal_chunk_id":"0-0.7-0"},{"nsides":6,"feedback":"Correct! The inverse of 4 under <img src=./images/hexagon_symbol.png style=width:14px;height:14px> is 2 because 4 <img src=./images/hexagon_symbol.png style=width:14px;height:14px> 2 = 0, and 0 is the identity under <img src=./images/hexagon_symbol.png style=width:14px;height:14px>.","orientation_history":[0],"rt":6373,"trial_type":"polygon-arrow-feedback","trial_index":0,"trial_index_global":26,"time_elapsed":172045,"internal_chunk_id":"0-0.7-0"},{"nsides":6,"question":"What is the inverse of 1 under <img src=./images/hexagon_symbol.png style=width:14px ;height: 14px>? <br /><br /> (Remember, the inverse of an element is the thing which you combine with it to produce the identity.)","response_type":"free","response_choices":[],"correct_response":"5","response":"5","explain":false,"explanation":"","explanation_history":[],"orientation_history":[[0]],"response_history":["5"],"rt":5973,"trial_type":"polygon-arrow-question","trial_index":0,"trial_index_global":27,"time_elapsed":178022,"internal_chunk_id":"0-0.7-0"},{"nsides":6,"feedback":"Correct! The inverse of 1 under <img src=./images/hexagon_symbol.png style=width:14px;height:14px> is 5 because 1 <img src=./images/hexagon_symbol.png style=width:14px;height:14px> 5 = 0, and 0 is the identity under <img src=./images/hexagon_symbol.png style=width:14px;height:14px>.","orientation_history":[0],"rt":2055,"trial_type":"polygon-arrow-feedback","trial_index":0,"trial_index_global":28,"time_elapsed":180080,"internal_chunk_id":"0-0.7-0"},{"nsides":6,"question":"What  is the i nverse of 3 under <img src=./images/hexagon_symbol.png style=width:14px;height:14px>? <br /><br /> (Remember, the inverse of an element is the thing which you combine with it to produce the identity.)","response_type":"free","response_choices":[],"correct_response":"3","response":"3","explain":false,"explanation":"","explanation_history":[],"orientation_history":[[0]],"response_history":["4","3"],"rt":12222,"trial_type":"polygon-arrow-question","trial_index":0,"trial_index_global":29,"time_elapsed":192305,"internal_chunk_id":"0-0.7-0"},{"nsides":6,"feedback":"Correct! The inverse of 3 under <img src=./images/hexagon_symbol.png style=width:14px;height:14px> is 3 because 3 <img src=./images/hexagon_symbol.png style=width:14px;height:14px> 3 = 0, and 0 is the identity under <img src=./images/hexagon_symbol.png style=width:14px;height:14px>.","orientation_history":[0],"rt":1512,"trial_type":"polygon-arrow-feedback","trial_index":0,"trial_index_global":30,"time_elapsed":193826,"internal_chunk_id":"0-0.7-0"},{"nsides":6,"question":"What is the inverse of 2 under <img src=./images/hexagon_symbol.png style=width:14px;height:14px>? <br /><br /> (Remember, the inverse of an element is the thing which you combine with it to produce the identity.)","response_type":"free","response_choices":[],"correct_response":"4","response":"4","explain":false,"explanation":"","explanation_history":[],"orientation_history":[[0]],"response_history":["4"],"rt":3866,"trial_type":"polygon-arrow-question","trial_index":0,"trial_index_global":31,"time_elapsed":197695,"internal_chunk_id":"0-0.7-0"},{"nsides":6,"feedback":"Correct! The inverse of 2 under <img src=./images/hexagon_symbol.png style=width:14px;height:14px> is 4 because 2 <img src=./images/hexagon_symbol.png style=width:14px;height:14px> 4 = 0, and 0 is the identity under <img src=./images/hexagon_symbol.png style=width:14px;height:14px>.","orientation_history":[0],"rt":874,"trial_type":"polygon-arrow-feedback","trial_index":0,"trial_index_global":32,"time_elapsed":198573,"internal_chunk_id":"0-0.7-0"},{"nsides":6,"question":"What is the inverse of 0 under <img src=./images/hexagon_symbol.png style=width:14px;height:14px>? <br /><br /> (Remember, the inverse of an element is the thing which you combine with it to produce the identity.)","response_type":"free","response_choices":[],"correct_response":"0","response":"6","explain":false,"explanation":"","explanation_history":[],"orientation_history":[[0]],"response_history":["6"],"rt":3433,"trial_type":"polygon-arrow-question","trial_index":0,"trial_index_global":33,"time_elapsed":202008,"internal_chunk_id":"0-0.7-0"},{"nsides":6,"feedback":"Sorry, that was incorrect. The inverse of 0 under <img src=./images/hexagon_symbol.png style=width:14px;height:14px> is 0 because 0 <img src=./images/hexagon_symbol.png style=width:14px;height:14px> 0 = 0, and 0 is the identity un der <img  src=./images/hexagon_symbol.png style=width:14px;height:14px>.","orientation_history":[0],"rt":1032,"trial_type":"polygon-arrow-feedback","trial_index":0,"trial_index_global":34,"time_elapsed":203042,"internal_chunk_id":"0-0.7-0"},{"instructions":"It is also possible to successively apply <img src=./images/hexagon_symbol.png style=width:14px;height:14px>, and the operation can simply be performed starting with the left-most pair. For example, 2 <img src=./images/hexagon_symbol.png style=width:14px;height:14px> 3 <img src=./images/hexagon_symbol.png style=width:14px;height:14px> 4 = 5 <img src=./images/hexagon_symbol.png style=width:14px;height:14px> 4 = 3.","rt":60893,"trial_type":"instructions","trial_index":0,"trial_index_global":35,"time_elapsed":263939,"internal_chunk_id":"0-0"},{"nsides":6,"instructions":"We have one last definition to learn today, using the successive operations we just learned. Let's start with an example. Unde r our op eration <img src=./images/hexagon_symbol.png style=width:14px;height:14px> we can make every other number using just 1: 2 = 1 <img src=./images/hexagon_symbol.png style=width:14px;height:14px> 1, 3 = 1 <img src=./images/hexagon_symbol.png style=width:14px;height:14px> 1 <img src=./images/hexagon_symbol.png style=width:14px;height:14px> 1, 4 = 1 <img src=./images/hexagon_symbol.png style=width:14px;height:14px> 1 <img src=./images/hexagon_symbol.png style=width:14px;height:14px> 1 <img src=./images/hexagon_symbol.png style=width:14px;height:14px> 1, 5 = 1 <img src=./images/hexagon_symbol.png style=width:14px;height:14px> 1 <img src=./images/hexagon_symbol.png style=width:14px;height:14px> 1 <img src=./images/hexagon_symbol.png style=width:14px;height:14px> 1 <img src=./images/hexagon_symbol.png style=width:14px;height:14px> 1, and 0 = 1 <img src=./images/hexagon_symbol.png style=widt h:14px;h eight:14px> 1 <img src=./images/hexagon_symbol.png style=width:14px;height:14px> 1 <img src=./images/hexagon_symbol.png style=width:14px;height:14px> 1 <img src=./images/hexagon_symbol.png style=width:14px;height:14px> 1 <img src=./images/hexagon_symbol.png style=width:14px;height:14px> 1. Because 1 can make every other element under <img src=./images/hexagon_symbol.png style=width:14px;height:14px>, we say that 1 is a <i>generator</i> under <img src=./images/hexagon_symbol.png style=width:14px;height:14px>. <br /><br /> However, 2 is not a generator under <img src=./images/hexagon_symbol.png style=width:14px;height:14px>, because 4 = 2 <img src=./images/hexagon_symbol.png style=width:14px;height:14px> 2, and 0 = 2 <img src=./images/hexagon_symbol.png style=width:14px;height:14px> 2 <img src=./images/hexagon_symbol.png style=width:14px;height:14px> 2, but there is no way to make 1, 3, or 5 usin g just 2 .","orientation_history":[0],"rt":19759,"trial_type":"polygon-arrow-instructions","trial_index":0,"trial_index_global":36,"time_elapsed":283711,"internal_chunk_id":"0-0"},{"nsides":6,"question":"Now you try! Is 3 a generator under <img src=./images/hexagon_symbol.png style=width:14px;height:14px>? <br /><br /> (Remember, a generator is an element which can make every other element.)","response_type":"multi","response_choices":["Yes","No"],"correct_response":"No","response":"Yes","explain":false,"explanation":"","explanation_history":[],"orientation_history":[[0]],"response_history":["Yes"],"rt":7732,"trial_type":"polygon-arrow-question","trial_index":0,"trial_index_global":37,"time_elapsed":291459,"internal_chunk_id":"0-0.10-0"},{"nsides":6,"feedback":"Sorry, that's incorrect. 3 is not a generator under <img src=./images/hexagon_symbol.png style=width:14px;height:14px>, because 3 = 3, 0 = 3 <img src=./images/hexagon_symbol.png style=width:14px;height:14 px> 3,  but there is no way to make 1, 2, 4, or 5 using just 3.","orientation_history":[0],"rt":7191,"trial_type":"polygon-arrow-feedback","trial_index":0,"trial_index_global":38,"time_elapsed":298659,"internal_chunk_id":"0-0.10-0"},{"nsides":6,"question":"Is 5 a generator under <img src=./images/hexagon_symbol.png style=width:14px;height:14px>? <br /><br /> (Remember, a generator is an element which can make every other element.)","response_type":"multi","response_choices":["Yes","No"],"correct_response":"Yes","response":"Yes","explain":false,"explanation":"","explanation_history":[],"orientation_history":[[0]],"response_history":["Yes"],"rt":4034,"trial_type":"polygon-arrow-question","trial_index":0,"trial_index_global":39,"time_elapsed":302699,"internal_chunk_id":"0-0.10-0"},{"nsides":6,"feedback":"Correct! 5 is a generator under <img src=./images/hexagon_symbol.png style=width:14px;height:14px>, because 5 = 5, 4 = 5 <img src=./images/hexagon_symbol.png style =width :14px;height:14px> 5, 3 = 5 <img src=./images/hexagon_symbol.png style=width:14px;height:14px> 5 <img src=./images/hexagon_symbol.png style=width:14px;height:14px> 5, 2 = 5 <img src=./images/hexagon_symbol.png style=width:14px;height:14px> 5 <img src=./images/hexagon_symbol.png style=width:14px;height:14px> 5 <img src=./images/hexagon_symbol.png style=width:14px;height:14px> 5, 1 = 5 <img src=./images/hexagon_symbol.png style=width:14px;height:14px> 5 <img src=./images/hexagon_symbol.png style=width:14px;height:14px> 5 <img src=./images/hexagon_symbol.png style=width:14px;height:14px> 5 <img src=./images/hexagon_symbol.png style=width:14px;height:14px> 5, and 0 = 5 <img src=./images/hexagon_symbol.png style=width:14px;height:14px> 5 <img src=./images/hexagon_symbol.png style=width:14px;height:14px> 5 <img src=./images/hexagon_symbol.png style=width:14px;height:14px> 5 <img src=./image s/hexagon_symbol.png style=width:14px;height:14px> 5 <img src=./images/hexagon_symbol.png style=width:14px;height:14px> 5, so you can make all of the numbers under <img src=./images/hexagon_symbol.png style=width:14px;height:14px> using 5","orientation_history":[0],"rt":3781,"trial_type":"polygon-arrow-feedback","trial_index":0,"trial_index_global":40,"time_elapsed":306491,"internal_chunk_id":"0-0.10-0"},{"nsides":6,"question":"Is 4 a generator under <img src=./images/hexagon_symbol.png style=width:14px;height:14px>? <br /><br /> (Remember, a generator is an element which can make every other element.)","response_type":"multi","response_choices":["Yes","No"],"correct_response":"No","response":"Yes","explain":false,"explanation":"","explanation_history":[],"orientation_history":[[0]],"response_history":["Yes"],"rt":2988,"trial_type":"polygon-arrow-question","trial_index":0,"trial_index_global":41,"time_elapsed":309484,"internal_chunk_id":"0-0.10- 0"},{"nsides":6,"feedback":"Sorry, that's incorrect. 4 is not a generator under <img src=./images/hexagon_symbol.png style=width:14px;height:14px>, because 4 = 4, 2 = 4 <img src=./images/hexagon_symbol.png style=width:14px;height:14px> 4, and 0 = 4 <img src=./images/hexagon_symbol.png style=width:14px;height:14px> 4 <img src=./images/hexagon_symbol.png style=width:14px;height:14px> 4, but there is no way to make 1, 3, or 5 using just 4.","orientation_history":[0],"rt":3031,"trial_type":"polygon-arrow-feedback","trial_index":0,"trial_index_global":42,"time_elapsed":312518,"internal_chunk_id":"0-0.10-0"},{"nsides":6,"question":"Is 0 a generator under <img src=./images/hexagon_symbol.png style=width:14px;height:14px>? <br /><br /> (Remember, a generator is an element which can make every other element.)","response_type":"multi","response_choices":["Yes","No"],"correct_response":"No","response":"Yes","explain":false,"explanation":"","explanation_history":[],"orientation_history":[[0]],"response_history":["Yes"],"rt":3343,"trial_type":"polygon-arrow-question","trial_index":0,"trial_index_global":43,"time_elapsed":315863,"internal_chunk_id":"0-0.10-0"},{"nsides":6,"feedback":"Sorry, that's incorrect. 0 is not a generator under <img src=./images/hexagon_symbol.png style=width:14px;height:14px>, because 0 = 0, but there is no way to make 1, 2, 3, 4, or 5 using just 0.","orientation_history":[0],"rt":1160,"trial_type":"polygon-arrow-feedback","trial_index":0,"trial_index_global":44,"time_elapsed":317027,"internal_chunk_id":"0-0.10-0"},{"nsides":9,"instructions":"Now we are going to ask you some questions about a new operation, <img src=./images/nonagon_symbol.png style=width:14px;height:14px>, on the numbers 0, 1, 2, 3, 4, 5, 6, 7, 8. It works exactly like <img src=./images/hexagon_symbol.png style=width:14px;height:14px>, except now you use the nonagon shown at the right. <br /><br />Do you see how <img s rc=./i mages/nonagon_symbol.png style=width:14px;height:14px> works just like <img src=./images/hexagon_symbol.png style=width:14px;height:14px>? By labeling the points of the nonagon with the numbers from 0 to 8, we ensure that when we combine two numbers under <img src=./images/nonagon_symbol.png style=width:14px;height:14px>, we only produce numbers between 0 and 8. <br /><br />We'll give you one practice question with feedback to make sure you understand the new operation. After that, try to complete the remaining questions as accurately as possible.","orientation_history":[0],"rt":10487,"trial_type":"polygon-arrow-instructions","trial_index":0,"trial_index_global":45,"time_elapsed":327521,"internal_chunk_id":"0-0"},{"nsides":9,"question":"Practice: What is 5 <img src=./images/nonagon_symbol.png style=width:14px;height:14px> 5?","response_type":"free","response_choices":[],"correct_response":"1","response":"1","explain":false,"explanation":"","explanation_history":[],"orientation_history":[[0],[3.6052402625905993,3.588196458595602,3.588196458595602,3.588196458595602,3.490658503988659],[4.21304225870456,4.21304225870456,4.21304225870456,4.21304225870456,4.21304225870456,4.21304225870456,4.21304225870456,4.218447611465109,4.1887902047863905],[4.919262929364432,4.919262929364432,4.919262929364432,4.919262929364432,4.919262929364432,4.983988572144765,4.886921905584122],[5.705745691035072,5.705745691035072,5.705745691035072,5.705745691035072,5.705745691035072,5.705745691035072,5.585053606381854],[6.173866773291686,6.221535136540327,6.221535136540327,6.221535136540327,6.246165191305656,6.246165191305656,6.283185307179586],[0.7437555842988598,0.7437555842988598,0.7752974968121263,0.7752974968121263,0.7853981633974483,0.7853981633974483,0.6981317007977318]],"response_history":["1"],"rt":7484,"trial_type":"polygon-arrow-question","trial_index":0,"trial_index_global":46,"time_elapsed":335013,"internal_chunk_id":"0-0.12-0"},{"nsides":9,"feedback":"Correct! 5 <img src=./images/nonagon_symbol.png style=width:14px;height:14px> 5 = 1 because 5 steps clockwise on the nonagon from 5 brings us to 1","orientation_history":[0],"rt":1077,"trial_type":"polygon-arrow-feedback","trial_index":0,"trial_index_global":47,"time_elapsed":336095,"internal_chunk_id":"0-0.12-0"},{"nsides":9,"question":"What is 3 <img src=./images/nonagon_symbol.png style=width:14px;height:14px> 3?","response_type":"free","response_choices":[],"correct_response":"6","response":"6","explain":false,"explanation":"","explanation_history":[],"orientation_history":[[0],[2.174545660192333,2.174545660192333,2.174545660192333,2.174545660192333,2.174545660192333,2.174545660192333,2.174545660192333,2.174545660192333,2.174545660192333,2.0943951023931953],[2.892629947797076,2.892629947797076,2.892629947797076,2.892629947797076,2.892629947797076,2.892629947797076,2.892629947797076,2.892629947797076,2.792526803190927],[3.9199979239819083,3.9199979239819083,3.9199979239819083,3.9199979239819083,3.9199979239819083,3.9199979239819083,3.9199979239819083,3.9199979239819083,4.1887902047863905],[4.35508029737659,4.35508029737659,4.35508029737659,4.363617976800783,4.363617976800783,4.363617976800783,4.363617976800783,4.1887902047863905],[2.6581456520225943,2.6581456520225943,2.6581456520225943,2.6581456520225943,2.6581456520225943,2.6581456520225943,2.6581456520225943,2.693249971913179,2.693249971913179,2.792526803190927],[3.856684352868617,3.856684352868617,3.856684352868617,3.856684352868617,3.856684352868617,3.856684352868617,3.856684352868617,3.856684352868617,3.856684352868617,4.1887902047863905]],"response_history":["6"],"rt":6230,"trial_type":"polygon-arrow-question","trial_index":0,"trial_index_global":48,"time_elapsed":342328,"internal_chunk_id":"0-0.12-0"},{"nsides":9,"question":"What is 7 <img src=./images/nonagon_symbol.png style=width:14px;height:14px> 4?","response_type":"free","response_choices":[],"correct_response":"2","response":"12","explain":false,"explanation":"","explanation_history":[],"orientation_history":[[0],[4.857430678711295,4.857430678711295,4.857430678711295,4.857430678711295,4.857430678711295,4.857430678711295,4.886921905584122],[5.4369925879073495,5.4550780880171335,5.4550780880171335,5.4550780880171335,5.4550780880171335,5.4550780880171335,5.4550780880171335,5.585053606381854],[6.247905833585995,6.247905833585995,6.247905833585995,6.247905833585995,6.247905833585995,6.247905833585995,6.247905833585995,6.247486194500262,6.247486194500262,6.283185307179586],[0.6800980338334001,0.6800980338334001,0.6800980338334001,0.6800980338334001,0.6800980338334001,0.6800980338334001,0.6800980338334001,0.6800980338334001,0.6976242710702278,0.7061990924279967,0.7061990924279967,0.6981317007977318],[1.3114645823942117,1.3210215373736482,1.3210215373736482,1.3210215373736482,1.3185538689050782,1.3962634015954636]],"response_history":["12"],"rt":5617,"trial_type":"polygon-arrow-question","trial_index":0,"trial_index_global":49,"time_elapsed":347950,"internal_chunk_id":"0-0.12-0"},{"nsides":9,"question":"What is 1 <img src=./images/nonagon_symbol.png style=width:14px;height:14px> 8?","response_type":"free","response_choices":[],"correct_response":"0","response":"9","explain":false,"explanation":"","explanation_history":[],"orientation_history":[[0]],"response_history":["9"],"rt":5170,"trial_type":"polygon-arrow-question","trial_index":0,"trial_index_global":50,"time_elapsed":353128,"internal_chunk_id":"0-0.12-0"},{"nsides":9,"question":"What is 5 <img src=./images/nonagon_symbol.png style=width:14px;height:14px> 4?","response_type":"free","response_choices":[],"correct_response":"0","response":"9","explain":false,"explanation":"","explanation_history":[],"orientation_history":[[0]],"response_history":["9"],"rt":2174,"trial_type":"polygon-arrow-question","trial_index":0,"trial_index_global":51,"time_elapsed":355305,"internal_chunk_id":"0-0.12-0"},{"nsides":9,"question":"What is 6 <img src=./images/nonagon_symbol.png style=width:14px;height:14px> 6?","response_type":"free","response_choices":[],"correct_response":"3","response":"2","explain":false,"explanation":"","explanation_history":[],"orientation_history":[[0]],"response_history":["1","2"],"rt":4215,"trial_type":"polygon-arrow-question","trial_index":0,"trial_index_global":52,"time_elapsed":359526,"internal_chunk_id":"0-0.12-0"},{"nsides":9,"instructions":"On the following question, and several others later in the HIT, we will ask you to explain how you got your answer. On these questions, you will be given one box for your answer to the question, and a second for your explanation. Please explain your thought process in as much detail as possible (at least one sentence, and more if you can).","orientation_history":[0],"rt":4520,"trial_type":"polygon-arrow-instructions","trial_index":0,"trial_index_global":53,"time_elapsed":364051,"internal_chunk_id":"0-0.12-0"},{"nsides":9,"question":"What is 4 <img src=./images/nonagon_symbol.png style=width:14px;height:14px> 1? Please explain in words how you got your answer.","response_type":"free","response_choices":[],"correct_response":"5","response":"5","explain":true,"explanation":"because 1 step clockwise from 4 is 5","explanation_history":["b","bec","beuse","beus","beu","because 1 step clockwise from 4 is 5"],"orientation_history":[[0],[2.890264869428953,2.8685839505030826,2.8685839505030826,2.8685839505030826,2.792526803190927],[3.3043200282301743,3.3043200282301743,3.3043200282301743,3.3043200282301743,3.3043200282301743,3.3043200282301743,3.490658503988659]],"response_history":["5"],"rt":45541,"trial_type":"polygon-arrow-question","trial_index":0,"trial_index_global":54,"time_elapsed":409595,"internal_chunk_id":"0-0.12-0"},{"nsides":9,"question":"What is 8 <img src=./images/nonagon_symbol.png style=width:14px;height:14px> 4? Please explain in words how you got your answer.","response_type":"free ","response_choices":[],"correct_response":"3","response":"3","explain":true,"explanation":"because 4 step clockwise from 8 is 3","explanation_history":["because 4 step clockwise from 4 is 5","because 4 step clockwise from 8 is 5","because 4 step clockwise from 8 is 3"],"orientation_history":[[0]],"response_history":["3"],"rt":21033,"trial_type":"polygon-arrow-question","trial_index":0,"trial_index_global":55,"time_elapsed":430635,"internal_chunk_id":"0-0.12-0"},{"nsides":9,"question":"What is the identity under <img src=./images/nonagon_symbol.png style=width:14px;height:14px>? Please explain in words how you got your answer.","response_type":"free","response_choices":[],"correct_response":"0","response":"4","explain":true,"explanation":"not sure","explanation_history":["not sure"],"orientation_history":[[0]],"response_history":["4"],"rt":14344,"trial_type":"polygon-arrow-question","trial_index":0,"trial_index_global":56,"time_elapsed":444987,"internal_chunk_id":"0- 0.12-0"},{"nsides":9,"question":"What is the inverse of 5 under <img src=./images/nonagon_symbol.png style=width:14px;height:14px>?","response_type":"free","response_choices":[],"correct_response":"4","response":"0","explain":false,"explanation":"","explanation_history":[],"orientation_history":[[0]],"response_history":["0"],"rt":9921,"trial_type":"polygon-arrow-question","trial_index":0,"trial_index_global":57,"time_elapsed":454912,"internal_chunk_id":"0-0.12-0"},{"nsides":9,"question":"What is the inverse of 2 under <img src=./images/nonagon_symbol.png style=width:14px;height:14px>?","response_type":"free","response_choices":[],"correct_response":"7","response":"1","explain":false,"explanation":"","explanation_history":[],"orientation_history":[[0]],"response_history":["1"],"rt":8285,"trial_type":"polygon-arrow-question","trial_index":0,"trial_index_global":58,"time_elapsed":463199,"internal_chunk_id":"0-0.12-0"},{"nsides":9,"question":"What is the inverse of 0 und er <img  src=./images/nonagon_symbol.png style=width:14px;height:14px>?","response_type":"free","response_choices":[],"correct_response":"0","response":"0","explain":false,"explanation":"","explanation_history":[],"orientation_history":[[0]],"response_history":["0"],"rt":2956,"trial_type":"polygon-arrow-question","trial_index":0,"trial_index_global":59,"time_elapsed":466164,"internal_chunk_id":"0-0.12-0"},{"nsides":9,"question":"What is the inverse of 3 under <img src=./images/nonagon_symbol.png style=width:14px;height:14px>? Please explain in words how you got your answer.","response_type":"free","response_choices":[],"correct_response":"6","response":"2","explain":true,"explanation":"not sure about this answer","explanation_history":["noi","not sure about this answer"],"orientation_history":[[0]],"response_history":["2"],"rt":15862,"trial_type":"polygon-arrow-question","trial_index":0,"trial_index_global":60,"time_elapsed":482028,"internal_chunk_id":"0-0.12-0"},{"nsides":9,"question":"Is 2 a generator under <img src=./images/nonagon_symbol.png style=width:14px;height:14px>? Please explain in words how you got your answer.","response_type":"multi","response_choices":["Yes","No"],"correct_response":"Yes","response":"No","explain":true,"explanation":"not sure about this answer","explanation_history":["not sure about this answer"],"orientation_history":[[0]],"response_history":["No"],"rt":15961,"trial_type":"polygon-arrow-question","trial_index":0,"trial_index_global":61,"time_elapsed":497991,"internal_chunk_id":"0-0.12-0"},{"nsides":9,"question":"Is 3 a generator under <img src=./images/nonagon_symbol.png style=width:14px;height:14px>? Please explain in words how you got your answer.","response_type":"multi","response_choices":["Yes","No"],"correct_response":"No","response":"No","explain":true,"explanation":"i don't know if this is correct","explanation_history":["i dont know if this is cforrec","i dont know if this is cforre","i  dont kno w if this is cforr","i dont know if this is cfor","i dont know if this is cfo","i dont know if this is cf","i dont know if this is correct","i don't know if this is correct"],"orientation_history":[[0]],"response_history":["No"],"rt":43815,"trial_type":"polygon-arrow-question","trial_index":0,"trial_index_global":62,"time_elapsed":541811,"internal_chunk_id":"0-0.12-0"},{"nsides":9,"question":"Is 5 a generator under <img src=./images/nonagon_symbol.png style=width:14px;height:14px>? Please explain in words how you got your answer.","response_type":"multi","response_choices":["Yes","No"],"correct_response":"Yes","response":"Yes","explain":true,"explanation":"i am not sure","explanation_history":["i am not sure"],"orientation_history":[[0]],"response_history":["Yes"],"rt":9811,"trial_type":"polygon-arrow-question","trial_index":0,"trial_index_global":63,"time_elapsed":551655,"internal_chunk_id":"0-0.12-0"},{"nsides":9,"question":"Is 6 a generator under <img src=./imag es/nonag on_symbol.png style=width:14px;height:14px>? Please explain in words how you got your answer.","response_type":"multi","response_choices":["Yes","No"],"correct_response":"No","response":"Yes","explain":true,"explanation":"i am not sure","explanation_history":["i am not sure"],"orientation_history":[[0]],"response_history":["Yes"],"rt":7894,"trial_type":"polygon-arrow-question","trial_index":0,"trial_index_global":64,"time_elapsed":559553,"internal_chunk_id":"0-0.12-0"},{"nsides":"n","instructions":"Now we'd like to ask you some questions about <img src=./images/ngon_symbol.png style=width:14px;height:14px>, where n could be any positive counting number. For example, n could be 3, and the polygon a triangle, or n could be any other counting number you can think of. If you need to write the operation, you can use (n), and your answers can include n to stand in for the arbitrary value if necessary. (You can use the polygon at the right to think, but it doesn't  necessa rily correspond to the real polygon, which is why we've left most of it dashed.)","orientation_history":[0],"rt":21556,"trial_type":"polygon-arrow-instructions","trial_index":0,"trial_index_global":65,"time_elapsed":581120,"internal_chunk_id":"0-0"},{"nsides":"n","question":"What is the formula for the inverse of 1 under <img src=./images/ngon_symbol.png style=width:14px;height:14px>?","response_type":"free","response_choices":[],"correct_response":"n-1","response":"0","explain":false,"explanation":"","explanation_history":[],"orientation_history":[[0]],"response_history":["0"],"rt":31673,"trial_type":"polygon-arrow-question","trial_index":0,"trial_index_global":66,"time_elapsed":612811,"internal_chunk_id":"0-0.14-0"},{"nsides":"n","question":"What is the formula for the inverse of an element x under <img src=./images/ngon_symbol.png style=width:14px;height:14px>? Please explain in words why your answer is correct.","response_type":"free","response_choices":[],"correct_response":"n-x","response":"i have no idea","explain":true,"explanation":"i have no idea","explanation_history":["u","i have no idea"],"orientation_history":[[0]],"response_history":["x-1","i have no idea"],"rt":30491,"trial_type":"polygon-arrow-question","trial_index":0,"trial_index_global":67,"time_elapsed":643305,"internal_chunk_id":"0-0.14-0"},{"nsides":"n","question":"Is there a pattern to which elements are generators? How can you know if an element x is a generator under <img src=./images/ngon_symbol.png style=width:14px;height:14px> without seeing whether it can make all the elements?.","response_type":"free","response_choices":[],"correct_response":"","response":"i dont know","explain":false,"explanation":"","explanation_history":[],"orientation_history":[[0]],"response_history":["i dont know"],"rt":11841,"trial_type":"polygon-arrow-question","trial_index":0,"trial_index_global":68,"time_elapsed":655153,"internal_chunk_id":"0-0.14-0"},{"nsides":"n","question":"Tr ue or false: If x is an odd number, it must be a generator under <img src=./images/ngon_symbol.png style=width:14px;height:14px>.","response_type":"multi","response_choices":["True","False"],"correct_response":"False","response":"True","explain":false,"explanation":"","explanation_history":[],"orientation_history":[[0]],"response_history":["True"],"rt":55710,"trial_type":"polygon-arrow-question","trial_index":0,"trial_index_global":69,"time_elapsed":710867,"internal_chunk_id":"0-0.14-0"},{"nsides":"n","question":"True or false: If x is an even number, it must not be a generator under <img src=./images/ngon_symbol.png style=width:14px;height:14px>.","response_type":"multi","response_choices":["True","False"],"correct_response":"False","response":"True","explain":false,"explanation":"","explanation_history":[],"orientation_history":[[0]],"response_history":["True"],"rt":8244,"trial_type":"polygon-arrow-question","trial_index":0,"trial_index_global":70,"time_elapsed":719151,"internal_chunk_id":"0-0.14-0"},{"nsides":"n","question":"True or false: If x is not a generator under <img src=./images/ngon_symbol.png style=width:14px;height:14px>, x must be a divisor of n, that is, x must divide n evenly, with no remainder.","response_type":"multi","response_choices":["True","False"],"correct_response":"False","response":"True","explain":false,"explanation":"","explanation_history":[],"orientation_history":[[0]],"response_history":["True"],"rt":4100,"trial_type":"polygon-arrow-question","trial_index":0,"trial_index_global":71,"time_elapsed":723255,"internal_chunk_id":"0-0.14-0"},{"nsides":"n","question":"True or false: If x is not a generator under <img src=./images/ngon_symbol.png style=width:14px;height:14px>, x must be a multiple of a divisor of n. Please explain in words how you got your answer.","response_type":"multi","response_choices":["True","False"],"correct_response":"True","response":"True","explain":true,"explanation":" i don't  understand this one","explanation_history":["i don't understand this one"],"orientation_history":[[0]],"response_history":["True"],"rt":36967,"trial_type":"polygon-arrow-question","trial_index":0,"trial_index_global":72,"time_elapsed":760225,"internal_chunk_id":"0-0.14-0"},{"nsides":"n","question":"If an element x is a generator under <img src=./images/ngon_symbol.png style=width:14px;height:14px>, is its inverse a generator under <img src=./images/ngon_symbol.png style=width:14px;height:14px> always, sometimes, or never?","response_type":"multi","response_choices":["Always","Sometimes","Never"],"correct_response":"Always","response":"Sometimes","explain":false,"explanation":"","explanation_history":[],"orientation_history":[[0]],"response_history":["Sometimes"],"rt":4470,"trial_type":"polygon-arrow-question","trial_index":0,"trial_index_global":73,"time_elapsed":764700,"internal_chunk_id":"0-0.14-0"},{"nsides":"n","question":"If an element x is a generator u nder <im g src=./images/ngon_symbol.png style=width:14px;height:14px>, is x <img src=./images/ngon_symbol.png style=width:14px;height:14px> x a generator under <img src=./images/ngon_symbol.png style=width:14px;height:14px> always, sometimes, or never? Please explain in words how you got your answer.","response_type":"multi","response_choices":["Always","Sometimes","Never"],"correct_response":"Sometimes","response":"Sometimes","explain":true,"explanation":"i don't understand this one","explanation_history":["i don't undert","i don't understand this one"],"orientation_history":[[0]],"response_history":["Sometimes"],"rt":9746,"trial_type":"polygon-arrow-question","trial_index":0,"trial_index_global":74,"time_elapsed":774449,"internal_chunk_id":"0-0.14-0"},{"nsides":"n","question":"If an element x is not a generator under <img src=./images/ngon_symbol.png style=width:14px;height:14px>, is x <img src=./images/ngon_symbol.png style=width:14px;height:1 4px> x  a generator under <img src=./images/ngon_symbol.png style=width:14px;height:14px> always, sometimes, or never?","response_type":"multi","response_choices":["Always","Sometimes","Never"],"correct_response":"Never","response":"Sometimes","explain":false,"explanation":"","explanation_history":[],"orientation_history":[[0]],"response_history":["Sometimes"],"rt":5745,"trial_type":"polygon-arrow-question","trial_index":0,"trial_index_global":75,"time_elapsed":780199,"internal_chunk_id":"0-0.14-0"},{"instructions":"We would like to ask you some questions about your background. Please press Continue to continue.","rt":2591,"trial_type":"instructions","trial_index":0,"trial_index_global":76,"time_elapsed":782796,"internal_chunk_id":"0-0.15-0"},{"question":"What is your age?","response_type":"free","response_choices":[],"correct_response":"","response":"25","explain":false,"explanation":"","explanation_history":[],"response_history":["25"],"rt":2314,"trial_type":"question ","trial_index":0,"trial_index_global":77,"time_elapsed":785117,"internal_chunk_id":"0-0.15-0"},{"question":"What is your level of education?","response_type":"multi","response_choices":["Did not graduate high school","High school diploma","Some college, no degree","Associates Degree","Bachelors Degree","Some graduate school, no degree","Masters Degree","Doctorate, M.D., etc."],"correct_response":"","response":"Associates Degree","explain":false,"explanation":"","explanation_history":[],"response_history":["Associates Degree"],"rt":3905,"trial_type":"question","trial_index":0,"trial_index_global":78,"time_elapsed":789035,"internal_chunk_id":"0-0.15-0"},{"question":"What is the most advanced math class you've completed? If you have multiple classes and you're not sure which one is most advanced, please list them.","response_type":"free","response_choices":[],"correct_response":"","response":"algebra","explain":false,"explanation":"","explanation_history":[],"response_history":["algeb ra"],"rt":51857,"trial_type":"question","trial_index":0,"trial_index_global":79,"time_elapsed":840898,"internal_chunk_id":"0-0.15-0"},{"question":"How familiar are you with the concept of modular arithmetic?","response_type":"multi","response_choices":["1 - never heard of it","2 - heard of it but didn't know what it was","3 - seen it used or explained","4 - used it but not often or recently","5 - used it, remember and understand it"],"correct_response":"1","response":"1 - never heard of it","explain":false,"explanation":"","explanation_history":[],"response_history":["1 - never heard of it"],"rt":4817,"trial_type":"question","trial_index":0,"trial_index_global":80,"time_elapsed":845717,"internal_chunk_id":"0-0.15-0"},{"question":"How familiar are you with the concept of a mathematical group?","response_type":"multi","response_choices":["1 - never heard of it","2 - heard of it but didn't know what it was","3 - seen it used or explained","4 - used it but not often or recently","5 - us ed it, r emember and understand it"],"correct_response":"1","response":"1 - never heard of it","explain":false,"explanation":"","explanation_history":[],"response_history":["1 - never heard of it"],"rt":5030,"trial_type":"question","trial_index":0,"trial_index_global":81,"time_elapsed":850750,"internal_chunk_id":"0-0.15-0"},{"question":"Do you feel you learned something from this HIT?","response_type":"multi","response_choices":["1 - not at all","2 - somewhat","3 - definitely"],"correct_response":"1","response":"2 - somewhat","explain":false,"explanation":"","explanation_history":[],"response_history":["2 - somewhat"],"rt":2805,"trial_type":"question","trial_index":0,"trial_index_global":82,"time_elapsed":853563,"internal_chunk_id":"0-0.15-0"},{"question":"Do you feel you understood the concepts in this HIT?","response_type":"multi","response_choices":["1 - not at all","2 - somewhat","3 - definitely"],"correct_response":"1","response":"2 - somewhat","explain":false,"explanation":"","explanation_history":[],"response_history":["2 - somewhat"],"rt":3130,"trial_type":"question","trial_index":0,"trial_index_global":83,"time_elapsed":856696,"internal_chunk_id":"0-0.15-0"},{"question":"Did you enjoy this HIT?","response_type":"multi","response_choices":["1 - not at all","2 - somewhat","3 - definitely"],"correct_response":"1","response":"2 - somewhat","explain":false,"explanation":"","explanation_history":[],"response_history":["2 - somewhat"],"rt":2741,"trial_type":"question","trial_index":0,"trial_index_global":84,"time_elapsed":859440,"internal_chunk_id":"0-0.15-0"},{"question":"What is your gender?","response_type":"multi","response_choices":["Female","Male","Other"],"correct_response":"","response":"Female","explain":false,"explanation":"","explanation_history":[],"response_history":["Female"],"rt":3123,"trial_type":"question","trial_index":0,"trial_index_global":85,"time_elapsed":862568,"internal_chunk_id":"0-0.15-0"},{"question":"What is/are your native languag e(s)? (T he languages spoken in your household when you were a child.)","response_type":"free","response_choices":[],"correct_response":"","response":"german","explain":false,"explanation":"","explanation_history":[],"response_history":["german"],"rt":7229,"trial_type":"question","trial_index":0,"trial_index_global":86,"time_elapsed":869800,"internal_chunk_id":"0-0.15-0"},{"question":"Did you use pen and paper at any point on this HIT?","response_type":"free","response_choices":[],"correct_response":"","response":"no","explain":false,"explanation":"","explanation_history":[],"response_history":["no"],"rt":4016,"trial_type":"question","trial_index":0,"trial_index_global":87,"time_elapsed":873818,"internal_chunk_id":"0-0.15-0"},{"question":"Do you have any comments on this HIT?","response_type":"free","response_choices":[],"correct_response":"","response":"nice survey, but i had difficulties with the last part of the study.","explain":false,"explanation":"","explanation_history":[],"response_history":["nice survey, but i had dificulties under","nice survey, but i had dificulties unde","nice survey, but i had dificulties und","nice survey, but i had dificulties un","nice survey, but i had dificulties u","nice survey, but i had dificulties ","nice survey, but i had dificulties","nice survey, but i had dificultie","nice survey, but i had dificulti","nice survey, but i had dificult","nice survey, but i had dificul","nice survey, but i had dificu","nice survey, but i had dific","nice survey, but i had difi","nice survey, but i had difficulties with the last part of the study."],"rt":28197,"trial_type":"question","trial_index":0,"trial_index_global":88,"time_elapsed":902017,"internal_chunk_id":"0-0.15-0"}]