[{"nsides":6,"instructions":"Let's define a new operation <img src=./images/hexagon_symbol.png style=width:14px;height:14px>. This operation will give us a way of combining two of the numbers 0, 1, 2, 3, 4, 5 to get another one of them back. To perform <img src=./images/hexagon_symbol.png style=width:14px;height:14px>, you can either use a method based on the hexagon at right, or a method based on arithmetic.<br /><b>Hexagon method:</b> you can use the interactive diagram on the right, or perform the operation in your mind. Point the arrow at the first number on the hexagon by clicking, then click (or click and drag) to move the arrow the second number of points clockwise around the hexagon. The number the arrow arrives at is your result. (The operation is called <img src=./images/hexagon_symbol.png style=width:14px;height:14px> because it uses the hexagon, which has 6 sides.) <br ><b>Arithmetic method:</b> you start with the first number, and then add  the sec ond one to it. If the sum is smaller than 6, that's your result. If the sum is 6 or bigger, you subtract 6 to get your result. <br /><br />For example, 3 <img src=./images/hexagon_symbol.png style=width:14px;height:14px> 5 = 2, because 5 steps clockwise from 3 on the hexagon brings us to 2. Equivalently, 3 + 5 = 8, and 8 is bigger than 6, so we subtract 6, and 8 - 6 = 2. So 3 <img src=./images/hexagon_symbol.png style=width:14px;height:14px> 5 = 2.<br /><br />Similarly, 1 <img src=./images/hexagon_symbol.png style=width:14px;height:14px> 4 = 5, because 1 + 4 = 5, and 5 is less than 6 so we leave it alone. Equivalently, 4 steps clockwise from 1 on the hexagon brings us to 5. <br /><br />Click Continue when you're ready to move on.","orientation_history":[0],"rt":75952,"trial_type":"polygon-arrow-instructions","trial_index":0,"trial_index_global":1,"time_elapsed":1041254,"internal_chunk_id":"0-0"},{"nsides":6,"instructions":"Do you see how the diffe rent way s of performing <img src=./images/hexagon_symbol.png style=width:14px;height:14px> give the same result? By labeling the points of the hexagon with the numbers from 0 to 5, we ensure that when we combine two numbers using the hexagon, we only produce numbers between 0 and 5. When we use the arithmetic strategy, adding the second number to the first mimics counting around the hexagon, and subtracting 6 each time we get above 5 makes sure the results correspond to the numbers on the points of the hexagon. <br /><br />Click Continue when you're ready to move on.","orientation_history":[0],"rt":16133,"trial_type":"polygon-arrow-instructions","trial_index":0,"trial_index_global":2,"time_elapsed":1057391,"internal_chunk_id":"0-0"},{"nsides":6,"question":"Now try one on your own! What is 4 <img src=./images/hexagon_symbol.png style=width:14px;height:14px> 5? <br /><br /> (Remember, to perform <img src=./images/hexagon_symbol.png style=width:14px;height:14p x>, yo u can either use a method based on the hexagon at right, or a method based on arithmetic.<br /><br /><b>Hexagon method:</b> you can use the interactive diagram on the right, or perform the operation in your mind. Point the arrow at the first number, then move the arrow the second number of points clockwise around the hexagon. The number the arrow arrives at is your result. <br /><br /><b>Arithmetic method:</b> you start with the first number, and then add the second one to it. If the sum is smaller than 6, that's your result. If the sum is 6 or bigger, you subtract 6 to get your result.)","response_type":"free","response_choices":[],"correct_response":"3","response":"3","explain":false,"explanation":"","explanation_history":[],"orientation_history":[[0],[0,0,-0.04758310327698334,-0.04758310327698334,-0.04758310327698334,-0.04758310327698334,-0.04758310327698334,-0.04758310327698334,-0.03243274740221369,-0.016823577206514173,-0.001461987262472153,-0.0007423903610137561,0,0.01582384868984854,0.031615967692468105,0.05046217401685582,0.08718818120074778,0.12912575279305316,0.17108584259695858,0.19739555984988066,0.24387369120088365,0.2680325587617829,0.2741674511196588,0.2994785002625071,0.3600484021806436,0.42577293855793164,0.5157331582149847,0.6094918324346701,0.6886743257044448,0.7542070344284701,0.7886187641786866,0.8748812344306526,0.9284539660345604,0.9827937232473292,0.9827937232473292,0.9827937232473292,0.9827937232473292,0.9827937232473292,0.9827937232473292,0.9827937232473292,0.9827937232473292,0.9827937232473292,0.9827937232473292,0.9827937232473292,0.9827937232473292,0.9827937232473292,0.9827937232473292,0.9827937232473292,0.9827937232473292,0.9827937232473292,0.9827937232473292,0.962049811229561,0.8600102308118199,0.7735141727997888,0.6271578389465693,0.4620091615319424,0.30540728454992716,0.09105663385717477,-0.04758310327698334,6.0800073759255735,5.913851649505961,5.822271799363275,5.738633599023549,5.651521148879796,5.600016497078052,5.529682285113362,5.467151570311559,5.409576002823782,5.349767928456304,5.299832612498021,5.249918315292133,5.187744640678879,5.137503012822295,5.065755502473801,5.001939833284943,4.932716299531046,4.88951704552235,4.838949814147124,4.790269518650366,4.753071515092515,4.725600432982496,4.7078826610314675,4.681898229505423,4.664805877107707,4.648140753393767,4.63148488122946,4.615259682516582,4.599325852184242,4.591168771807741,4.591168771807741,4.583683485006805,4.575612264515973,4.575612264515973,4.575612264515973,4.575612264515973,4.575612264515973,4.575612264515973,4.575612264515973,4.575612264515973,4.575612264515973,4.575612264515973,4.575612264515973,4.575612264515973,4.575612264515973,4.575612264515973,4.575612264515973,4.575612264515973,4.575612264515973,4.575612264515973,4.575612264515973,4.575612264515973,4.575612264515973,4.575612264515973,4.575612264515973,4.575612264515973,4.575612264515973,4.575612264515973,4.575612264515973,4.575612264515973,4.575612264515973,4.575612264515973,4.575612264515973,4.575612264515973,4.575612264515973,4.575612264515973,4.575612264515973,4.575612264515973,4.575612264515973,4.575612264515973,4.575612264515973,4.575612264515973,4.575612264515973,4.575612264515973,4.575612264515973,4.575612264515973,4.575612264515973,4.566760599813868,4.549615595415023,4.531153629790513,4.503818063336899,4.467410317257826,4.438653441374905,4.409256783166326,4.381710091808211,4.362443474724904,4.343055322711065,4.334745264698272,4.326482254598448,4.315284686117643,4.298885175465619,4.282689195429095,4.271355239178771,4.271355239178771,4.255368667581564,4.25189593505236,4.243933716117192,4.243933716117192,4.243933716117192,4.243933716117192,4.243933716117192,4.243933716117192,4.243933716117192,4.243933716117192,4.243933716117192,4.243933716117192,4.243933716117192,4.243933716117192,4.243933716117192,4.2245003313620835,4.216660902031917,4.2088801223481624,4.2088801223481624,4.2088801223481624,4.2088801223481624,4.2088801223481624,4.2088801223481624,4.2088801223481624,4.2088801223481624,4.2088801223481624,4.2088801223481624,4.2088801223481624,4.2088801223481624,4.2088801223481624,4.2088801223481624,4.2088801223481624,4.2088801223481624,4.2088801223481624,4.2088801223481624,4.2088801223481624,4.2088801223481624,4.2088801223481624,4.2088801223481624,4.2088801223481624,4.2088801223481624,4.2088801223481624,4.2088801223481624,4.23239810153717,4.256437859170475,4.280988253819137,4.294383191822131,4.311365646756034,4.337241434729222,4.354750695876753,4.408438184789906,4.482390470025196,4.568021832000232,4.674514309941815,4.780787861588031,4.8845025718489765,4.948227130255759,5.001048170569849,5.043637213910614,5.060286176574303,5.068525330987304,5.068525330987304,5.068525330987304,5.068525330987304,5.068525330987304,5.068525330987304,5.068525330987304,5.068525330987304,5.068525330987304,5.068525330987304,5.068525330987304,5.068525330987304,5.068525330987304,5.068525330987304,5.068525330987304,5.068525330987304,5.092895357497055,5.12448525296948,5.132406034695263,5.15993914057611,5.171904381500044,5.171904381500044,5.171904381500044,5.171904381500044,5.171904381500044,5.171904381500044,5.171904381500044,5.171904381500044,5.171904381500044,5.171904381500044,5.171904381500044,5.171904381500044,5.171904381500044,5.171904381500044,5.171904381500044,5.171904381500044,5.171904381500044,5.1960792909495215,5.24771946606344,5.321664969956318,5.40129203435596,5.493654935896686,5.577334236067879,5.65968360428425,5.727429586067274,5.77690504951064,5.821912990623739,5.852994989544802,5.8994641531170355,5.932031464578939,5.965276857523936,5.999146061702685,6.024508870679856,6.038206644052723,6.049544026753599,6.060930004894363,6.072361921117766,6.0838370485749,6.095352594265998,6.130112895377513,6.200732622347813,-0.01311400227747539,0.054335264203890565,0.10844173972406801,0.14115466424315026,0.14115466424315026,0.14115466424315026,0.14115466424315026,0.14115466424315026,0.14115466424315026,0.14115466424315026,0.14115466424315026,0.14115466424315026,0.14115466424315026,0.14115466424315026,0.14115466424315026,0.14115466424315026,0.14115466424315026,0.19739555984988066,0.3179351029149131,0.5273054979931088,0.7626033701577646,0.9564840059944069,1.0779121796302273,1.15534155310676,1.171168909202496,1.171168909202496,1.171168909202496,1.171168909202496,1.171168909202496,1.171168909202496,1.171168909202496,1.171168909202496,1.171168909202496,1.171168909202496,1.171168909202496,1.171168909202496,1.171168909202496,1.171168909202496,1.171168909202496,1.1801892830972098,1.271257929399277,1.4264291784104393,1.6359408351082907,1.8197590325876136,1.9313623272730025,1.9868608325187194,2.0423593377644362,2.0818125388614757,2.107083619180028,2.119412364815393,2.119412364815393,2.119412364815393,2.119412364815393,2.119412364815393,2.119412364815393,2.119412364815393,2.119412364815393,2.119412364815393,2.154756755769094,2.2268270062973654,2.319722040812969,2.641037692299459,2.881865797308334,3.00075563520803,3.066238913719389,3.087160342348875,3.087160342348875,3.087160342348875,3.087160342348875,3.087160342348875,3.087160342348875,3.087160342348875,3.087160342348875,3.087160342348875,3.087160342348875,3.087160342348875,3.087160342348875,3.087160342348875,3.087160342348875,3.087160342348875,3.087160342348875,3.087160342348875,3.087160342348875,3.087160342348875,3.087160342348875,3.0801215543818428,3.072885932147446,3.072885932147446,3.065648362606938,3.065648362606938,3.065648362606938,3.065648362606938,3.065648362606938,3.065648362606938,3.065648362606938,3.065648362606938,3.065648362606938,3.065648362606938,3.065648362606938,3.0650321564612484,3.064820762320015,3.07162522997352,3.086376110795317,3.086257767600603,3.1018834033369105,3.110137184156446,3.110137184156446,3.1183949594855283,3.1183949594855283,3.1183949594855283,3.126518418594834,3.1267846947168856,3.12705536733174,3.135308368682416,3.135308368682416,3.143555744903935,3.143555744903935,3.143555744903935,3.143555744903935,3.143555744903935,3.141592653589793]],"response_history":["3"],"rt":25122,"trial_type":"polygon-arrow-question","trial_index":0,"trial_index_global":3,"time_elapsed":1082517,"internal_chunk_id":"0-0.3-0"},{"nsides":6,"feedback":"Correct! 4 <img src=./images/hexagon_symbol.png style=width:14px;height:14px> 5 = 3 because 5 steps clockwise on the hexagon from 4 brings us to 3. Equivalently, 4 + 5 = 9 and 9 - 6 = 3.","orientation_history":[0],"rt":4254,"trial_type":"polygon-arrow-feedback","trial_index":0,"trial_index_global":4,"time_elapsed":1086774,"internal_chunk_id":"0-0.3-0"},{"nsides":6,"question":"What is 3 <img src=./images/hexagon_symbol.png style=width:14px;height:14px> 2? Try to solve this problem using the hexagon. <br /><br /> (Remember, to perform <img src=./images/hexagon_symbol.png style=width:14px;height:14px> on the hexagon, you can use the interactive diagram on the right, or perform the operation in your mind. Point the arrow at the first number on the  hexagon , and then move the arrow the second number of points clockwise around the hexagon.)","response_type":"free","response_choices":[],"correct_response":"5","response":"5","explain":false,"explanation":"","explanation_history":[],"orientation_history":[[0],[0,0,0,0,0,0,-6.153299686905983,-5.917345695384872,-5.56698342240072,-5.148520600100041,-4.888670512141563,-4.6935778854755315,-4.555253627859791,-4.462846743690581,-4.384177640076786,-4.308364747381084,-4.242961088940222,-4.189321317613406,-4.120844479015458,-4.04623802394525,-3.975806965262005,-3.9132512236077086,-3.8585619979263472,-3.7947542122468154,-3.70402621112077,-3.5907323519773215,-3.451598781548932,-3.245528313907121,-3.043280484260122,-2.8382346737535116,-2.662954496270913,-2.4887460224890186,-2.4210185293388298,-2.3816762298715894,-2.374076339567285,-2.374076339567285,-2.374076339567285,-2.374076339567285,-2.374076339567285,-2.374076339567285,-2.374076339567285,-2.374076339567285,-2.374076339567285,-2.374076339567285,-2.374076339567285,-2.374076339567285,-2.374076339567285,-2.374076339567285,-2.374076339567285,-2.374076339567285,-2.374076339567285,-2.3816762298715894,-2.3893648231548976,-2.3893648231548976,-2.3893648231548976,-2.3893648231548976,-2.3893648231548976,-2.3893648231548976,-2.3893648231548976,-2.3893648231548976,-2.3893648231548976,-2.3893648231548976,-2.3893648231548976,-2.3893648231548976,-2.3893648231548976,-2.3893648231548976,-2.3893648231548976,-2.3893648231548976,-2.3893648231548976,-2.3893648231548976,-2.3893648231548976,-2.3893648231548976,-2.3893648231548976,-2.3893648231548976,-2.3893648231548976,-2.3893648231548976,-2.3893648231548976,-2.3893648231548976,-2.3893648231548976,-2.3893648231548976,-2.3893648231548976,-2.3893648231548976,-2.3893648231548976,-2.3893648231548976,-2.3893648231548976,-2.3893648231548976,-2.3893648231548976,-2.3893648231548976,-2.3893648231548976,-2.3893648231548976,-2.3893648231548976,-2.3893648231548976,-2.3893648231548976,-2.3893648231548976,-2.3893648231548976,-2.3893648231548976,-2.3893648231548976,-2.3893648231548976,-2.3893648231548976,-2.3893648231548976,-2.3893648231548976,-2.3893648231548976,-2.3893648231548976,-2.3893648231548976,-2.3893648231548976,-2.3893648231548976,-2.3893648231548976,-2.3893648231548976,-2.3893648231548976,-2.3893648231548976,-2.3893648231548976,-2.3893648231548976,-2.3893648231548976,-2.3893648231548976,-2.3893648231548976,-2.3893648231548976,-2.397142756456722,-2.397142756456722,-2.4050106384671084,-2.4050106384671084,-2.4050106384671084,-2.4050106384671084,-2.4050106384671084,-2.4050106384671084,-2.4050106384671084,-2.4050106384671084,-2.4050106384671084,-2.4050106384671084,-2.4050106384671084,-2.4050106384671084,-2.4129690474889722,-2.429159595187729,-2.4541368418246066,-2.4799529447422595,-2.524860469119556,-2.5529347421412703,-2.5916732325878096,-2.621689537216864,-2.621689537216864,-2.621689537216864,-2.621689537216864,-2.621689537216864,-2.601588091054731,-2.547488430848698,-2.458269049710059,-2.3444500637548416,-2.230613004028364,-2.1364826105752117,-2.0593144286073075,-2.0124425964892447,-1.9682019298687177,-1.9414060365194326,-1.9193814567749952,-1.9193814567749952,-1.9193814567749952,-1.9193814567749952,-1.9193814567749952,-1.9193814567749952,-1.9193814567749952,-1.9193814567749952,-1.9193814567749952,-1.9193814567749952,-1.9193814567749952,-1.9193814567749952,-1.9193814567749952,-1.9193814567749952,-1.9193814567749952,-1.9460052799485252,-1.9643050671001534,-1.997049848361046,-2.01654303480995,-2.065683769225971,-2.112008219926577,-2.1414373309088495,-2.1562232760252265,-2.164235397410052,-2.164235397410052,-2.164235397410052,-2.164235397410052,-2.164235397410052,-2.164235397410052,-2.1398716869185934,-2.0103048859741808,-1.8697852142458382,-1.6252877830356276,-1.3074897772257357,-1.0598984485870266,-0.8900986419212904,-0.7822386162492068,-0.7223240455005362,-0.6813633619662207,-0.6615838067507971,-0.6487727550119962,-0.6420728298216369,-0.6420728298216369,-0.6420728298216369,-0.6420728298216369,-0.6420728298216369,-0.6420728298216369,-0.6420728298216369,-0.6420728298216369,-0.6420728298216369,-0.6420728298216369,-0.6420728298216369,-0.6747409422235524,-0.7440740759117608,-0.8246861127969973,-0.8777861594770178,-0.9874419699064116,-1.0539503032020008,-1.113853598161623,-1.1504361610785443,-1.1623360681465664,-1.1623360681465664,-1.1623360681465664,-1.1623360681465664,-1.1623360681465664,-1.1623360681465664,-1.1623360681465664,-1.1623360681465664,-1.1623360681465664,-1.1623360681465664,-1.1623360681465664,-1.1623360681465664,-1.1623360681465664,-1.1623360681465664,-1.1623360681465664,-1.1623360681465664,-1.1623360681465664,-1.1623360681465664,-1.1443408618789501,-1.1080947913055832,-1.0778565314422517,-1.060234809152882,-1.0565051803077354,-1.0565051803077354,-1.0565051803077354,-1.0565051803077354,-1.0565051803077354,-1.0565051803077354,-1.0565051803077354,-1.0565051803077354,-1.0565051803077354,5.235987755982988]],"response_history":["5"],"rt":18445,"trial_type":"polygon-arrow-question","trial_index":0,"trial_index_global":5,"time_elapsed":1105220,"internal_chunk_id":"0-0.3-0"},{"nsides":6,"feedback":"Correct! 3 <img src=./images/hexagon_symbol.png style=width:14px;height:14px> 2 = 5 because 2 steps clockwise on the hexagon from 3 brings us to 5. Equivalently, 3 + 2 = 5 and 5 is less than 6.","orientation_history":[0],"rt":2092,"trial_type":"polygon-arrow-feedback","trial_index":0,"trial_index_global":6,"time_elapsed":1107313,"internal_chunk_id":"0-0.3-0"},{"nsides":6,"question":"What is 1 <img src=./images/hexagon_symbol.png style=width:14px;height:14px> 5? Try to solve this probem using the arithmetic technique. <br /><br /> (Remember, to perform <img src=./images/hexagon_symbol.png style=width:14px;height:14px> by arithmetic, you start with the first number, and then add the second one to it. If the sum is smaller than 6, that's your result. If the sum is 6 or bigger, you subtract  6 to ge t your result.)","response_type":"free","response_choices":[],"correct_response":"0","response":"0","explain":false,"explanation":"","explanation_history":[],"orientation_history":[[0],[0,0,0,0.032704880519389024,0.1351207788462987,0.3159958591798311,0.5365380466965861,0.7526230189933725,0.9159891671016483,1.054895517573487,1.1497024642183549,1.2205624471361898,1.2706103852069472,1.3024762016699574,1.3024762016699574,1.3024762016699574,1.3024762016699574,1.3024762016699574,1.3024762016699574,1.3024762016699574,1.3024762016699574,1.3024762016699574,1.3024762016699574,1.3024762016699574,1.3024762016699574,1.3024762016699574,1.3024762016699574,1.3024762016699574,1.3024762016699574,1.3024762016699574,1.3024762016699574,1.3024762016699574,1.3024762016699574,1.3024762016699574,1.3024762016699574,1.2366759586807166,1.1837617597121546,1.1481033184599685,1.1248923501124193,1.09684170197584,1.085546292828754,1.085546292828754,1.085546292828754,1.085546292828754,1.085546292828754,1.085546292828754,1.085546292828754,1.085546292828754,1.085546292828754,1.085546292828754,1.085546292828754,1.085546292828754,1.085546292828754,1.085546292828754,1.085546292828754,1.085546292828754,1.085546292828754,1.085546292828754,1.085546292828754,1.085546292828754,1.085546292828754,1.085546292828754,1.085546292828754,1.085546292828754,1.085546292828754,1.085546292828754,1.085546292828754,1.085546292828754,1.0743735733900146,1.0576153658077772,1.0466029367965937,1.0466029367965937,1.0466029367965937,1.0466029367965937,1.0466029367965937,1.0466029367965937,1.0466029367965937,1.0466029367965937,1.0466029367965937,1.0466029367965937,1.0466029367965937,1.0466029367965937,1.0466029367965937,1.0466029367965937,1.0466029367965937,1.0466029367965937,1.0466029367965937,1.0466029367965937,1.0466029367965937,1.0466029367965937,1.0466029367965937,1.0466029367965937,1.0466029367965937,1.0466029367965937,1.0466029367965937,1.0466029367965937,1.0466029367965937,1.0466029367965937,1.0466029367965937,1.0466029367965937,1.0466029367965937,1.0466029367965937,1.0466029367965937,1.0466029367965937,1.0466029367965937,1.0466029367965937,1.0466029367965937,1.0466029367965937,1.0466029367965937,1.0466029367965937,1.0466029367965937,1.0466029367965937,1.0466029367965937,1.0466029367965937,1.0466029367965937,1.0466029367965937,1.0466029367965937,1.0466029367965937,1.0466029367965937,1.0466029367965937,1.0466029367965937,1.0466029367965937,1.0466029367965937,1.0466029367965937,1.0466029367965937,1.0466029367965937,1.0466029367965937,1.0466029367965937,1.0466029367965937,1.0466029367965937,1.0466029367965937,1.0466029367965937,1.0466029367965937,1.0466029367965937,1.0466029367965937,1.0466029367965937,1.0466029367965937,1.0466029367965937,1.0466029367965937,1.0466029367965937,1.0466029367965937,1.0466029367965937,1.0466029367965937,1.0466029367965937,1.0466029367965937,1.0466029367965937,1.0466029367965937,1.0466029367965937,1.0466029367965937,1.0466029367965937,1.0466029367965937,1.0466029367965937,1.0466029367965937,1.0466029367965937,1.0466029367965937,1.0466029367965937,1.0466029367965937,1.0466029367965937,1.0466029367965937,1.0466029367965937,1.0466029367965937,1.0466029367965937,1.0466029367965937,1.0466029367965937,1.0466029367965937,1.0466029367965937,1.0466029367965937,1.0466029367965937,1.0466029367965937,1.0466029367965937,1.0466029367965937,1.0466029367965937,1.0466029367965937,1.0466029367965937,1.0466029367965937,1.0466029367965937,1.0466029367965937,1.1792505121202486,1.3641199932529342,1.6168051433799646,1.797835552236659,1.896791852661393,1.9618887929206001,2.0113772242257357,2.025473817576697,2.025473817576697,2.025473817576697,2.025473817576697,2.025473817576697,2.025473817576697,2.025473817576697,2.025473817576697,2.025473817576697,2.025473817576697,2.025473817576697,2.025473817576697,2.025473817576697,2.025473817576697,2.025473817576697,2.044096145687162,2.0910526265414613,2.14619396083855,2.251082015249674,2.387162658320956,2.602642365565127,2.792684873214031,2.926007624806114,2.988434688385158,3.014609020840639,3.0224189598272706,3.0224189598272706,3.0224189598272706,3.0224189598272706,3.0224189598272706,3.0224189598272706,3.0224189598272706,3.0224189598272706,3.0224189598272706,3.0224189598272706,3.0224189598272706,3.0224189598272706,3.03806964143211,3.100817679845831,3.200228711045998,3.3163137356209202,3.5842755926408385,3.8024495911433593,3.9592127457427684,4.055590783003858,4.121839602958074,4.168057708810309,4.182080897075691,4.182080897075691,4.182080897075691,4.182080897075691,4.182080897075691,4.182080897075691,4.182080897075691,4.182080897075691,4.182080897075691,4.182080897075691,4.182080897075691,4.195491272955639,4.297634705882977,4.5020176686971265,4.746739724182715,4.928446044579761,5.034844698027296,5.0941207105654005,5.120972143289254,5.120972143289254,5.12738976198963,5.12738976198963,5.12738976198963,5.12738976198963,5.12738976198963,5.12738976198963,5.12738976198963,5.12738976198963,5.12738976198963,5.12738976198963,5.185307846914432,5.321559736074404,5.529250974819352,5.744961821901853,5.920573531249294,6.019804226515959,6.066085753875811,6.07428798894969,6.07428798894969,6.07428798894969,6.07428798894969,6.07428798894969,6.07428798894969,6.07428798894969,6.07428798894969,6.07428798894969,6.07428798894969,6.07428798894969,6.07428798894969,6.083899088383648,6.109679968785285,6.110827918851632,6.110827918851632,6.110827918851632,6.110827918851632,6.110827918851632,6.110827918851632,6.110827918851632,6.110827918851632,6.118941467088641,6.135219881082826,6.160489373740258,6.17736959747239,6.194018401849551,6.194018401849551,6.194018401849551,6.194018401849551,6.194018401849551,6.194018401849551,6.21043147565222,6.2184210787361955,6.226414769183641,6.226414769183641,6.226414769183641,6.226414769183641,6.226414769183641,6.226414769183641,6.226414769183641,6.226414769183641,6.226414769183641,6.226414769183641,6.226414769183641,6.226414769183641,6.226414769183641,6.226414769183641,6.226414769183641,6.226414769183641,6.226414769183641,6.226414769183641,6.226414769183641,6.283185307179586]],"response_history":["0"],"rt":11118,"trial_type":"polygon-arrow-question","trial_index":0,"trial_index_global":7,"time_elapsed":1118432,"internal_chunk_id":"0-0.3-0"},{"nsides":6,"feedback":"Correct! 1 <img src=./images/hexagon_symbol.png style=width:14px;height:14px> 5 = 0 because 1 + 5 = 6 and 6 - 6 = 0.  Equivalently, 5 steps clockwise on the hexagon from 1 brings us to 0.","orientation_history":[0],"rt":1995,"trial_type":"polygon-arrow-feedback","trial_index":0,"trial_index_global":8,"time_elapsed":1120428,"internal_chunk_id":"0-0.3-0"},{"nsides":6,"question":"What is 1 <img src=./images/hexagon_symbol.png style=width:14px;height:14px> 1? Try to solve this problem using the hexagon. <br /><br /> (Remember, to perform <img src=./images/hexagon_symbol.png style=width:14px;height:14px> on the hexagon, you can use the interactive diagram on the right, or  perform  the operation in your mind. Point the arrow at the first number on the hexagon, and then move the arrow the second number of points clockwise around the hexagon.)","response_type":"free","response_choices":[],"correct_response":"2","response":"2","explain":false,"explanation":"","explanation_history":[],"orientation_history":[[0],[0,0,0,0.04662356944182977,0.1457611801754375,0.33810423653541477,0.5748262065612444,0.875502597961372,1.0815903746236784,1.2507977659336942,1.3542244419571376,1.409613829652509,1.4234546798924457,1.4234546798924457,1.4234546798924457,1.4234546798924457,1.4234546798924457,1.4234546798924457,1.4234546798924457,1.4234546798924457,1.4234546798924457,1.4234546798924457,1.4234546798924457,1.4234546798924457,1.4234546798924457,1.4234546798924457,1.4234546798924457,1.4234546798924457,1.4234546798924457,1.4234546798924457,1.4234546798924457,1.4222914388506194,1.3184990983935765,1.1957486399525767,1.0391304142858147,0.9269541538947824,0.891947164404175,0.8719467061925577,0.8719467061925577,0.8719467061925577,0.8719467061925577,0.8719467061925577,0.8719467061925577,0.8719467061925577,0.8719467061925577,0.8719467061925577,0.8719467061925577,0.8719467061925577,0.8719467061925577,0.8719467061925577,0.8719467061925577,0.8719467061925577,0.8719467061925577,0.8719467061925577,0.8719467061925577,0.8719467061925577,0.8719467061925577,0.8892975446695687,0.9205934945601387,0.9439928635684198,0.9540355675396928,0.9540355675396928,0.9604686453425431,0.9604686453425431,0.9604686453425431,0.9604686453425431,0.9604686453425431,0.9604686453425431,0.9604686453425431,0.9604686453425431,0.9604686453425431,0.9604686453425431,0.9604686453425431,0.9604686453425431,0.9604686453425431,0.9604686453425431,0.9604686453425431,0.9604686453425431,0.9604686453425431,0.9604686453425431,0.9604686453425431,1.0778530722161497,1.4068830882151817,1.7440419932472615,1.9377834889707068,2.0169018757383004,2.0466490838516,2.0466490838516,2.0466490838516,2.0466490838516,2.0466490838516,2.0466490838516,2.0466490838516,2.0466490838516,2.0466490838516,2.0466490838516,2.0466490838516,2.0466490838516,2.0466490838516,2.0466490838516,2.0466490838516,2.0466490838516,2.0466490838516,2.0466490838516,2.0466490838516,2.0466490838516,2.0466490838516,2.0943951023931953]],"response_history":["2"],"rt":8067,"trial_type":"polygon-arrow-question","trial_index":0,"trial_index_global":9,"time_elapsed":1128497,"internal_chunk_id":"0-0.3-0"},{"nsides":6,"feedback":"Correct! 1 <img src=./images/hexagon_symbol.png style=width:14px;height:14px> 1 = 2 because 1 step clockwise on the hexagon from 1 brings us to 2. Equivalently, 1 + 1 = 2 and 2 is less than 6.","orientation_history":[0],"rt":7276,"trial_type":"polygon-arrow-feedback","trial_index":0,"trial_index_global":10,"time_elapsed":1135773,"internal_chunk_id":"0-0.3-0"},{"nsides":6,"question":"What is 3 <img src=./images/hexagon_symbol.png style=width:14px;height:14px> 0? Try to solve this problem using the ari thmetic  technique. <br /><br /> (Remember, to perform <img src=./images/hexagon_symbol.png style=width:14px;height:14px> using arithmetic, you start with the first number, and then add the second one to it. If the sum is smaller than 6, that's your result. If the sum is 6 or bigger, you subtract 6 to get your result.)","response_type":"free","response_choices":[],"correct_response":"3","response":"3","explain":false,"explanation":"","explanation_history":[],"orientation_history":[[0],[0,0,0,0.014740946935309474,0.11278622422914886,-5.920612764556882,-4.738441716317245,-3.5815709814754526,-3.2923432020193415,-3.1998922719576024,-3.1630086375895807,-3.1480125687676885,-3.1420789560316007,-3.124833545923218,-3.124833545923218,-3.124833545923218,-3.124833545923218,-3.124833545923218,-3.124833545923218,-3.124833545923218,-3.124833545923218,-3.124833545923218,-3.124833545923218,-3.124833545923218,-3.124833545923218,-3.124833545923218,-3.124833545923218,-3.124833545923218,-3.124833545923218,-3.124833545923218,-3.124833545923218,-3.124833545923218,-3.124833545923218,-3.124833545923218,3.141592653589793]],"response_history":["3"],"rt":11654,"trial_type":"polygon-arrow-question","trial_index":0,"trial_index_global":11,"time_elapsed":1147428,"internal_chunk_id":"0-0.3-0"},{"nsides":6,"feedback":"Correct! 3 <img src=./images/hexagon_symbol.png style=width:14px;height:14px> 0 = 3 because 3 + 0 = 3 and 3 - 6 = 3.  Equivalently, 0 steps clockwise on the hexagon from 3 brings us to 3.","orientation_history":[0],"rt":2259,"trial_type":"polygon-arrow-feedback","trial_index":0,"trial_index_global":12,"time_elapsed":1149688,"internal_chunk_id":"0-0.3-0"},{"nsides":6,"question":"What is 4 <img src=./images/hexagon_symbol.png style=width:14px;height:14px> 4? Try to solve this problem using the hexagon. <br /><br /> (Remember, to perform <img src=./images/hexagon_symbol.png style=width:14px;height:14px> on the hexagon, you can use the interactive diag ram on t he right, or perform the operation in your mind. Point the arrow at the first number on the hexagon, and then move the arrow the second number of points clockwise around the hexagon.)","response_type":"free","response_choices":[],"correct_response":"2","response":"2","explain":false,"explanation":"","explanation_history":[],"orientation_history":[[0],[0,0,0,0,0,-0.0005039052231596841,-0.0556837361648137,-0.1234722128615946,-0.2626759303846349,-0.4837229930596534,-0.7485010487529111,-1.0095175436474282,-1.4996740929287027,-1.7391160547115954,-1.8769231525710621,-1.948623236103356,-1.9898428133236647,-2.005398194435135,-2.018820207175226,-2.0365698222317237,-2.0515953515793024,-2.0600339698335466,-2.0675620584851577,-2.070417561860463,-2.073065580244811,-2.0767908952708067,-2.0767908952708067,-2.0767908952708067,-2.0767908952708067,-2.0767908952708067,-2.0767908952708067,-2.0767908952708067,-2.0767908952708067,-2.0767908952708067,-2.0767908952708067,-2.0767908952708067,-2.0767908952708067,-2.0767908952708067,-2.0767908952708067,-2.0718677369366967,-1.996096846333585,-1.9030609894544153,-1.767000145655838,-1.5870766626594426,-1.378099443395545,-1.2208440907654952,-1.1214306005803776,-1.0663202438466728,-1.0498824100750257,-1.0498824100750257,-1.0498824100750257,-1.0498824100750257,-1.0498824100750257,-1.0498824100750257,-1.0498824100750257,-1.0498824100750257,-1.0498824100750257,-1.0498824100750257,-1.0498824100750257,-1.0498824100750257,-1.0498824100750257,-1.0498824100750257,-1.0498824100750257,-1.0498824100750257,-1.0498824100750257,-1.0498824100750257,-1.0498824100750257,-1.0498824100750257,-1.0498824100750257,-1.0498824100750257,-1.0498824100750257,-1.0498824100750257,-1.0115273026412153,-0.9428504659468251,-0.9155853637210862,-0.60839932435628,-0.3689809862017368,-0.15475138204213934,-0.034838445396379036,-6.257853145725001,-6.248333179459403,-6.2387234216879905,-6.2387234216879905,-6.2387234216879905,-6.2387234216879905,-6.2387234216879905,-6.2387234216879905,-6.2387234216879905,-6.2387234216879905,-6.2387234216879905,-6.2387234216879905,-6.2387234216879905,-6.2387234216879905,-6.2387234216879905,-6.2387234216879905,-6.2387234216879905,-6.2387234216879905,-6.2387234216879905,-6.2387234216879905,-6.2387234216879905,-6.180404304004826,-6.074134251848262,-5.9288634943560625,-5.719537662134832,-5.497313771036431,-5.35246087800575,-5.260513852182983,-5.232322553722009,-5.232322553722009,-5.232322553722009,-5.232322553722009,-5.232322553722009,-5.232322553722009,-5.232322553722009,-5.232322553722009,-5.232322553722009,-5.232322553722009,-5.232322553722009,-5.232322553722009,-5.232322553722009,-5.224156173297706,-5.084665209492146,-4.801642190494447,-4.543341330185368,-4.458929324306762,-4.336909983220449,-4.281273155823323,-4.24892660230298,-4.24892660230298,-4.24892660230298,-4.24892660230298,-4.24892660230298,-4.24892660230298,-4.24892660230298,-4.24892660230298,-4.24892660230298,-4.24892660230298,-4.24892660230298,-4.24892660230298,-4.24892660230298,-4.24892660230298,-4.24892660230298,-4.24892660230298,-4.24892660230298,-4.24892660230298,-4.24892660230298,-4.24892660230298,2.0943951023931953]],"response_history":["2"],"rt":7627,"trial_type":"polygon-arrow-question","trial_index":0,"trial_index_global":13,"time_elapsed":1157316,"internal_chunk_id":"0-0.3-0"},{"nsides":6,"feedback":"Correct! 4 <img src=./images/hexagon_symbol.png style=width:14px;height:14px> 4 = 2 because 4 steps clockwise on the hexagon from 4 brings us to 2. Equivalently, 4 + 4 = 8 and 8 - 6 = 2.","orientation_history":[0],"rt":1606,"trial_type":"polygon-arrow-feedback","trial_index":0,"trial_index_global":14,"time_elapsed":1158923,"internal_chunk_id":"0-0.3-0"},{"nsides":6,"question":"What is 1 <img src=./images/hexagon_symbol.png style=width:14px;height:14px> 3? Try to solve this problem using the arithmetic technique. <br /><br /> (Remember, to perform <img src=./images/hexagon_symbol.png style=width:14px;height:1 4px> b y arithmetic, you start with the first number, and then add the second one to it. If the sum is smaller than 6, that's your result. If the sum is 6 or bigger, you subtract 6 to get your result.)","response_type":"free","response_choices":[],"correct_response":"4","response":"4","explain":false,"explanation":"","explanation_history":[],"orientation_history":[[0]],"response_history":["4"],"rt":5898,"trial_type":"polygon-arrow-question","trial_index":0,"trial_index_global":15,"time_elapsed":1164823,"internal_chunk_id":"0-0.3-0"},{"nsides":6,"feedback":"Correct! 1 <img src=./images/hexagon_symbol.png style=width:14px;height:14px> 3 = 4 because 1 + 3 = 4 and 4 - 6 = 4.  Equivalently, 3 steps clockwise on the hexagon from 1 brings us to 4.","orientation_history":[0],"rt":897,"trial_type":"polygon-arrow-feedback","trial_index":0,"trial_index_global":16,"time_elapsed":1165720,"internal_chunk_id":"0-0.3-0"},{"nsides":6,"question":"What is 4 <img src=./images/hexagon_symbol. png st yle=width:14px;height:14px> 3? <br /><br /> (Remember, to perform <img src=./images/hexagon_symbol.png style=width:14px;height:14px>, you can either use a method based on the hexagon at right, or a method based on arithmetic.<br /><br /><b>Hexagon method:</b> you can use the interactive diagram on the right, or perform the operation in your mind. Point the arrow at the first number, then move the arrow the second number of points clockwise around the hexagon. The number the arrow arrives at is your result. <br /><br /><b>Arithmetic method:</b> you start with the first number, and then add the second one to it. If the sum is smaller than 6, that's your result. If the sum is 6 or bigger, you subtract 6 to get your result.)","response_type":"free","response_choices":[],"correct_response":"1","response":"1","explain":false,"explanation":"","explanation_history":[],"orientation_history":[[0]],"response_history":["1"],"rt":9195,"trial_type":"polygon-arrow-question","trial_index":0,"trial_index_global":17,"time_elapsed":1174916,"internal_chunk_id":"0-0.3-0"},{"nsides":6,"feedback":"Correct! 4 <img src=./images/hexagon_symbol.png style=width:14px;height:14px> 3 = 1 because 3 steps clockwise on the hexagon from 4 brings us to 1. Equivalently, 4 + 3 = 7 and 7 - 6 = 1.","orientation_history":[0],"rt":1557,"trial_type":"polygon-arrow-feedback","trial_index":0,"trial_index_global":18,"time_elapsed":1176474,"internal_chunk_id":"0-0.3-0"},{"nsides":6,"question":"What is 0 <img src=./images/hexagon_symbol.png style=width:14px;height:14px> 5? <br /><br /> (Remember, to perform <img src=./images/hexagon_symbol.png style=width:14px;height:14px>, you can either use a method based on the hexagon at right, or a method based on arithmetic.<br /><br /><b>Hexagon method:</b> you can use the interactive diagram on the right, or perform the operation in your mind. Point the arrow at the first number, then move the arrow the second number of po ints clo ckwise around the hexagon. The number the arrow arrives at is your result. <br /><br /><b>Arithmetic method:</b> you start with the first number, and then add the second one to it. If the sum is smaller than 6, that's your result. If the sum is 6 or bigger, you subtract 6 to get your result.)","response_type":"free","response_choices":[],"correct_response":"5","response":"5","explain":false,"explanation":"","explanation_history":[],"orientation_history":[[0]],"response_history":["5"],"rt":8050,"trial_type":"polygon-arrow-question","trial_index":0,"trial_index_global":19,"time_elapsed":1184525,"internal_chunk_id":"0-0.3-0"},{"nsides":6,"feedback":"Correct! 0 <img src=./images/hexagon_symbol.png style=width:14px;height:14px> 5 = 5 because 5 steps clockwise on the hexagon from 0 brings us to 5. Equivalently, 0 + 5 = 5 and 5 is less than 6.","orientation_history":[0],"rt":1164,"trial_type":"polygon-arrow-feedback","trial_index":0,"trial_index_global":20,"time_elapsed":1185689,"internal_chunk_id":"0-0.3-0"},{"nsides":6,"question":"What is 2 <img src=./images/hexagon_symbol.png style=width:14px;height:14px> 5? <br /><br /> (Remember, to perform <img src=./images/hexagon_symbol.png style=width:14px;height:14px>, you can either use a method based on the hexagon at right, or a method based on arithmetic.<br /><br /><b>Hexagon method:</b> you can use the interactive diagram on the right, or perform the operation in your mind. Point the arrow at the first number, then move the arrow the second number of points clockwise around the hexagon. The number the arrow arrives at is your result. <br /><br /><b>Arithmetic method:</b> you start with the first number, and then add the second one to it. If the sum is smaller than 6, that's your result. If the sum is 6 or bigger, you subtract 6 to get your result.)","response_type":"free","response_choices":[],"correct_response":"1","response":"1","explain":false,"explanation":"","explanation_history":[],"orientation_history":[[0]],"response_history":["1"],"rt":9812,"trial_type":"polygon-arrow-question","trial_index":0,"trial_index_global":21,"time_elapsed":1195503,"internal_chunk_id":"0-0.3-0"},{"nsides":6,"feedback":"Correct! 2 <img src=./images/hexagon_symbol.png style=width:14px;height:14px> 5 = 1 because 5 steps clockwise on the hexagon from 2 brings us to 1. Equivalently, 2 + 5 = 7 and 7 - 6 = 1.","orientation_history":[0],"rt":1035,"trial_type":"polygon-arrow-feedback","trial_index":0,"trial_index_global":22,"time_elapsed":1196539,"internal_chunk_id":"0-0.3-0"},{"nsides":6,"instructions":"Now we're going to discuss a couple special properties of this new operation, <img src=./images/hexagon_symbol.png style=width:14px;height:14px> that we've learned. First, notice that the number 0 behaves in a special way under <img src=./images/hexagon_symbol.png style=width:14px;height:14px>. Whenever we combine 0 with anything else, we get that same thing back. W e'll say  that 0 is the <i>identity</i> under <img src=./images/hexagon_symbol.png style=width:14px;height:14px>, because when you combine it with something it gives you that identical thing back.","orientation_history":[0],"rt":139093,"trial_type":"polygon-arrow-instructions","trial_index":0,"trial_index_global":23,"time_elapsed":1335635,"internal_chunk_id":"0-0"},{"nsides":6,"instructions":"Now that we know 0 is the identity under <img src=./images/hexagon_symbol.png style=width:14px;height:14px>, we're going to make a new definition. We'll say that the <i>inverse</i> of a number is the element that you combine with it to produce the identity. For example, 5 <img src=./images/hexagon_symbol.png style=width:14px;height:14px> 1 = 0, so we say 1 is the inverse of 5 under <img src=./images/hexagon_symbol.png style=width:14px;height:14px>, (remember 0 is the identity under <img src=./images/hexagon_symbol.png style=width:14px;height:14px>). Simila rly, 3 i s its own inverse under <img src=./images/hexagon_symbol.png style=width:14px;height:14px>, because 3 <img src=./images/hexagon_symbol.png style=width:14px;height:14px> 3 = 0.","orientation_history":[0],"rt":79573,"trial_type":"polygon-arrow-instructions","trial_index":0,"trial_index_global":24,"time_elapsed":1415209,"internal_chunk_id":"0-0"},{"nsides":6,"question":"Now you try! What is the inverse of 4 under <img src=./images/hexagon_symbol.png style=width:14px;height:14px>? <br /><br /> (Remember, the inverse of an element is the thing which you combine with it to produce the identity.)","response_type":"free","response_choices":[],"correct_response":"2","response":"2","explain":false,"explanation":"","explanation_history":[],"orientation_history":[[0]],"response_history":["2"],"rt":6702,"trial_type":"polygon-arrow-question","trial_index":0,"trial_index_global":25,"time_elapsed":1421913,"internal_chunk_id":"0-0.7-0"},{"nsides":6,"feedback":"Correct ! The in verse of 4 under <img src=./images/hexagon_symbol.png style=width:14px;height:14px> is 2 because 4 <img src=./images/hexagon_symbol.png style=width:14px;height:14px> 2 = 0, and 0 is the identity under <img src=./images/hexagon_symbol.png style=width:14px;height:14px>.","orientation_history":[0],"rt":841,"trial_type":"polygon-arrow-feedback","trial_index":0,"trial_index_global":26,"time_elapsed":1422754,"internal_chunk_id":"0-0.7-0"},{"nsides":6,"question":"What is the inverse of 1 under <img src=./images/hexagon_symbol.png style=width:14px;height:14px>? <br /><br /> (Remember, the inverse of an element is the thing which you combine with it to produce the identity.)","response_type":"free","response_choices":[],"correct_response":"5","response":"5","explain":false,"explanation":"","explanation_history":[],"orientation_history":[[0]],"response_history":["5"],"rt":3535,"trial_type":"polygon-arrow-question","trial_index":0,"trial_index_global":27,"time_elapsed":1426289,"internal_chunk_id":"0-0.7-0"},{"nsides":6,"feedback":"Correct! The inverse of 1 under <img src=./images/hexagon_symbol.png style=width:14px;height:14px> is 5 because 1 <img src=./images/hexagon_symbol.png style=width:14px;height:14px> 5 = 0, and 0 is the identity under <img src=./images/hexagon_symbol.png style=width:14px;height:14px>.","orientation_history":[0],"rt":863,"trial_type":"polygon-arrow-feedback","trial_index":0,"trial_index_global":28,"time_elapsed":1427153,"internal_chunk_id":"0-0.7-0"},{"nsides":6,"question":"What is the inverse of 3 under <img src=./images/hexagon_symbol.png style=width:14px;height:14px>? <br /><br /> (Remember, the inverse of an element is the thing which you combine with it to produce the identity.)","response_type":"free","response_choices":[],"correct_response":"3","response":"3","explain":false,"explanation":"","explanation_history":[],"orientation_history":[[0]],"response_history":["3"],"rt":2906,"trial_type":"polygon-arrow-question","trial_index":0,"trial_index_global":29,"time_elapsed":1430060,"internal_chunk_id":"0-0.7-0"},{"nsides":6,"feedback":"Correct! The inverse of 3 under <img src=./images/hexagon_symbol.png style=width:14px;height:14px> is 3 because 3 <img src=./images/hexagon_symbol.png style=width:14px;height:14px> 3 = 0, and 0 is the identity under <img src=./images/hexagon_symbol.png style=width:14px;height:14px>.","orientation_history":[0],"rt":869,"trial_type":"polygon-arrow-feedback","trial_index":0,"trial_index_global":30,"time_elapsed":1430930,"internal_chunk_id":"0-0.7-0"},{"nsides":6,"question":"What is the inverse of 2 under <img src=./images/hexagon_symbol.png style=width:14px;height:14px>? <br /><br /> (Remember, the inverse of an element is the thing which you combine with it to produce the identity.)","response_type":"free","response_choices":[],"correct_response":"4","response":"4","explain":false,"explanation":"","explanation_history":[],"orientation_history":[[0]],"response_history":["4"],"rt":3110,"trial_type":"polygon-arrow-question","trial_index":0,"trial_index_global":31,"time_elapsed":1434040,"internal_chunk_id":"0-0.7-0"},{"nsides":6,"feedback":"Correct! The inverse of 2 under <img src=./images/hexagon_symbol.png style=width:14px;height:14px> is 4 because 2 <img src=./images/hexagon_symbol.png style=width:14px;height:14px> 4 = 0, and 0 is the identity under <img src=./images/hexagon_symbol.png style=width:14px;height:14px>.","orientation_history":[0],"rt":806,"trial_type":"polygon-arrow-feedback","trial_index":0,"trial_index_global":32,"time_elapsed":1434847,"internal_chunk_id":"0-0.7-0"},{"nsides":6,"question":"What is the inverse of 0 under <img src=./images/hexagon_symbol.png style=width:14px;height:14px>? <br /><br /> (Remember, the inverse of an element is the thing which you combine with it to produce the identity.)","response_type":"free","response_choices":[],"correct_response":"0","response":"0","explain":false,"explanation":"","explanation_history":[],"orientation_history":[[0]],"response_history":["0"],"rt":5337,"trial_type":"polygon-arrow-question","trial_index":0,"trial_index_global":33,"time_elapsed":1440184,"internal_chunk_id":"0-0.7-0"},{"nsides":6,"feedback":"Correct! The inverse of 0 under <img src=./images/hexagon_symbol.png style=width:14px;height:14px> is 0 because 0 <img src=./images/hexagon_symbol.png style=width:14px;height:14px> 0 = 0, and 0 is the identity under <img src=./images/hexagon_symbol.png style=width:14px;height:14px>.","orientation_history":[0],"rt":1512,"trial_type":"polygon-arrow-feedback","trial_index":0,"trial_index_global":34,"time_elapsed":1441696,"internal_chunk_id":"0-0.7-0"},{"nsides":6,"instructions":"It is also possible to successively apply <img src=./images/hexagon_symbol.png style=width:14px;height:14px>, and the operation can simply be perfo rmed sta rting with the left-most pair. For example, 2 <img src=./images/hexagon_symbol.png style=width:14px;height:14px> 3 <img src=./images/hexagon_symbol.png style=width:14px;height:14px> 4 = 5 <img src=./images/hexagon_symbol.png style=width:14px;height:14px> 4 = 3.","orientation_history":[0],"rt":83778,"trial_type":"polygon-arrow-instructions","trial_index":0,"trial_index_global":35,"time_elapsed":1525475,"internal_chunk_id":"0-0"},{"nsides":6,"instructions":"We have one last definition to learn today, using the successive operations we just learned. Let's start with an example. Under our operation <img src=./images/hexagon_symbol.png style=width:14px;height:14px> we can make every other number using just 1: 2 = 1 <img src=./images/hexagon_symbol.png style=width:14px;height:14px> 1, 3 = 1 <img src=./images/hexagon_symbol.png style=width:14px;height:14px> 1 <img src=./images/hexagon_symbol.png style=width:14px;height:14px> 1 , 4 = 1  <img src=./images/hexagon_symbol.png style=width:14px;height:14px> 1 <img src=./images/hexagon_symbol.png style=width:14px;height:14px> 1 <img src=./images/hexagon_symbol.png style=width:14px;height:14px> 1, 5 = 1 <img src=./images/hexagon_symbol.png style=width:14px;height:14px> 1 <img src=./images/hexagon_symbol.png style=width:14px;height:14px> 1 <img src=./images/hexagon_symbol.png style=width:14px;height:14px> 1 <img src=./images/hexagon_symbol.png style=width:14px;height:14px> 1, and 0 = 1 <img src=./images/hexagon_symbol.png style=width:14px;height:14px> 1 <img src=./images/hexagon_symbol.png style=width:14px;height:14px> 1 <img src=./images/hexagon_symbol.png style=width:14px;height:14px> 1 <img src=./images/hexagon_symbol.png style=width:14px;height:14px> 1 <img src=./images/hexagon_symbol.png style=width:14px;height:14px> 1. Because 1 can make every other element under < img src= ./images/hexagon_symbol.png style=width:14px;height:14px>, we say that 1 is a <i>generator</i> under <img src=./images/hexagon_symbol.png style=width:14px;height:14px>. <br /><br /> However, 2 is not a generator under <img src=./images/hexagon_symbol.png style=width:14px;height:14px>, because 4 = 2 <img src=./images/hexagon_symbol.png style=width:14px;height:14px> 2, and 0 = 2 <img src=./images/hexagon_symbol.png style=width:14px;height:14px> 2 <img src=./images/hexagon_symbol.png style=width:14px;height:14px> 2, but there is no way to make 1, 3, or 5 using just 2.","orientation_history":[0],"rt":52482,"trial_type":"polygon-arrow-instructions","trial_index":0,"trial_index_global":36,"time_elapsed":1577958,"internal_chunk_id":"0-0"},{"nsides":6,"question":"Now you try! Is 3 a generator under <img src=./images/hexagon_symbol.png style=width:14px;height:14px>? <br /><br /> (Remember, a generator is an element which can mak e every  other element.)","response_type":"multi","response_choices":["Yes","No"],"correct_response":"No","response":"No","explain":false,"explanation":"","explanation_history":[],"orientation_history":[[0]],"response_history":["No"],"rt":30047,"trial_type":"polygon-arrow-question","trial_index":0,"trial_index_global":37,"time_elapsed":1608006,"internal_chunk_id":"0-0.10-0"},{"nsides":6,"feedback":"Correct! 3 is not a generator under <img src=./images/hexagon_symbol.png style=width:14px;height:14px>, because 3 = 3, 0 = 3 <img src=./images/hexagon_symbol.png style=width:14px;height:14px> 3, but there is no way to make 1, 2, 4, or 5 using just 3.","orientation_history":[0],"rt":2897,"trial_type":"polygon-arrow-feedback","trial_index":0,"trial_index_global":38,"time_elapsed":1610905,"internal_chunk_id":"0-0.10-0"},{"nsides":6,"question":"Is 5 a generator under <img src=./images/hexagon_symbol.png style=width:14px;height:14px>? <br /><br /> (Remember, a generator  is an el ement which can make every other element.)","response_type":"multi","response_choices":["Yes","No"],"correct_response":"Yes","response":"Yes","explain":false,"explanation":"","explanation_history":[],"orientation_history":[[0]],"response_history":["Yes"],"rt":17844,"trial_type":"polygon-arrow-question","trial_index":0,"trial_index_global":39,"time_elapsed":1628749,"internal_chunk_id":"0-0.10-0"},{"nsides":6,"feedback":"Correct! 5 is a generator under <img src=./images/hexagon_symbol.png style=width:14px;height:14px>, because 5 = 5, 4 = 5 <img src=./images/hexagon_symbol.png style=width:14px;height:14px> 5, 3 = 5 <img src=./images/hexagon_symbol.png style=width:14px;height:14px> 5 <img src=./images/hexagon_symbol.png style=width:14px;height:14px> 5, 2 = 5 <img src=./images/hexagon_symbol.png style=width:14px;height:14px> 5 <img src=./images/hexagon_symbol.png style=width:14px;height:14px> 5 <img src=./images/hexagon_symbol.png  style =width:14px;height:14px> 5, 1 = 5 <img src=./images/hexagon_symbol.png style=width:14px;height:14px> 5 <img src=./images/hexagon_symbol.png style=width:14px;height:14px> 5 <img src=./images/hexagon_symbol.png style=width:14px;height:14px> 5 <img src=./images/hexagon_symbol.png style=width:14px;height:14px> 5, and 0 = 5 <img src=./images/hexagon_symbol.png style=width:14px;height:14px> 5 <img src=./images/hexagon_symbol.png style=width:14px;height:14px> 5 <img src=./images/hexagon_symbol.png style=width:14px;height:14px> 5 <img src=./images/hexagon_symbol.png style=width:14px;height:14px> 5 <img src=./images/hexagon_symbol.png style=width:14px;height:14px> 5, so you can make all of the numbers under <img src=./images/hexagon_symbol.png style=width:14px;height:14px> using 5","orientation_history":[0],"rt":7493,"trial_type":"polygon-arrow-feedback","trial_index":0,"trial_index_global":40,"time_elapsed":1636243,"internal_chunk_id":"0-0.10-0"},{"nsides":6,"question":"Is 4 a generator under <img src=./images/hexagon_symbol.png style=width:14px;height:14px>? <br /><br /> (Remember, a generator is an element which can make every other element.)","response_type":"multi","response_choices":["Yes","No"],"correct_response":"No","response":"No","explain":false,"explanation":"","explanation_history":[],"orientation_history":[[0]],"response_history":["No"],"rt":49437,"trial_type":"polygon-arrow-question","trial_index":0,"trial_index_global":41,"time_elapsed":1685680,"internal_chunk_id":"0-0.10-0"},{"nsides":6,"feedback":"Correct! 4 is not a generator under <img src=./images/hexagon_symbol.png style=width:14px;height:14px>, because 4 = 4, 2 = 4 <img src=./images/hexagon_symbol.png style=width:14px;height:14px> 4, and 0 = 4 <img src=./images/hexagon_symbol.png style=width:14px;height:14px> 4 <img src=./images/hexagon_symbol.png style=width:14px;heig ht:14px> 4, but there is no way to make 1, 3, or 5 using just 4.","orientation_history":[0],"rt":1410,"trial_type":"polygon-arrow-feedback","trial_index":0,"trial_index_global":42,"time_elapsed":1687091,"internal_chunk_id":"0-0.10-0"},{"nsides":6,"question":"Is 0 a generator under <img src=./images/hexagon_symbol.png style=width:14px;height:14px>? <br /><br /> (Remember, a generator is an element which can make every other element.)","response_type":"multi","response_choices":["Yes","No"],"correct_response":"No","response":"No","explain":false,"explanation":"","explanation_history":[],"orientation_history":[[0]],"response_history":["No"],"rt":3685,"trial_type":"polygon-arrow-question","trial_index":0,"trial_index_global":43,"time_elapsed":1690777,"internal_chunk_id":"0-0.10-0"},{"nsides":6,"feedback":"Correct! 0 is not a generator under <img src=./images/hexagon_symbol.png style=width:14px;height:14px>, because 0 = 0, but there is no way to make 1, 2, 3, 4, or 5 us ing just  0.","orientation_history":[0],"rt":2268,"trial_type":"polygon-arrow-feedback","trial_index":0,"trial_index_global":44,"time_elapsed":1693046,"internal_chunk_id":"0-0.10-0"},{"nsides":9,"instructions":"Now we are going to ask you some questions about a new operation, <img src=./images/nonagon_symbol.png style=width:14px;height:14px>, on the numbers 0, 1, 2, 3, 4, 5, 6, 7, 8. It works exactly like <img src=./images/hexagon_symbol.png style=width:14px;height:14px>, except now you use the nonagon shown at the right. Equivalently, after adding the two numbers you subtract 9 if your result is 9 or greater.<br /><br />Do you see how the different ways of performing <img src=./images/nonagon_symbol.png style=width:14px;height:14px> give the same result, just like with <img src=./images/hexagon_symbol.png style=width:14px;height:14px>? By labeling the points of the nonagon with the numbers from 0 to 8, we ensure that when we combine two numbers under  <img src =./images/nonagon_symbol.png style=width:14px;height:14px>, we only produce numbers between 0 and 8. When we use the arithmetic strategy, adding the second number to the first mimics counting around the nonagon, and subtracting 9 each time we get above 8 makes sure the results correspond to the numbers on the points of the nonagon.<br /><br />We'll give you one practice question with feedback to make sure you understand the new operation. After that, try to complete the remaining questions as accurately as possible.","orientation_history":[0],"rt":63959,"trial_type":"polygon-arrow-instructions","trial_index":0,"trial_index_global":45,"time_elapsed":1757006,"internal_chunk_id":"0-0"},{"nsides":9,"question":"Practice: What is 5 <img src=./images/nonagon_symbol.png style=width:14px;height:14px> 5?","response_type":"free","response_choices":[],"correct_response":"1","response":"1","explain":false,"explanation":"","explanation_history":[],"orientation_history":[[0],[0.6096598667120815,0.6096598667120815,0.6096598667120815,0.6096598667120815,0.6096598667120815,0.6096598667120815,0.6202494859828214,0.6306812983203838,0.6981317007977318]],"response_history":["1"],"rt":7007,"trial_type":"polygon-arrow-question","trial_index":0,"trial_index_global":46,"time_elapsed":1764014,"internal_chunk_id":"0-0.12-0"},{"nsides":9,"feedback":"Correct! 5 <img src=./images/nonagon_symbol.png style=width:14px;height:14px> 5 = 1 because 5 steps clockwise on the nonagon from 5 brings us to 1. Equivalently, 5 + 5 = 10 and 10 - 9 = 1.","orientation_history":[0],"rt":1556,"trial_type":"polygon-arrow-feedback","trial_index":0,"trial_index_global":47,"time_elapsed":1765571,"internal_chunk_id":"0-0.12-0"},{"nsides":9,"question":"What is 3 <img src=./images/nonagon_symbol.png style=width:14px;height:14px> 3?","response_type":"free","response_choices":[],"correct_response":"6","response":"6","explain":false,"explanation":"","explanation_history":[],"orientation_history":[[0]],"response_history":["6"],"rt":2924,"trial_type":"polygon-arrow-question","trial_index":0,"trial_index_global":48,"time_elapsed":1768495,"internal_chunk_id":"0-0.12-0"},{"nsides":9,"question":"What is 7 <img src=./images/nonagon_symbol.png style=width:14px;height:14px> 4?","response_type":"free","response_choices":[],"correct_response":"2","response":"2","explain":false,"explanation":"","explanation_history":[],"orientation_history":[[0],[-0.03519672638649851,-0.12089695183611404,-0.26442865966349416,-0.3510534394028788,-0.4783868316951274,-0.5235306774429045,-0.5553425070777624,-0.5756162266570826,-0.59516928997422,-0.6231993299340663,-0.6322080952244828,-0.6322080952244828,-0.6322080952244828,-0.6322080952244828,-0.6322080952244828,-0.6322080952244828,-0.6322080952244828,-0.6322080952244828,-0.6322080952244828,-0.6322080952244828,-0.6322080952244828,-0.6322080952244828,-0.6322080952244828,-0.5655709024565923,-0.3834562210636099,-0.03845404385650486,-5.97683208660305,-5.813589000593383,-5.762215803445632,-5.74858802703945,-5.74858802703945,-5.74858802703945,-5.74858802703945,-5.74858802703945,-5.74858802703945,-5.74858802703945,-5.74858802703945,-5.74858802703945,-5.74858802703945,-5.74858802703945,-5.721765704140951,-5.669916817727681,-5.62054566056891,-5.562387158372642,-5.511326607004123,-5.462180437598728,-5.442323982967892,-5.442323982967892,-5.442323982967892,-5.442323982967892,-5.442323982967892,-5.442323982967892,-5.442323982967892,-5.442323982967892,-5.442323982967892,-5.442323982967892,-5.442323982967892,-5.442323982967892,-5.442323982967892,-5.442323982967892,-5.442323982967892,-5.442323982967892,-5.442323982967892,-5.442323982967892,-5.442323982967892,-5.442323982967892,-5.442323982967892,-5.442323982967892,-5.442323982967892,-5.442323982967892,-5.442323982967892,-5.442323982967892,-5.442323982967892,-5.4343649023864184,-5.485400766891654,-5.587830768208574,-5.774850510146844,-6.104858839872568,-0.14984328809915137,-0.42207244411752676,-0.5812072227126972,-0.6707824332110501,-0.6856181399300239,-0.6856181399300239,-0.6856181399300239,-0.6856181399300239,-0.6856181399300239,-0.6856181399300239,-0.6856181399300239,-0.6856181399300239,-0.6856181399300239,-0.6856181399300239,-0.6856181399300239,-0.6856181399300239,-0.6856181399300239,-0.6856181399300239,-0.6856181399300239,-0.6856181399300239,-0.6856181399300239,-0.6856181399300239,-0.6856181399300239,-0.6856181399300239,-0.6856181399300239,-0.6856181399300239,-0.6856181399300239,-0.6856181399300239,-0.6856181399300239,-0.6856181399300239,-0.6856181399300239,-0.6856181399300239,-0.6856181399300239,-0.6856181399300239,-0.6856181399300239,-0.6856181399300239,-0.6856181399300239,-0.6707824332110501,-0.6393269637777026,-0.5644435072183436,-0.4638476890301497,-0.3361169607469243,-0.2479285070781092,-0.18540802629251996,-0.14645203361348358,-0.12925796101448483,-0.10284402643407287,-0.10284402643407287,-0.0894911382948047,-0.0625123349512613,-0.02142349270589783,0.03611073839879175,0.07789210093717536,0.07789210093717536,0.07789210093717536,0.07789210093717536,0.07789210093717536,0.07789210093717536,0.07789210093717536,0.07789210093717536,0.07789210093717536,0.07789210093717536,0.07789210093717536,0.07789210093717536,0.07789210093717536,0.07789210093717536,0.10670032821766462,-6.120986473716204,-5.981061803142087,-5.78169385926216,-5.558249250955122,-5.4056488929572115,-5.310383564991814,-5.2778014795478185,-5.2778014795478185,-5.2778014795478185,-5.2778014795478185,-5.2778014795478185,-5.2778014795478185,-5.2778014795478185,-5.2778014795478185,-5.2778014795478185,-5.2778014795478185,-5.2778014795478185,-5.252447078430315,-5.154268535917266,-5.013837755922114,-4.898961150505215,-4.821668629320222,-4.783487098457935,-4.760620350267781,-4.751317032737847,-4.751317032737847,-4.751317032737847,-4.751317032737847,-4.751317032737847,-4.751317032737847,-4.751317032737847,-4.751317032737847,-4.751317032737847,-4.751317032737847,-4.751317032737847,-4.751317032737847,-4.751317032737847,-4.751317032737847,-4.751317032737847,-4.751317032737847,-4.751317032737847,-4.751317032737847,-4.751317032737847,-4.751317032737847,-4.751317032737847,-4.751317032737847,1.3962634015954636]],"response_history":["2"],"rt":9745,"trial_type":"polygon-arrow-question","trial_index":0,"trial_index_global":49,"time_elapsed":1778241,"internal_chunk_id":"0-0.12-0"},{"nsides":9,"question":"What is 1 <img src=./images/nonagon_symbol.png style=width:14px;height:14px> 8?","response_type":"free","response_choices":[],"correct_response":"0","response":"0","explain":false,"explanation":"","explanation_history":[],"orientation_history":[[0]],"response_history":["0"],"rt":5773,"trial_type":"polygon-arrow-question","trial_index":0,"trial_index_global":50,"time_elapsed":1784016,"internal_chunk_id":"0-0.12-0"},{"nsides":9,"question":"What is 5 <img src=./images/nonagon_symbol.png style=width:14px;height:14px> 4?","response_type":"free","response_choices":[],"correct_response":"0","response":"0","explain":false,"explanation":"","explanation_history":[],"orientation_history":[[0]],"response_history":["0"],"rt":2913,"trial_type":"polygon-arrow-question","trial_index":0,"trial_index_global":51,"time_elapsed":1786929,"internal_chunk_id":"0-0.12-0"},{"nsides":9,"question":"What is 6 <img src=./images/nonagon_symbol.png style=width:14px;height:14px> 6?","response_type":"free","response_choices":[],"correct_response":"3","response":"3","explain":false,"explanation":"","explanation_history":[],"orientation_history":[[0],[4.965654746615442,4.965654746615442,4.965654746615442,4.965654746615442,4.965654746615442,4.965654746615442,4.965654746615442,4.965654746615442,4.965654746615442,4.965654746615442,4.965654746615442,4.965654746615442,4.965654746615442,4.965654746615442,4.965654746615442,5.011755214442042,5.081348526590546,5.170222701403654,5.3153717366996265,5.488078710948029,5.634189748183085,5.749477115540325,5.836581502173777,5.8637078454242255,5.8637078454242255,5.8637078454242255,5.8637078454242255,5.8637078454242255,5.8637078454242255,5.8637078454242255,5.8637078454242255,5.8637078454242255,5.8637078454242255,5.8637078454242255,5.8637078454242255,5.8637078454242255,5.8637078454242255,5.8637078454242255,5.8637078454242255,5.8637078454242255,5.914225760973729,5.981040083640149,6.044248866593422,6.120090014969345,6.185932108928021,6.2230170560245766,6.223731647870929,6.2356022039026024,6.2356022039026024,6.2356022039026024,6.2356022039026024,6.2356022039026024,6.2356022039026024,6.2356022039026024,6.2356022039026024,6.2356022039026024,6.2356022039026024,6.2356022039026024,6.2356022039026024,6.2356022039026024,6.2356022039026024,6.2356022039026024,6.2356022039026024,6.2356022039026024,6.2356022039026024,6.2356022039026024,6.2356022039026024,6.2356022039026024,6.2356022039026024,6.2356022039026024,6.2356022039026024,6.2356022039026024,6.2356022039026024,6.2356022039026024,6.2356022039026024,6.2356022039026024,6.271281107621276,0.0356991126793238,0.11848995915813765,0.25615138256560344,0.42386761052977917,0.5495600135263794,0.6250227194214976,0.6637003813743523,0.6716061562537402,0.6716061562537402,0.6716061562537402,0.6716061562537402,0.6716061562537402,0.6716061562537402,0.6716061562537402,0.6716061562537402,0.6716061562537402,0.6716061562537402,0.702256931509007,0.7583777142101834,0.8818719385800352,1.0390722595360908,1.1565783860362222,1.2394766864906437,1.2772073393861467,1.2884684921955807,1.2884684921955807,1.2884684921955807,1.2884684921955807,1.2884684921955807,1.2884684921955807,1.2884684921955807,1.2884684921955807,1.2884684921955807,1.2884684921955807,1.2884684921955807,1.3312132947599544,1.442713483719856,1.5707963267948966,1.6682311780871528,1.7395464292151976,1.77530414225324,1.810539435665353,1.8313987185422376,1.8588517738455224,1.8791548247152936,1.8858654661390666,1.8925468811915387,1.8925468811915387,1.8925468811915387,1.8925468811915387,1.8925468811915387,1.8925468811915387,2.0943951023931953]],"response_history":["3"],"rt":6446,"trial_type":"polygon-arrow-question","trial_index":0,"trial_index_global":52,"time_elapsed":1793376,"internal_chunk_id":"0-0.12-0"},{"nsides":9,"instructions":"On the following question, and several others later in the HIT, we will ask you to explain how you got your answer. On these questions, you will be given one box for your answer to the question, and a second for your explanation. Please explain your thought process in as much detail as possible (at least one sentence, and more if you can).","orientation_history":[0],"rt":16557,"trial_type":"polygon-arrow-instructions","trial_index":0,"trial_index_global":53,"time_elapsed":1809934,"internal_chunk_id":"0-0.12-0"},{"nsides":9,"question":"What is 4 <img src=./images/nonagon_symbol.png style=width:14px;height:14px> 1? Please explain in words how you got your answer.","response_type":"free","response_choices":[],"correct_response":"5","response":"5","explain":true,"explanation":"If you start at 4 and move 1 step forward on the nonagon, you get 5.","explanation_history":["If you start at 1, and ","If you start at 1,","If you start at 1","If you start at 4, a","If you start at 4, ","If you start at 4,","If you start at 4 and move 1 step forward on the nan","If you start at 4 and move 1 step forward on the na","If you start at 4 and move 1 step forward on the nonagon, yoy g","If you start at 4 and move 1 step forward on the nonagon, yoy ","If you start at 4 and move 1 step forward on the nonagon, yoy","If you start at 4 and move 1 step forward on the nonagon, you get 5."],"orientation_history":[[0]],"response_history":["5"],"rt":44487,"trial_type":"polygon-arrow-question","trial_index":0,"trial_index_global":54,"time_elapsed":1854421,"internal_chunk_id":"0-0.12-0"},{"nsides":9,"question":"What is 8 <img src=./images/nonagon_symbol.png style=width:14px;height:14px> 4? Please explain in words how you got your answer.","response_type":"free","response_choices":[],"correct_response":"3","response":"3","explain":true,"explanation":"If you start at 8, and move ahead 4 steps clockwise on the nonagon, you reach 3.","explanation_history":["If you start at 8, and move ahead 4 steps clockwise on the nonagon, you reach 3."],"orientation_history":[[0],[0.06090020827798792,0.06090020827798792,0.06090020827798792,0.06090020827798792,0.06090020827798792,0.06090020827798792,0.06090020827798792,0.06090020827798792,0.06090020827798792,0.06090020827798792,0.06090020827798792,0.06090020827798792,0.06090020827798792,0.06090020827798792,0.06090020827798792,0.06090020827798792,0.06090020827798792,0.06090020827798792,0.06090020827798792,0.06090020827798792,0.06090020827798792,0.06090020827798792,0.0730405653031192,0.12591262568579809,0.2157661964070423,0.32175055439664213,0.45106965598852344,0.5645693936681,0.6153395418053919,0.6463022219153769,0.663555726377531,0.663555726377531,0.663555726377531,0.663555726377531,0.663555726377531,0.663555726377531,0.663555726377531,0.663555726377531,0.663555726377531,0.663555726377531,0.663555726377531,0.663555726377531,0.663555726377531,0.663555726377531,0.663555726377531,0.663555726377531,0.663555726377531,0.663555726377531,0.663555726377531,0.6857295109062862,0.7162018847788656,0.7162018847788656,0.7266423406817255,0.7657928325402436,0.824593765324503,0.971343841953159,1.1498057525426508,1.3478960944665208,1.5098961185169086,1.6048740383819042,1.6584829819243971,1.6897966201776764,1.7004988639508087,1.7004988639508087,1.7004988639508087,1.7004988639508087,1.7004988639508087,1.7004988639508087,1.7004988639508087,1.7004988639508087,1.7004988639508087,1.7004988639508087,1.7004988639508087,1.7004988639508087,1.7004988639508087,1.7535178875569941,1.8462224304909318,1.9437840485949576,2.0344439357957027,2.1015698239978033,2.15628637281562,2.2125368740269002,2.23335925131445,2.2468759563044447,2.2468759563044447,2.2468759563044447,2.2468759563044447,2.2468759563044447,2.2468759563044447,2.2468759563044447,2.2468759563044447,2.2468759563044447,2.2468759563044447,2.2468759563044447,2.2468759563044447,2.2468759563044447,2.2468759563044447,2.2401537409474406,2.2195513277012577,2.191045812777718,2.161330570503473,2.1382362762527456,2.125477934464217,2.117585167684144,2.1096158284308117,2.1015698239978033,2.1015698239978033,2.1015698239978033,2.1015698239978033,2.1015698239978033,2.1015698239978033,2.1015698239978033,2.1015698239978033,2.1015698239978033,2.1015698239978033,2.1015698239978033,2.1015698239978033,2.1015698239978033,2.1015698239978033,2.1015698239978033,2.1015698239978033,2.1015698239978033,2.1015698239978033,2.1015698239978033,2.1015698239978033,2.0943951023931953],[0.08121630645073741,0.08121630645073741,0.08121630645073741,0.08121630645073741,0.08121630645073741,0.08121630645073741,0.08121630645073741,0.08121630645073741,0.08121630645073741,0.08121630645073741,0.08121630645073741,0.08121630645073741,0.08121630645073741,0.08121630645073741,0.08121630645073741,0.08121630645073741,0.08121630645073741,0.09384121262933642,0.1691012260013769,0.30587887140485215,0.5317240672588055,0.7165416740964037,0.8658691746629091,0.9272952180016122,0.9403949053213893,0.9492697022982747,0.9492697022982747,0.9492697022982747,0.9492697022982747,0.9492697022982747,0.9492697022982747,0.9492697022982747,0.9492697022982747,0.9492697022982747,0.9492697022982747,0.9492697022982747,0.9492697022982747,0.9492697022982747,0.9492697022982747,0.9492697022982747,0.9492697022982747,1.022772410370619,1.1673772934950848,1.339079485604446,1.5192955158436712,1.6202608953964879,1.6571197277353593,1.676173765983839,1.676173765983839,1.676173765983839,1.676173765983839,1.676173765983839,1.676173765983839,1.676173765983839,1.676173765983839,1.676173765983839,1.6856729322117956,1.7975951748487824,1.9242365571465696,2.0106389096106327,2.0576955586061656,2.0653221491838747,2.0653221491838747,2.0653221491838747,2.0653221491838747,2.0653221491838747,2.0653221491838747,2.0653221491838747,2.0653221491838747,2.0653221491838747,2.0653221491838747,2.0943951023931953]],"response_history":["3"],"rt":39253,"trial_type":"polygon-arrow-question","trial_index":0,"trial_index_global":55,"time_elapsed":1893675,"internal_chunk_id":"0-0.12-0"},{"nsides":9,"question":"What is the identity under <img src=./images/nonagon_symbol.png style=width:14px;height:14px>? Please explain in words how you got your answer.","response_type":"free","response_choices":[],"correct_response":"0","response":"0","explain":true,"explanation":"If you start at 0 and move ahead any number on the nonagon, the result will always be that number.","explanation_history":["If you choose ","If you choose","If you choos","If you choo","If you cho","If you ch","If you c","If you start at 0 and move ahead any number on the nonagon, the result will always be that number."],"orientation_history":[[0]],"response_history":["0"],"rt":67407,"trial_type":"polygon-arrow-question","trial_index":0,"trial_index_global":56,"time_elapsed":1961083,"internal_chunk_id":"0-0.12-0"},{"nsides":9,"question":"What is the inverse of 5 under <img src=./images/nonagon_symbol.png style=width:14px;height:14px>?","response_type":"free","response_choices":[],"correct_response":"4","response":"4","explain":false,"explanation":"","explanation_history":[],"orientation_history":[[0],[4.229875685362213,4.229875685362213,4.229875685362213,4.229875685362213,4.229875685362213,4.229875685362213,4.229875685362213,4.229875685362213,4.229875685362213,4.229875685362213,4.229875685362213,4.229875685362213,4.229875685362213,4.229875685362213,4.229875685362213,4.229875685362213,4.229875685362213,4.229875685362213,4.229875685362213,4.229875685362213,4.273126780556602,4.386893125148212,4.559739651989425,4.778083781937154,4.9853976834714,5.125517812663091,5.192339492704158,5.20305703857276,5.20305703857276,5.20305703857276,5.20305703857276,5.20305703857276,5.20305703857276,5.20305703857276,5.20305703857276,5.20305703857276,5.20305703857276,5.20305703857276,5.20305703857276,5.246571555290074,5.3583470866908005,5.4452040821711964,5.541238039173669,5.661525384896497,5.749002732274201,5.7981505853270505,5.808785424387679,5.808785424387679,5.808785424387679,5.808785424387679,5.808785424387679,5.808785424387679,5.840811084202841,5.924414636909014,6.038206644052722,6.205563798442193,0.05258306161094173,0.08228798977468177,0.08228798977468177,0.08228798977468177,0.08228798977468177,0.08228798977468177,0.08228798977468177,0.08228798977468177,0.08228798977468177,0.08228798977468177,0.08228798977468177,0.08228798977468177,0.08228798977468177,0]],"response_history":["4"],"rt":10270,"trial_type":"polygon-arrow-question","trial_index":0,"trial_index_global":57,"time_elapsed":1971354,"internal_chunk_id":"0-0.12-0"},{"nsides":9,"question":"What is the inverse of 2 under <img src=./images/nonagon_symbol.png style=width:14px;height:14px>?","response_type":"free","response_choices":[],"correct_response":"7","response":"7","explain":false,"explanation":"","explanation_history":[],"orientation_history":[[0]],"response_history":["7"],"rt":3101,"trial_type":"polygon-arrow-question","trial_index":0,"trial_index_global":58,"time_elapsed":1974456,"internal_chunk_id":"0-0.12-0"},{"nsides":9,"question":"What is the inverse of 0 under <img src=./images/nonagon_symbol.png style=width:14px;height:14px>?","response_type":"free","response_choices":[],"correct_response":"0","response":"0","explain":false,"explanation":"","explanation_history":[],"orientation_history":[[0]],"response_history":["0"],"rt":2868,"trial_type":"polygon-arrow-question","trial_index":0,"trial_index_global":59,"time_elapsed":1977325,"internal_chunk_id":"0-0.12-0"},{"nsides":9,"question":"What is the inverse of 3 under <img src=./images/nonagon_symbol.png style=width:14px;height:14px>? Please explain in words how you got your answer.","response_type":"free","response_choices":[],"correct_response":"6 ","response":"6","explain":true,"explanation":"If you move ahead 6 steps clockwise from 3, you get 0. Or if you move ahead 3 steps clockwise from 6, you get 0.","explanation_history":["If you move ahead 6 steps clockwise from 3, youy g","If you move ahead 6 steps clockwise from 3, youy ","If you move ahead 6 steps clockwise from 3, youy","If you move ahead 6 steps clockwise from 3, you get 0. A","If you move ahead 6 steps clockwise from 3, you get 0. Or if you move ahead 3 steps clockwise from 6, you get .","If you move ahead 6 steps clockwise from 3, you get 0. Or if you move ahead 3 steps clockwise from 6, you get 0."],"orientation_history":[[0]],"response_history":["6"],"rt":56231,"trial_type":"polygon-arrow-question","trial_index":0,"trial_index_global":60,"time_elapsed":2033557,"internal_chunk_id":"0-0.12-0"},{"nsides":9,"question":"Is 2 a generator under <img src=./images/nonagon_symbol.png style=width:14px;height:14px>? Please explain in words how you got your  answer. ","response_type":"multi","response_choices":["Yes","No"],"correct_response":"Yes","response":"Yes","explain":true,"explanation":"Every number can be made from using only 2 with the <9> operation. If you do them in order it comes out to 2, 4, 6, 8, 1, 3, 5, 7, 0.","explanation_history":["Two ","Two","Tw","T","Every number can be mak","Every number can be made from a","Every number can be made from [","Every number can be made from {","Every number can be made from <9","Every number can be made from <","Every number can be made from using only 2 with the <9> operation. 2,4","Every number can be made from using only 2 with the <9> operation. 2, 4, 6, 8, 1, 3, 5, 7, 0.","Every number can be made from using only 2 with the <9> operation. I2, 4, 6, 8, 1, 3, 5, 7, 0.","Every number can be made from using only 2 with the <9> operation. If2, 4, 6, 8, 1, 3, 5, 7, 0.","Every number can be made from using only 2 with the <9> operation. If 2, 4, 6, 8, 1, 3, 5, 7, 0.","Every number can b e made f rom using only 2 with the <9> operation. If y2, 4, 6, 8, 1, 3, 5, 7, 0.","Every number can be made from using only 2 with the <9> operation. If yo2, 4, 6, 8, 1, 3, 5, 7, 0.","Every number can be made from using only 2 with the <9> operation. If you2, 4, 6, 8, 1, 3, 5, 7, 0.","Every number can be made from using only 2 with the <9> operation. If you 2, 4, 6, 8, 1, 3, 5, 7, 0.","Every number can be made from using only 2 with the <9> operation. If you do2, 4, 6, 8, 1, 3, 5, 7, 0.","Every number can be made from using only 2 with the <9> operation. If you do 2, 4, 6, 8, 1, 3, 5, 7, 0.","Every number can be made from using only 2 with the <9> operation. If you do t2, 4, 6, 8, 1, 3, 5, 7, 0.","Every number can be made from using only 2 with the <9> operation. If you do th2, 4, 6, 8, 1, 3, 5, 7, 0.","Every number can be made from using only 2 with the <9> operation. If you do the2, 4, 6, 8, 1, 3, 5, 7, 0.","Every number can be made from using only 2 with the <9> operation. If you  do them2 , 4, 6, 8, 1, 3, 5, 7, 0.","Every number can be made from using only 2 with the <9> operation. If you do them 2, 4, 6, 8, 1, 3, 5, 7, 0.","Every number can be made from using only 2 with the <9> operation. If you do them i2, 4, 6, 8, 1, 3, 5, 7, 0.","Every number can be made from using only 2 with the <9> operation. If you do them in 2, 4, 6, 8, 1, 3, 5, 7, 0.","Every number can be made from using only 2 with the <9> operation. If you do them in or2, 4, 6, 8, 1, 3, 5, 7, 0.","Every number can be made from using only 2 with the <9> operation. If you do them in ord2, 4, 6, 8, 1, 3, 5, 7, 0.","Every number can be made from using only 2 with the <9> operation. If you do them in orde2, 4, 6, 8, 1, 3, 5, 7, 0.","Every number can be made from using only 2 with the <9> operation. If you do them in order2, 4, 6, 8, 1, 3, 5, 7, 0.","Every number can be made from using only 2 with the <9> operation. If you do them in order 2, 4, 6, 8, 1, 3, 5, 7, 0.","Every number can be made from usin g only 2  with the <9> operation. If you do them in order i2, 4, 6, 8, 1, 3, 5, 7, 0.","Every number can be made from using only 2 with the <9> operation. If you do them in order it2, 4, 6, 8, 1, 3, 5, 7, 0.","Every number can be made from using only 2 with the <9> operation. If you do them in order it 2, 4, 6, 8, 1, 3, 5, 7, 0.","Every number can be made from using only 2 with the <9> operation. If you do them in order it c2, 4, 6, 8, 1, 3, 5, 7, 0.","Every number can be made from using only 2 with the <9> operation. If you do them in order it co2, 4, 6, 8, 1, 3, 5, 7, 0.","Every number can be made from using only 2 with the <9> operation. If you do them in order it come2, 4, 6, 8, 1, 3, 5, 7, 0.","Every number can be made from using only 2 with the <9> operation. If you do them in order it comes2, 4, 6, 8, 1, 3, 5, 7, 0.","Every number can be made from using only 2 with the <9> operation. If you do them in order it comes 2, 4, 6, 8, 1, 3, 5, 7, 0.","Every number can be made from us ing only  2 with the <9> operation. If you do them in order it comes o2, 4, 6, 8, 1, 3, 5, 7, 0.","Every number can be made from using only 2 with the <9> operation. If you do them in order it comes ou2, 4, 6, 8, 1, 3, 5, 7, 0.","Every number can be made from using only 2 with the <9> operation. If you do them in order it comes out2, 4, 6, 8, 1, 3, 5, 7, 0.","Every number can be made from using only 2 with the <9> operation. If you do them in order it comes out 2, 4, 6, 8, 1, 3, 5, 7, 0.","Every number can be made from using only 2 with the <9> operation. If you do them in order it comes out t2, 4, 6, 8, 1, 3, 5, 7, 0.","Every number can be made from using only 2 with the <9> operation. If you do them in order it comes out to2, 4, 6, 8, 1, 3, 5, 7, 0.","Every number can be made from using only 2 with the <9> operation. If you do them in order it comes out to 2, 4, 6, 8, 1, 3, 5, 7, 0."],"orientation_history":[[0],[1.427212933148428,1.427212933148428,1.427212933148428,1.427212933148428,1.427212933148428,1.427212933148428,1.427212933148428,1.427212933148428,1.427212933148428,1.427212933148428,1.427212933148428,1.427212933148428,1.427212933148428,1.427212933148428,1.427212933148428,1.427212933148428,1.427212933148428,1.427212933148428,1.427212933148428,1.427212933148428,1.427212933148428,1.427212933148428,1.427212933148428,1.427212933148428,1.427212933148428,1.427212933148428,1.427212933148428,1.427212933148428,1.427212933148428,1.427212933148428,1.427212933148428,1.427212933148428,1.427212933148428,1.427212933148428,1.427212933148428,1.427212933148428,1.427212933148428,1.427212933148428,1.427212933148428,1.427212933148428,1.427212933148428,1.427212933148428,1.427212933148428,1.427212933148428,1.427212933148428,1.427212933148428,1.427212933148428,1.4154320729433634,1.4056476493802696,1.396124127786657,1.396124127786657,1.3847381496458928,1.373400766945016,1.373400766945016,1.373400766945016,1.373400766945016,1.373400766945016,1.373400766945016,1.373400766945016,1.373400766945016,1.373400766945016,1.373400766945016,1.373400766945016,1.373400766945016,1.373400766945016,1.373400766945016,1.373400766945016,1.373400766945016,1.373400766945016,1.373400766945016,1.373400766945016,1.373400766945016,1.373400766945016,1.373400766945016,1.373400766945016,1.373400766945016,1.373400766945016,1.373400766945016,1.373400766945016,1.373400766945016,1.373400766945016,1.373400766945016,1.373400766945016,1.373400766945016,1.373400766945016,1.373400766945016,1.373400766945016,1.373400766945016,1.373400766945016,1.373400766945016,1.373400766945016,1.373400766945016,1.373400766945016,1.373400766945016,1.373400766945016,1.373400766945016,1.373400766945016,1.373400766945016,1.373400766945016,1.373400766945016,1.373400766945016,1.373400766945016,1.373400766945016,1.373400766945016,1.373400766945016,1.373400766945016,1.373400766945016,1.373400766945016,1.373400766945016,1.373400766945016,1.373400766945016,1.373400766945016,1.373400766945016,1.373400766945016,1.373400766945016,1.373400766945016,1.373400766945016,1.373400766945016,1.373400766945016,1.373400766945016,1.373400766945016,1.373400766945016,1.373400766945016,1.373400766945016,1.373400766945016,1.373400766945016,1.373400766945016,1.373400766945016,1.373400766945016,1.373400766945016,1.373400766945016,1.4154320729433634,1.5075894948974364,1.6690702800509056,1.8925468811915387,2.124477649001894,2.3353641701561276,2.5573213760088844,2.727085779005007,2.8233756533910124,2.8706458032513726,2.8864102629689747,2.8864102629689747,2.8864102629689747,2.8864102629689747,2.8864102629689747,2.8864102629689747,2.8864102629689747,2.8864102629689747,2.8864102629689747,2.8864102629689747,2.8864102629689747,2.8864102629689747,2.8864102629689747,2.8864102629689747,2.8864102629689747,2.8864102629689747,2.8864102629689747,2.8864102629689747,2.8864102629689747,2.8864102629689747,2.8864102629689747,2.8864102629689747,2.8864102629689747,2.8864102629689747,2.8864102629689747,2.8864102629689747,2.866166549893758,2.8561297933230483,2.8561297933230483,2.8561297933230483,2.8561297933230483,2.8561297933230483,2.8561297933230483,2.8561297933230483,2.8561297933230483,2.8561297933230483,2.8561297933230483,2.8561297933230483,2.8561297933230483,2.8561297933230483,2.8561297933230483,2.8561297933230483,2.8561297933230483,2.8561297933230483,2.8561297933230483,2.8561297933230483,2.8561297933230483,2.8561297933230483,2.8561297933230483,2.8561297933230483,2.8561297933230483,2.8561297933230483,2.8561297933230483,2.8561297933230483,2.8561297933230483,2.8561297933230483,2.8561297933230483,2.8561297933230483,2.8561297933230483,2.8561297933230483,2.8561297933230483,2.843093722003614,2.809875651786944,2.7999771629419863,2.7901478595862415,2.7901478595862415,2.7901478595862415,2.7901478595862415,2.7901478595862415,2.7901478595862415,2.7901478595862415,2.7901478595862415,2.7901478595862415,2.7901478595862415,2.7901478595862415,2.7901478595862415,2.7901478595862415,2.7901478595862415,2.7901478595862415,2.7901478595862415,2.7901478595862415,2.7901478595862415,2.7901478595862415,2.7901478595862415,2.7901478595862415,2.7901478595862415,2.7901478595862415,2.7999771629419863,2.860360451671498,2.9746224845648643,3.165397679774863,3.4945830414167034,3.8363309297864965,4.1074865774492775,4.256773327173465,4.320859427723603,4.338055364377106,4.341070706115483,4.341070706115483,4.341070706115483,4.341070706115483,4.341070706115483,4.341070706115483,4.341070706115483,4.341070706115483,4.341070706115483,4.341070706115483,4.341070706115483,4.341070706115483,4.341070706115483,4.341070706115483,4.341070706115483,4.341070706115483,4.307497194099606,4.2487413713838835,4.209193656795325,4.173344995065026,4.152950034675882,4.1420056987347476,4.13100879657979,4.13100879657979,4.124386376837123,4.1068443167797195,4.089389730479967,4.089389730479967,4.089389730479967,4.089389730479967,4.089389730479967,4.089389730479967,4.089389730479967,4.089389730479967,4.089389730479967,4.089389730479967,4.089389730479967,4.089389730479967,4.089389730479967,4.089389730479967,4.089389730479967,4.089389730479967,4.089389730479967,4.089389730479967,4.089389730479967,4.089389730479967,4.089389730479967,4.089389730479967,4.089389730479967,4.089389730479967,4.089389730479967,4.089389730479967,4.089389730479967,4.089389730479967,4.089389730479967,4.089389730479967,4.089389730479967,4.089389730479967,4.089389730479967,4.089389730479967,4.089389730479967,4.089389730479967,4.089389730479967,4.089389730479967,4.089389730479967,4.089389730479967,4.089389730479967,4.089389730479967,4.089389730479967,4.089389730479967,4.089389730479967,4.089389730479967,4.089389730479967,4.089389730479967,4.089389730479967,4.089389730479967,4.089389730479967,4.089389730479967,4.089389730479967,4.089389730479967,4.089389730479967,4.089389730479967,4.089389730479967,4.089389730479967,4.089389730479967,4.089389730479967,4.089389730479967,4.089389730479967,4.089389730479967,4.089389730479967,4.089389730479967,4.089389730479967,4.089389730479967,4.089389730479967,4.089389730479967,4.089389730479967,4.089389730479967,4.089389730479967,4.089389730479967,4.089389730479967,4.089389730479967,4.089389730479967,4.089389730479967,4.089389730479967,4.089389730479967,4.089389730479967,4.089389730479967,4.089389730479967,4.089389730479967,4.089389730479967,4.089389730479967,4.089389730479967,4.089389730479967,4.089389730479967,4.089389730479967,4.089389730479967,4.089389730479967,4.089389730479967,4.089389730479967,4.089389730479967,4.089389730479967,4.089389730479967,4.089389730479967,4.089389730479967,4.089389730479967,4.089389730479967,4.089389730479967,4.089389730479967,4.089389730479967,4.089389730479967,4.089389730479967,4.089389730479967,4.089389730479967,4.089389730479967,4.089389730479967,4.089389730479967,4.089389730479967,4.089389730479967,4.089389730479967,4.089389730479967,4.089389730479967,4.089389730479967,4.089389730479967,4.089389730479967,4.089389730479967,4.089389730479967,4.089389730479967,4.089389730479967,4.089389730479967,4.089389730479967,4.089389730479967,4.089389730479967,4.089389730479967,4.089389730479967,4.089389730479967,4.095822718998362,4.167738193659671,4.279981204814153,4.45602128806689,4.692391646411539,4.927746680082428,5.122516320926181,5.241161752719881,5.310807873863227,5.402534866363371,5.441944641301967,5.467121912855189,5.485739533927951,5.497787143782138,5.497787143782138,5.497787143782138,5.497787143782138,5.497787143782138,5.497787143782138,5.497787143782138,5.497787143782138,5.497787143782138,5.497787143782138,5.497787143782138,5.497787143782138,5.497787143782138,5.497787143782138,5.497787143782138,5.497787143782138,5.497787143782138,5.497787143782138,5.497787143782138,5.497787143782138,5.497787143782138,5.497787143782138,5.497787143782138,5.497787143782138,5.497787143782138,5.497787143782138,5.497787143782138,5.497787143782138,5.497787143782138,5.497787143782138,5.497787143782138,5.497787143782138,5.497787143782138,5.497787143782138,5.497787143782138,5.497787143782138,5.497787143782138,5.534807259656068,5.64341552435296,5.810488171464996,5.948012740042853,0.010988568682733568,0.18272156076209756,0.27542610369603526,0.29544083714372005,0.29544083714372005,0.29544083714372005,0.29544083714372005,0.29544083714372005,0.29544083714372005,0.29544083714372005,0.3053585800886369,0.36933365767362547,0.4805236438477274,0.592845180705614,0.6823165548747481,0.7253611114020111,0.7428706287776641,0.7483780475235182,0.7538297069096702,0.7538297069096702,0.7538297069096702,0.7538297069096702,0.7538297069096702,0.7538297069096702,0.7538297069096702,0.7538297069096702,0.7538297069096702,0.7538297069096702,0.7538297069096702,0.7378150601204648,0.7272626879966902,0.7159911144163001,0.7102710074866861,0.7053556378371892,0.6995878987009461,0.6889243882148613,0.6889243882148613,0.6889243882148613,0.6889243882148613,0.6889243882148613,0.6889243882148613,0.6889243882148613,0.6889243882148613,0.6889243882148613,0.6889243882148613,0.6889243882148613,0.6889243882148613,0.6889243882148613,0.6889243882148613,0.6889243882148613,0.6889243882148613,0.6889243882148613,0.6889243882148613,0.6889243882148613,0.6889243882148613,0.6889243882148613,0.6889243882148613,0.6889243882148613,0.6889243882148613,0.6889243882148613,0.6889243882148613,0.6889243882148613,0.6889243882148613,0.6889243882148613,0.6889243882148613,0.6889243882148613,0.6889243882148613,0.6889243882148613,0.6889243882148613,0.6889243882148613,0.6889243882148613,0.6889243882148613,0.6889243882148613,0.6889243882148613,0.6889243882148613,0.6889243882148613,0.6889243882148613,0.6889243882148613,0.6889243882148613,0.6889243882148613,0.6889243882148613,0.6889243882148613,0.6889243882148613,0.6889243882148613,0.6889243882148613,0.6889243882148613,0.6889243882148613,0.6889243882148613,0.6889243882148613,0.6889243882148613,0.6889243882148613,0.6889243882148613,0.6889243882148613,0.6889243882148613,0.6889243882148613,0.6889243882148613,0.6889243882148613,0.6889243882148613,0.6889243882148613,0.6889243882148613,0.6889243882148613,0.6889243882148613,0.6889243882148613,0.6889243882148613,0.6889243882148613,0.6889243882148613,0.6889243882148613,0.6889243882148613,0.6889243882148613,0.6889243882148613,0.6889243882148613,0.6889243882148613,0.6889243882148613,0.6889243882148613,0.6889243882148613,0.6889243882148613,0.6889243882148613,0.6889243882148613,0.6889243882148613,0.6889243882148613,0.6889243882148613,0.6889243882148613,0.6889243882148613,0.6889243882148613,0.6889243882148613,0.6889243882148613,0.6889243882148613,0.6889243882148613,0.6889243882148613,0.6889243882148613,0.6889243882148613,0.6889243882148613,0.6889243882148613,0.6889243882148613,0.6889243882148613,0.6889243882148613,0.6889243882148613,0.6889243882148613,0.6889243882148613,0.6889243882148613,0.6889243882148613,0.6889243882148613,0.6889243882148613,0.6889243882148613,0.6889243882148613,0.6889243882148613,0.6889243882148613,0.6889243882148613,0.6889243882148613,0.6889243882148613,0.6889243882148613,0.6889243882148613,0.6889243882148613,0.6889243882148613,0.6889243882148613,0.6889243882148613,0.6889243882148613,0.6889243882148613,0.6889243882148613,0.6889243882148613,0.6889243882148613,0.6889243882148613,0.6889243882148613,0.6889243882148613,0.6889243882148613,0.6889243882148613,0.7094575271315536,0.7624137059559961,0.8412406658776183,0.925415520967315,1.0478575632237246,1.2068173702852525,1.3940874707248598,1.5827005263532063,1.7243401093344526,1.8380554249508076,1.9032226321789938,1.9554010416171101,1.965587446494658,1.965587446494658,1.965587446494658,1.965587446494658,1.965587446494658,1.965587446494658,1.965587446494658,1.965587446494658,1.965587446494658,1.965587446494658,1.9857020844857711,2.043922324925565,2.0899424410414196,2.1077070695349422,2.1164513813218884,2.1164513813218884,2.1164513813218884,2.1164513813218884,2.1164513813218884,2.1164513813218884,2.1164513813218884,2.1164513813218884,2.1164513813218884,2.1164513813218884,2.1164513813218884,2.1164513813218884,2.1164513813218884,2.1164513813218884,2.1164513813218884,2.1164513813218884,2.1164513813218884,2.1164513813218884,2.1164513813218884,2.1164513813218884,2.1164513813218884,2.1164513813218884,2.1164513813218884,2.1164513813218884,2.1164513813218884,2.1164513813218884,2.1164513813218884,2.1164513813218884,2.1164513813218884,2.1164513813218884,2.1672973093147223,2.2309279188698232,2.32590073027357,2.425849063920913,2.5226401837408883,2.642245931909663,2.758985439231993,2.866403404460622,2.9727607515786723,3.0867027909956395,3.163328360431586,3.23806642877238,3.2894420188485487,3.3307916756897615,3.3714970817216976,3.398916368560882,3.4378710114757127,3.485283260578398,3.527475322987867,3.5674431460960347,3.5927927727217384,3.5927927727217384,3.5927927727217384,3.5927927727217384,3.5927927727217384,3.5927927727217384,3.5927927727217384,3.5927927727217384,3.5927927727217384,3.5927927727217384,3.5927927727217384,3.5927927727217384,3.5927927727217384,3.5927927727217384,3.5927927727217384,3.5927927727217384,3.5927927727217384,3.5927927727217384,3.5927927727217384,3.5927927727217384,3.5927927727217384,3.5887808437558197,3.5848349319040613,3.5727313943085752,3.5727313943085752,3.5727313943085752,3.5727313943085752,3.5727313943085752,3.5727313943085752,3.5727313943085752,3.5727313943085752,3.5727313943085752,3.5727313943085752,3.5727313943085752,3.5727313943085752,3.5727313943085752,3.5727313943085752,3.5727313943085752,3.5727313943085752,3.5727313943085752,3.5727313943085752,3.5607352565564643,3.5607352565564643,3.5524438448915783,3.54884850166464,3.54884850166464,3.54884850166464,3.54884850166464,3.54884850166464,3.54884850166464,3.54884850166464,3.54884850166464,3.5887808437558197,3.661947957089787,3.7666153730112906,3.9269908169872414,4.0972027422727155,4.2487413713838835,4.397395079923832,4.492593908860657,4.569048925339088,4.611720328226861,4.622630806194739,4.633346086206098,4.634117839863412,4.634117839863412,4.634117839863412,4.634117839863412,4.634117839863412,4.6438689648259945,4.663408579460963,4.683270998877651,4.702773892084988,4.721912501978302,4.750465805974493,4.75952385419819,4.7877178712130295,4.814832833891813,4.832183003137445,4.832183003137445,4.850395004042209,4.850395004042209,4.850395004042209,4.850395004042209,4.850395004042209,4.850395004042209,4.850395004042209,4.850395004042209,4.850395004042209,4.850395004042209,4.850395004042209,4.850395004042209,4.850395004042209,4.850395004042209,4.850395004042209,4.850395004042209,4.850395004042209,4.850395004042209,4.850395004042209,4.850395004042209,4.850395004042209,4.850395004042209,4.850395004042209,4.850395004042209,4.850395004042209,4.850395004042209,4.850395004042209,4.850395004042209,4.850395004042209,4.850395004042209,4.850395004042209,4.850395004042209,4.850395004042209,4.850395004042209,4.850395004042209,4.850395004042209,4.850395004042209,4.850395004042209,4.850395004042209,4.850395004042209,4.850395004042209,4.850395004042209,4.850395004042209,4.850395004042209,4.850395004042209,4.850395004042209,4.850395004042209,4.850395004042209,4.850395004042209,4.850395004042209,4.8685153462280315,4.926057967924673,4.998440422102007,5.11091142605111,5.246097172023951,5.363842207835475,5.525557780375559,5.668522355257421,5.789885374990507,5.885557315657457,5.961434752782944,6.03608800315487,6.104090532582944,6.166076562612722,6.18433498511132,6.18433498511132,6.18433498511132,6.18433498511132,6.18433498511132,6.18433498511132,6.18433498511132,6.18433498511132,6.18433498511132,6.18433498511132,6.218758467754032,6.243523577256458,6.26756157855911,6.26756157855911,6.275433524467379,6.275433524467379,6.275433524467379,6.275433524467379,6.275433524467379,6.275433524467379,6.275433524467379,6.275433524467379,6.275433524467379,6.275433524467379,6.275433524467379,6.275433524467379,6.275433524467379,6.275433524467379,6.275433524467379,6.275433524467379,6.275433524467379,6.275433524467379,6.275433524467379,6.275433524467379,6.275433524467379,6.275433524467379,6.275433524467379,6.275433524467379,6.275433524467379,6.275433524467379,6.275433524467379,6.275433524467379,6.275433524467379,6.275433524467379,6.275433524467379,6.275433524467379,6.275433524467379,6.275433524467379,6.275433524467379,6.275433524467379,6.275433524467379,6.275433524467379,6.275433524467379,0.00781234106010098,0.04096068353431548,0.07810167771998544,0.1512176901464406,0.25255427577805944,0.3507279482482035,0.4804058165830436,0.6063828863759626,0.698240888843165,0.8050034942546529,0.8960553845713439,0.9588938923602298,1.0182119765041824,1.0816765212833679,1.1453466894248543,1.1902899496825317,1.2535300472730704,1.2983331773911049,1.373400766945016,1.4346573659417559,1.5033313022729917,1.5313431256978571,1.5837826097150691,1.6092389168160846,1.6466001641560357,1.658074039744358,1.658074039744358,1.658074039744358,1.658074039744358,1.658074039744358,1.658074039744358,1.658074039744358,1.658074039744358,1.658074039744358,1.658074039744358,1.658074039744358,1.658074039744358,1.658074039744358,1.658074039744358,1.5957911204138167,1.5337762109209665,1.4968572891369563,1.460139105621001,1.460139105621001,1.460139105621001,1.460139105621001,1.460139105621001,1.460139105621001,1.460139105621001,1.460139105621001,1.460139105621001,1.460139105621001,1.460139105621001,1.460139105621001,1.460139105621001,1.460139105621001,1.460139105621001,1.460139105621001,1.460139105621001,1.460139105621001,1.460139105621001,1.460139105621001,1.460139105621001,1.460139105621001,1.460139105621001,1.460139105621001,1.460139105621001,1.460139105621001,1.460139105621001,1.460139105621001,1.460139105621001,1.460139105621001,1.460139105621001,1.460139105621001,1.460139105621001,1.460139105621001,1.460139105621001,1.460139105621001,1.460139105621001,1.460139105621001,1.460139105621001,1.460139105621001,1.460139105621001,1.460139105621001,1.460139105621001,1.460139105621001,1.460139105621001,1.460139105621001,1.460139105621001,1.460139105621001,1.460139105621001,1.460139105621001,1.460139105621001,1.460139105621001,1.460139105621001,1.460139105621001,1.460139105621001,1.460139105621001,1.460139105621001,1.460139105621001,1.460139105621001,1.460139105621001,1.460139105621001,1.460139105621001,1.460139105621001,1.460139105621001,1.460139105621001,1.460139105621001,1.460139105621001,1.460139105621001,1.460139105621001,1.460139105621001,1.460139105621001,1.460139105621001,1.460139105621001,1.460139105621001,1.460139105621001,1.460139105621001,1.460139105621001,1.460139105621001,1.460139105621001,1.460139105621001,1.460139105621001,1.460139105621001,1.460139105621001,1.460139105621001,1.460139105621001,1.460139105621001,1.460139105621001,1.460139105621001,1.460139105621001,1.460139105621001,1.460139105621001,1.460139105621001,1.460139105621001,1.460139105621001,1.460139105621001,1.460139105621001,1.460139105621001,1.460139105621001,1.460139105621001,1.460139105621001,1.460139105621001,1.460139105621001,1.460139105621001,1.460139105621001,1.460139105621001,1.460139105621001,1.460139105621001,1.460139105621001,1.460139105621001,1.460139105621001,1.460139105621001,1.460139105621001,1.460139105621001,1.460139105621001,1.460139105621001,1.460139105621001,1.460139105621001,1.460139105621001,1.460139105621001,1.460139105621001,1.460139105621001,1.460139105621001,1.460139105621001,1.460139105621001,1.460139105621001,1.460139105621001,1.460139105621001,1.460139105621001,