[{"nsides":6,"instructions":"Let's define a new operation <img src=./images/hexagon_symbol.png style=width:14px;height:14px>. This operation will give us a way of combining two of the numbers 0, 1, 2, 3, 4, 5 to get another one of them back. Consider the hexagon at the right, where I've labeled each point with one of the numbers. To perform <img src=./images/hexagon_symbol.png style=width:14px;height:14px>, you can use the interactive diagram on the right, or perform the operation in your mind. Point the arrow at the first number on the hexagon by clicking, then click (or click and drag) to move the arrow the second number of points clockwise around the hexagon. The number the arrow arrives at is your result. (The operation is called <img src=./images/hexagon_symbol.png style=width:14px;height:14px> because it uses the hexagon, which has 6 sides.) <br /><br />For example, 3 <img src=./images/hexagon_symbol.png style=width:14px;height:14px> 5 =  2, becau se 5 steps clockwise from 3 on the hexagon brings us to 2. So 3 <img src=./images/hexagon_symbol.png style=width:14px;height:14px> 5 = 2.<br /><br />Similarly, 1 <img src=./images/hexagon_symbol.png style=width:14px;height:14px> 4 = 5, because 4 steps clockwise from 1 brings us to 5. <br /><br />Click Continue when you're ready to move on.","orientation_history":[0],"rt":42938,"trial_type":"polygon-arrow-instructions","trial_index":0,"trial_index_global":1,"time_elapsed":49605,"internal_chunk_id":"0-0"},{"nsides":6,"instructions":"Do you see how <img src=./images/hexagon_symbol.png style=width:14px;height:14px> works? By labeling the points of the hexagon with the numbers from 0 to 5, we ensure that when we combine two numbers under <img src=./images/hexagon_symbol.png style=width:14px;height:14px>, we only produce numbers between 0 and 5.<br /><br />Click Continue when you are ready to move on.","orientation_history":[0],"rt":5688,"trial_type":"polygon-arrow-instructions","trial_index":0,"trial_index_global":2,"time_elapsed":55304,"internal_chunk_id":"0-0"},{"nsides":6,"question":"Now try one on your own! What is 4 <img src=./images/hexagon_symbol.png style=width:14px;height:14px> 5? <br /><br /> (Remember, to perform <img src=./images/hexagon_symbol.png style=width:14px;height:14px>, you can use the interactive diagram on the right, or perform the operation in your mind. Point the arrow at the first number on the hexagon, then move the arrow the second number of points clockwise around the hexagon. The number the arrow arrives at is your result.)","response_type":"free","response_choices":[],"correct_response":"3","response":"3","explain":false,"explanation":"","explanation_history":[],"orientation_history":[[0]],"response_history":["3"],"rt":14394,"trial_type":"polygon-arrow-question","trial_index":0,"trial_index_global":3,"time_elapsed":69703,"internal_chunk_id":"0-0.3-0"},{"nsides":6,"feedback":"Corr ect! 4 <img src=./images/hexagon_symbol.png style=width:14px;height:14px> 5 = 3 because 5 steps clockwise on the hexagon from 4 brings us to 3","orientation_history":[0],"rt":2470,"trial_type":"polygon-arrow-feedback","trial_index":0,"trial_index_global":4,"time_elapsed":72179,"internal_chunk_id":"0-0.3-0"},{"nsides":6,"question":"What is 3 <img src=./images/hexagon_symbol.png style=width:14px;height:14px> 2? <br /><br /> (Remember, to perform <img src=./images/hexagon_symbol.png style=width:14px;height:14px>, you can use the interactive diagram on the right, or perform the operation in your mind. Point the arrow at the first number on the hexagon, then move the arrow the second number of points clockwise around the hexagon. The number the arrow arrives at is your result.)","response_type":"free","response_choices":[],"correct_response":"5","response":"5","explain":false,"explanation":"","explanation_history":[],"orientation_history":[[0]],"response_history":["5"],"rt":9574,"trial_type":"polygon-arrow-question","trial_index":0,"trial_index_global":5,"time_elapsed":81756,"internal_chunk_id":"0-0.3-0"},{"nsides":6,"feedback":"Correct! 3 <img src=./images/hexagon_symbol.png style=width:14px;height:14px> 2 = 5 because 2 steps clockwise on the hexagon from 3 brings us to 5","orientation_history":[0],"rt":1195,"trial_type":"polygon-arrow-feedback","trial_index":0,"trial_index_global":6,"time_elapsed":82952,"internal_chunk_id":"0-0.3-0"},{"nsides":6,"question":"What is 1 <img src=./images/hexagon_symbol.png style=width:14px;height:14px> 5? <br /><br /> (Remember, to perform <img src=./images/hexagon_symbol.png style=width:14px;height:14px>, you can use the interactive diagram on the right, or perform the operation in your mind. Point the arrow at the first number on the hexagon, then move the arrow the second number of points clockwise around the hexagon. The number the arrow arrives at is your result.)","response_type":"free","response_choices":[],"correct_response":"0","response":"0","explain":false,"explanation":"","explanation_history":[],"orientation_history":[[0]],"response_history":["0"],"rt":10803,"trial_type":"polygon-arrow-question","trial_index":0,"trial_index_global":7,"time_elapsed":93756,"internal_chunk_id":"0-0.3-0"},{"nsides":6,"feedback":"Correct! 1 <img src=./images/hexagon_symbol.png style=width:14px;height:14px> 5 = 0 because 5 steps clockwise on the hexagon from 1 brings us to 0","orientation_history":[0],"rt":2357,"trial_type":"polygon-arrow-feedback","trial_index":0,"trial_index_global":8,"time_elapsed":96114,"internal_chunk_id":"0-0.3-0"},{"nsides":6,"question":"What is 1 <img src=./images/hexagon_symbol.png style=width:14px;height:14px> 1? <br /><br /> (Remember, to perform <img src=./images/hexagon_symbol.png style=width:14px;height:14px>, you can use the interactive diagram on the right, or perform the operation in your mind. Point the arr ow at th e first number on the hexagon, then move the arrow the second number of points clockwise around the hexagon. The number the arrow arrives at is your result.)","response_type":"free","response_choices":[],"correct_response":"2","response":"2","explain":false,"explanation":"","explanation_history":[],"orientation_history":[[0]],"response_history":["2"],"rt":4424,"trial_type":"polygon-arrow-question","trial_index":0,"trial_index_global":9,"time_elapsed":100540,"internal_chunk_id":"0-0.3-0"},{"nsides":6,"feedback":"Correct! 1 <img src=./images/hexagon_symbol.png style=width:14px;height:14px> 1 = 2 because 1 step clockwise on the hexagon from 1 brings us to 2","orientation_history":[0],"rt":1402,"trial_type":"polygon-arrow-feedback","trial_index":0,"trial_index_global":10,"time_elapsed":101942,"internal_chunk_id":"0-0.3-0"},{"nsides":6,"question":"What is 3 <img src=./images/hexagon_symbol.png style=width:14px;height:14px> 0? <br /><br /> (Remember, to perform <im g src= ./images/hexagon_symbol.png style=width:14px;height:14px>, you can use the interactive diagram on the right, or perform the operation in your mind. Point the arrow at the first number on the hexagon, then move the arrow the second number of points clockwise around the hexagon. The number the arrow arrives at is your result.)","response_type":"free","response_choices":[],"correct_response":"3","response":"3","explain":false,"explanation":"","explanation_history":[],"orientation_history":[[0]],"response_history":["3"],"rt":3989,"trial_type":"polygon-arrow-question","trial_index":0,"trial_index_global":11,"time_elapsed":105931,"internal_chunk_id":"0-0.3-0"},{"nsides":6,"feedback":"Correct! 3 <img src=./images/hexagon_symbol.png style=width:14px;height:14px> 0 = 3 because 0 steps clockwise on the hexagon from 3 brings us to 3","orientation_history":[0],"rt":1714,"trial_type":"polygon-arrow-feedback","trial_index":0,"trial_index_global":12,"time_elapsed":107645,"internal_chunk_id":"0-0.3-0"},{"nsides":6,"question":"What is 4 <img src=./images/hexagon_symbol.png style=width:14px;height:14px> 4? <br /><br /> (Remember, to perform <img src=./images/hexagon_symbol.png style=width:14px;height:14px>, you can use the interactive diagram on the right, or perform the operation in your mind. Point the arrow at the first number on the hexagon, then move the arrow the second number of points clockwise around the hexagon. The number the arrow arrives at is your result.)","response_type":"free","response_choices":[],"correct_response":"2","response":"2","explain":false,"explanation":"","explanation_history":[],"orientation_history":[[0]],"response_history":["21","2"],"rt":5316,"trial_type":"polygon-arrow-question","trial_index":0,"trial_index_global":13,"time_elapsed":112962,"internal_chunk_id":"0-0.3-0"},{"nsides":6,"feedback":"Correct! 4 <img src=./images/hexagon_symbol.png style=width:14px;height:14px> 4 = 2 because 4 steps clockw ise on t he hexagon from 4 brings us to 2","orientation_history":[0],"rt":1307,"trial_type":"polygon-arrow-feedback","trial_index":0,"trial_index_global":14,"time_elapsed":114270,"internal_chunk_id":"0-0.3-0"},{"nsides":6,"question":"What is 1 <img src=./images/hexagon_symbol.png style=width:14px;height:14px> 3? <br /><br /> (Remember, to perform <img src=./images/hexagon_symbol.png style=width:14px;height:14px>, you can use the interactive diagram on the right, or perform the operation in your mind. Point the arrow at the first number on the hexagon, then move the arrow the second number of points clockwise around the hexagon. The number the arrow arrives at is your result.)","response_type":"free","response_choices":[],"correct_response":"4","response":"4","explain":false,"explanation":"","explanation_history":[],"orientation_history":[[0]],"response_history":["4"],"rt":6904,"trial_type":"polygon-arrow-question","trial_index":0,"trial_index_global":15,"time_elapsed":121176,"internal_chunk_id":"0-0.3-0"},{"nsides":6,"feedback":"Correct! 1 <img src=./images/hexagon_symbol.png style=width:14px;height:14px> 3 = 4 because 3 steps clockwise on the hexagon from 1 brings us to 4","orientation_history":[0],"rt":3024,"trial_type":"polygon-arrow-feedback","trial_index":0,"trial_index_global":16,"time_elapsed":124200,"internal_chunk_id":"0-0.3-0"},{"nsides":6,"question":"What is 4 <img src=./images/hexagon_symbol.png style=width:14px;height:14px> 3? <br /><br /> (Remember, to perform <img src=./images/hexagon_symbol.png style=width:14px;height:14px>, you can use the interactive diagram on the right, or perform the operation in your mind. Point the arrow at the first number on the hexagon, then move the arrow the second number of points clockwise around the hexagon. The number the arrow arrives at is your result.)","response_type":"free","response_choices":[],"correct_response":"1","response":"1","explain":false,"explanation":"","explanation_history":[],"orientation_history":[[0]],"response_history":["1"],"rt":4447,"trial_type":"polygon-arrow-question","trial_index":0,"trial_index_global":17,"time_elapsed":128648,"internal_chunk_id":"0-0.3-0"},{"nsides":6,"feedback":"Correct! 4 <img src=./images/hexagon_symbol.png style=width:14px;height:14px> 3 = 1 because 3 steps clockwise on the hexagon from 4 brings us to 1","orientation_history":[0],"rt":1814,"trial_type":"polygon-arrow-feedback","trial_index":0,"trial_index_global":18,"time_elapsed":130464,"internal_chunk_id":"0-0.3-0"},{"nsides":6,"question":"What is 0 <img src=./images/hexagon_symbol.png style=width:14px;height:14px> 5? <br /><br /> (Remember, to perform <img src=./images/hexagon_symbol.png style=width:14px;height:14px>, you can use the interactive diagram on the right, or perform the operation in your mind. Point the arrow at the first number on the hexagon, then move the arrow the second number of points clockwise around the h exagon.  The number the arrow arrives at is your result.)","response_type":"free","response_choices":[],"correct_response":"5","response":"5","explain":false,"explanation":"","explanation_history":[],"orientation_history":[[0]],"response_history":["5"],"rt":4138,"trial_type":"polygon-arrow-question","trial_index":0,"trial_index_global":19,"time_elapsed":134603,"internal_chunk_id":"0-0.3-0"},{"nsides":6,"feedback":"Correct! 0 <img src=./images/hexagon_symbol.png style=width:14px;height:14px> 5 = 5 because 5 steps clockwise on the hexagon from 0 brings us to 5","orientation_history":[0],"rt":1962,"trial_type":"polygon-arrow-feedback","trial_index":0,"trial_index_global":20,"time_elapsed":136566,"internal_chunk_id":"0-0.3-0"},{"nsides":6,"question":"What is 2 <img src=./images/hexagon_symbol.png style=width:14px;height:14px> 5? <br /><br /> (Remember, to perform <img src=./images/hexagon_symbol.png style=width:14px;height:14px>, you can use the interactive diagra m on the  right, or perform the operation in your mind. Point the arrow at the first number on the hexagon, then move the arrow the second number of points clockwise around the hexagon. The number the arrow arrives at is your result.)","response_type":"free","response_choices":[],"correct_response":"1","response":"1","explain":false,"explanation":"","explanation_history":[],"orientation_history":[[0]],"response_history":["1"],"rt":4643,"trial_type":"polygon-arrow-question","trial_index":0,"trial_index_global":21,"time_elapsed":141210,"internal_chunk_id":"0-0.3-0"},{"nsides":6,"feedback":"Correct! 2 <img src=./images/hexagon_symbol.png style=width:14px;height:14px> 5 = 1 because 5 steps clockwise on the hexagon from 2 brings us to 1","orientation_history":[0],"rt":1330,"trial_type":"polygon-arrow-feedback","trial_index":0,"trial_index_global":22,"time_elapsed":142541,"internal_chunk_id":"0-0.3-0"},{"nsides":6,"instructions":"Now we're going to discuss a couple special properti es of th is new operation, <img src=./images/hexagon_symbol.png style=width:14px;height:14px> that we've learned. First, notice that the number 0 behaves in a special way under <img src=./images/hexagon_symbol.png style=width:14px;height:14px>. Whenever we combine 0 with anything else, we get that same thing back. We'll say that 0 is the <i>identity</i> under <img src=./images/hexagon_symbol.png style=width:14px;height:14px>, because when you combine it with something it gives you that identical thing back.","orientation_history":[0],"rt":20002,"trial_type":"polygon-arrow-instructions","trial_index":0,"trial_index_global":23,"time_elapsed":162548,"internal_chunk_id":"0-0"},{"nsides":6,"instructions":"Now that we know 0 is the identity under <img src=./images/hexagon_symbol.png style=width:14px;height:14px>, we're going to make a new definition. We'll say that the <i>inverse</i> of a number is the element that you combine with it to produce the identity  under o ur operation. For example, 5 <img src=./images/hexagon_symbol.png style=width:14px;height:14px> 1 = 0, so we say 1 is the inverse of 5 under <img src=./images/hexagon_symbol.png style=width:14px;height:14px>, (remember 0 is the identity under <img src=./images/hexagon_symbol.png style=width:14px;height:14px>). Similarly, 3 is its own inverse under <img src=./images/hexagon_symbol.png style=width:14px;height:14px>, because 3 <img src=./images/hexagon_symbol.png style=width:14px;height:14px> 3 = 0.","orientation_history":[0],"rt":147095,"trial_type":"polygon-arrow-instructions","trial_index":0,"trial_index_global":24,"time_elapsed":309645,"internal_chunk_id":"0-0"},{"nsides":6,"question":"Now you try! What is the inverse of 4 under <img src=./images/hexagon_symbol.png style=width:14px;height:14px>? <br /><br /> (Remember, the inverse of an element is the thing which you combine with it to produce the identity.)","response_type":" free","response_choices":[],"correct_response":"2","response":"2","explain":false,"explanation":"","explanation_history":[],"orientation_history":[[0]],"response_history":["2"],"rt":6963,"trial_type":"polygon-arrow-question","trial_index":0,"trial_index_global":25,"time_elapsed":316614,"internal_chunk_id":"0-0.7-0"},{"nsides":6,"feedback":"Correct! The inverse of 4 under <img src=./images/hexagon_symbol.png style=width:14px;height:14px> is 2 because 4 <img src=./images/hexagon_symbol.png style=width:14px;height:14px> 2 = 0, and 0 is the identity under <img src=./images/hexagon_symbol.png style=width:14px;height:14px>.","orientation_history":[0],"rt":981,"trial_type":"polygon-arrow-feedback","trial_index":0,"trial_index_global":26,"time_elapsed":317597,"internal_chunk_id":"0-0.7-0"},{"nsides":6,"question":"What is the inverse of 1 under <img src=./images/hexagon_symbol.png style=width:14px;height:14px>? <br /><br /> (Remember, the inverse of an element  is the  thing which you combine with it to produce the identity.)","response_type":"free","response_choices":[],"correct_response":"5","response":"5","explain":false,"explanation":"","explanation_history":[],"orientation_history":[[0]],"response_history":["5"],"rt":4655,"trial_type":"polygon-arrow-question","trial_index":0,"trial_index_global":27,"time_elapsed":322253,"internal_chunk_id":"0-0.7-0"},{"nsides":6,"feedback":"Correct! The inverse of 1 under <img src=./images/hexagon_symbol.png style=width:14px;height:14px> is 5 because 1 <img src=./images/hexagon_symbol.png style=width:14px;height:14px> 5 = 0, and 0 is the identity under <img src=./images/hexagon_symbol.png style=width:14px;height:14px>.","orientation_history":[0],"rt":1774,"trial_type":"polygon-arrow-feedback","trial_index":0,"trial_index_global":28,"time_elapsed":324027,"internal_chunk_id":"0-0.7-0"},{"nsides":6,"question":"What is the inverse of 3 under <img src=./images/hexagon_symbol.png  style=width:14px;height:14px>? <br /><br /> (Remember, the inverse of an element is the thing which you combine with it to produce the identity.)","response_type":"free","response_choices":[],"correct_response":"3","response":"0","explain":false,"explanation":"","explanation_history":[],"orientation_history":[[0]],"response_history":["0"],"rt":6740,"trial_type":"polygon-arrow-question","trial_index":0,"trial_index_global":29,"time_elapsed":330768,"internal_chunk_id":"0-0.7-0"},{"nsides":6,"feedback":"Sorry, that was incorrect. The inverse of 3 under <img src=./images/hexagon_symbol.png style=width:14px;height:14px> is 3 because 3 <img src=./images/hexagon_symbol.png style=width:14px;height:14px> 3 = 0, and 0 is the identity under <img src=./images/hexagon_symbol.png style=width:14px;height:14px>.","orientation_history":[0],"rt":17107,"trial_type":"polygon-arrow-feedback","trial_index":0,"trial_index_global":30,"time_elapsed":347877,"internal_chunk_id":"0 -0.7-0"},{"nsides":6,"question":"What is the inverse of 2 under <img src=./images/hexagon_symbol.png style=width:14px;height:14px>? <br /><br /> (Remember, the inverse of an element is the thing which you combine with it to produce the identity.)","response_type":"free","response_choices":[],"correct_response":"4","response":"4","explain":false,"explanation":"","explanation_history":[],"orientation_history":[[0]],"response_history":["4"],"rt":3322,"trial_type":"polygon-arrow-question","trial_index":0,"trial_index_global":31,"time_elapsed":351200,"internal_chunk_id":"0-0.7-0"},{"nsides":6,"feedback":"Correct! The inverse of 2 under <img src=./images/hexagon_symbol.png style=width:14px;height:14px> is 4 because 2 <img src=./images/hexagon_symbol.png style=width:14px;height:14px> 4 = 0, and 0 is the identity under <img src=./images/hexagon_symbol.png style=width:14px;height:14px>.","orientation_history":[0],"rt":827,"trial_type":"polygon-arrow-feedback","trial_index":0,"trial_index_global":32,"time_elapsed":352030,"internal_chunk_id":"0-0.7-0"},{"nsides":6,"question":"What is the inverse of 0 under <img src=./images/hexagon_symbol.png style=width:14px;height:14px>? <br /><br /> (Remember, the inverse of an element is the thing which you combine with it to produce the identity.)","response_type":"free","response_choices":[],"correct_response":"0","response":"0","explain":false,"explanation":"","explanation_history":[],"orientation_history":[[0]],"response_history":["0"],"rt":3155,"trial_type":"polygon-arrow-question","trial_index":0,"trial_index_global":33,"time_elapsed":355186,"internal_chunk_id":"0-0.7-0"},{"nsides":6,"feedback":"Correct! The inverse of 0 under <img src=./images/hexagon_symbol.png style=width:14px;height:14px> is 0 because 0 <img src=./images/hexagon_symbol.png style=width:14px;height:14px> 0 = 0, and 0 is the identity under <img src=./images/hexagon_symbol.png style=width:14px;height :14px> .","orientation_history":[0],"rt":1427,"trial_type":"polygon-arrow-feedback","trial_index":0,"trial_index_global":34,"time_elapsed":356613,"internal_chunk_id":"0-0.7-0"},{"instructions":"It is also possible to successively apply <img src=./images/hexagon_symbol.png style=width:14px;height:14px>, and the operation can simply be performed starting with the left-most pair. For example, 2 <img src=./images/hexagon_symbol.png style=width:14px;height:14px> 3 <img src=./images/hexagon_symbol.png style=width:14px;height:14px> 4 = 5 <img src=./images/hexagon_symbol.png style=width:14px;height:14px> 4 = 3.","rt":42256,"trial_type":"instructions","trial_index":0,"trial_index_global":35,"time_elapsed":398871,"internal_chunk_id":"0-0"},{"nsides":6,"instructions":"We have one last definition to learn today, using the successive operations we just learned. Let's start with an example. Under our operation <img src=./images/hexagon_symbol.png style=width :14px;he ight:14px> we can make every other number using just 1: 2 = 1 <img src=./images/hexagon_symbol.png style=width:14px;height:14px> 1, 3 = 1 <img src=./images/hexagon_symbol.png style=width:14px;height:14px> 1 <img src=./images/hexagon_symbol.png style=width:14px;height:14px> 1, 4 = 1 <img src=./images/hexagon_symbol.png style=width:14px;height:14px> 1 <img src=./images/hexagon_symbol.png style=width:14px;height:14px> 1 <img src=./images/hexagon_symbol.png style=width:14px;height:14px> 1, 5 = 1 <img src=./images/hexagon_symbol.png style=width:14px;height:14px> 1 <img src=./images/hexagon_symbol.png style=width:14px;height:14px> 1 <img src=./images/hexagon_symbol.png style=width:14px;height:14px> 1 <img src=./images/hexagon_symbol.png style=width:14px;height:14px> 1, and 0 = 1 <img src=./images/hexagon_symbol.png style=width:14px;height:14px> 1 <img src=./images/hexagon_symbol.png style =width :14px;height:14px> 1 <img src=./images/hexagon_symbol.png style=width:14px;height:14px> 1 <img src=./images/hexagon_symbol.png style=width:14px;height:14px> 1 <img src=./images/hexagon_symbol.png style=width:14px;height:14px> 1. Because 1 can make every other element under <img src=./images/hexagon_symbol.png style=width:14px;height:14px>, we say that 1 is a <i>generator</i> under <img src=./images/hexagon_symbol.png style=width:14px;height:14px>. <br /><br /> However, 2 is not a generator under <img src=./images/hexagon_symbol.png style=width:14px;height:14px>, because 4 = 2 <img src=./images/hexagon_symbol.png style=width:14px;height:14px> 2, and 0 = 2 <img src=./images/hexagon_symbol.png style=width:14px;height:14px> 2 <img src=./images/hexagon_symbol.png style=width:14px;height:14px> 2, but there is no way to make 1, 3, or 5 using just 2.","orientation_history":[0],"rt":91903,"trial_type":"polygon- arrow-in structions","trial_index":0,"trial_index_global":36,"time_elapsed":490780,"internal_chunk_id":"0-0"},{"nsides":6,"question":"Now you try! Is 3 a generator under <img src=./images/hexagon_symbol.png style=width:14px;height:14px>? <br /><br /> (Remember, a generator is an element which can make every other element.)","response_type":"multi","response_choices":["Yes","No"],"correct_response":"No","response":"No","explain":false,"explanation":"","explanation_history":[],"orientation_history":[[0]],"response_history":["No"],"rt":5008,"trial_type":"polygon-arrow-question","trial_index":0,"trial_index_global":37,"time_elapsed":495796,"internal_chunk_id":"0-0.10-0"},{"nsides":6,"feedback":"Correct! 3 is not a generator under <img src=./images/hexagon_symbol.png style=width:14px;height:14px>, because 3 = 3, 0 = 3 <img src=./images/hexagon_symbol.png style=width:14px;height:14px> 3, but there is no way to make 1, 2, 4, or 5 using just 3.","orientation_history":[0],"rt":885,"trial_type":"polygon-arrow-feedback","trial_index":0,"trial_index_global":38,"time_elapsed":496685,"internal_chunk_id":"0-0.10-0"},{"nsides":6,"question":"Is 5 a generator under <img src=./images/hexagon_symbol.png style=width:14px;height:14px>? <br /><br /> (Remember, a generator is an element which can make every other element.)","response_type":"multi","response_choices":["Yes","No"],"correct_response":"Yes","response":"No","explain":false,"explanation":"","explanation_history":[],"orientation_history":[[0]],"response_history":["No"],"rt":1843,"trial_type":"polygon-arrow-question","trial_index":0,"trial_index_global":39,"time_elapsed":498529,"internal_chunk_id":"0-0.10-0"},{"nsides":6,"feedback":"Sorry, that's incorrect. 5 is a generator under <img src=./images/hexagon_symbol.png style=width:14px;height:14px>, because 5 = 5, 4 = 5 <img src=./images/hexagon_symbol.png style=width:14px;height:14px> 5, 3 = 5 <img src=./images/hexagon_symbol.pn g styl e=width:14px;height:14px> 5 <img src=./images/hexagon_symbol.png style=width:14px;height:14px> 5, 2 = 5 <img src=./images/hexagon_symbol.png style=width:14px;height:14px> 5 <img src=./images/hexagon_symbol.png style=width:14px;height:14px> 5 <img src=./images/hexagon_symbol.png style=width:14px;height:14px> 5, 1 = 5 <img src=./images/hexagon_symbol.png style=width:14px;height:14px> 5 <img src=./images/hexagon_symbol.png style=width:14px;height:14px> 5 <img src=./images/hexagon_symbol.png style=width:14px;height:14px> 5 <img src=./images/hexagon_symbol.png style=width:14px;height:14px> 5, and 0 = 5 <img src=./images/hexagon_symbol.png style=width:14px;height:14px> 5 <img src=./images/hexagon_symbol.png style=width:14px;height:14px> 5 <img src=./images/hexagon_symbol.png style=width:14px;height:14px> 5 <img src=./images/hexagon_symbol.png style=width:14px;height:14px> 5 <img src =./ima ges/hexagon_symbol.png style=width:14px;height:14px> 5, so you can make all of the numbers under <img src=./images/hexagon_symbol.png style=width:14px;height:14px> using 5","orientation_history":[0],"rt":76059,"trial_type":"polygon-arrow-feedback","trial_index":0,"trial_index_global":40,"time_elapsed":574590,"internal_chunk_id":"0-0.10-0"},{"nsides":6,"question":"Is 4 a generator under <img src=./images/hexagon_symbol.png style=width:14px;height:14px>? <br /><br /> (Remember, a generator is an element which can make every other element.)","response_type":"multi","response_choices":["Yes","No"],"correct_response":"No","response":"No","explain":false,"explanation":"","explanation_history":[],"orientation_history":[[0]],"response_history":["No"],"rt":5811,"trial_type":"polygon-arrow-question","trial_index":0,"trial_index_global":41,"time_elapsed":580408,"internal_chunk_id":"0-0.10-0"},{"nsides":6,"feedback":"Correct! 4 is not a generator under <img src=. /images/ hexagon_symbol.png style=width:14px;height:14px>, because 4 = 4, 2 = 4 <img src=./images/hexagon_symbol.png style=width:14px;height:14px> 4, and 0 = 4 <img src=./images/hexagon_symbol.png style=width:14px;height:14px> 4 <img src=./images/hexagon_symbol.png style=width:14px;height:14px> 4, but there is no way to make 1, 3, or 5 using just 4.","orientation_history":[0],"rt":895,"trial_type":"polygon-arrow-feedback","trial_index":0,"trial_index_global":42,"time_elapsed":581305,"internal_chunk_id":"0-0.10-0"},{"nsides":6,"question":"Is 0 a generator under <img src=./images/hexagon_symbol.png style=width:14px;height:14px>? <br /><br /> (Remember, a generator is an element which can make every other element.)","response_type":"multi","response_choices":["Yes","No"],"correct_response":"No","response":"No","explain":false,"explanation":"","explanation_history":[],"orientation_history":[[0]],"response_history":["No"],"rt":3827,"trial_type":"polyg on-arrow -question","trial_index":0,"trial_index_global":43,"time_elapsed":585133,"internal_chunk_id":"0-0.10-0"},{"nsides":6,"feedback":"Correct! 0 is not a generator under <img src=./images/hexagon_symbol.png style=width:14px;height:14px>, because 0 = 0, but there is no way to make 1, 2, 3, 4, or 5 using just 0.","orientation_history":[0],"rt":1443,"trial_type":"polygon-arrow-feedback","trial_index":0,"trial_index_global":44,"time_elapsed":586577,"internal_chunk_id":"0-0.10-0"},{"nsides":9,"instructions":"Now we are going to ask you some questions about a new operation, <img src=./images/nonagon_symbol.png style=width:14px;height:14px>, on the numbers 0, 1, 2, 3, 4, 5, 6, 7, 8. It works exactly like <img src=./images/hexagon_symbol.png style=width:14px;height:14px>, except now you use the nonagon shown at the right. <br /><br />Do you see how <img src=./images/nonagon_symbol.png style=width:14px;height:14px> works just like <img src=./images/hexago n_symbol .png style=width:14px;height:14px>? By labeling the points of the nonagon with the numbers from 0 to 8, we ensure that when we combine two numbers under <img src=./images/nonagon_symbol.png style=width:14px;height:14px>, we only produce numbers between 0 and 8. <br /><br />We'll give you one practice question with feedback to make sure you understand the new operation. After that, try to complete the remaining questions as accurately as possible.","orientation_history":[0],"rt":41657,"trial_type":"polygon-arrow-instructions","trial_index":0,"trial_index_global":45,"time_elapsed":628237,"internal_chunk_id":"0-0"},{"nsides":9,"question":"Practice: What is 5 <img src=./images/nonagon_symbol.png style=width:14px;height:14px> 5?","response_type":"free","response_choices":[],"correct_response":"1","response":"1","explain":false,"explanation":"","explanation_history":[],"orientation_history":[[0]],"response_history":["1"],"rt":5630,"trial_type":"polygon-arrow- question ","trial_index":0,"trial_index_global":46,"time_elapsed":633874,"internal_chunk_id":"0-0.12-0"},{"nsides":9,"feedback":"Correct! 5 <img src=./images/nonagon_symbol.png style=width:14px;height:14px> 5 = 1 because 5 steps clockwise on the nonagon from 5 brings us to 1","orientation_history":[0],"rt":2341,"trial_type":"polygon-arrow-feedback","trial_index":0,"trial_index_global":47,"time_elapsed":636218,"internal_chunk_id":"0-0.12-0"},{"nsides":9,"question":"What is 3 <img src=./images/nonagon_symbol.png style=width:14px;height:14px> 3?","response_type":"free","response_choices":[],"correct_response":"6","response":"6","explain":false,"explanation":"","explanation_history":[],"orientation_history":[[0]],"response_history":["6"],"rt":3561,"trial_type":"polygon-arrow-question","trial_index":0,"trial_index_global":48,"time_elapsed":639780,"internal_chunk_id":"0-0.12-0"},{"nsides":9,"question":"What is 7 <img src=./images/nonagon_symbol.png style=width:14px;he ight:14p x> 4?","response_type":"free","response_choices":[],"correct_response":"2","response":"2","explain":false,"explanation":"","explanation_history":[],"orientation_history":[[0]],"response_history":["2"],"rt":4545,"trial_type":"polygon-arrow-question","trial_index":0,"trial_index_global":49,"time_elapsed":644326,"internal_chunk_id":"0-0.12-0"},{"nsides":9,"question":"What is 1 <img src=./images/nonagon_symbol.png style=width:14px;height:14px> 8?","response_type":"free","response_choices":[],"correct_response":"0","response":"0","explain":false,"explanation":"","explanation_history":[],"orientation_history":[[0]],"response_history":["0"],"rt":8287,"trial_type":"polygon-arrow-question","trial_index":0,"trial_index_global":50,"time_elapsed":652614,"internal_chunk_id":"0-0.12-0"},{"nsides":9,"question":"What is 5 <img src=./images/nonagon_symbol.png style=width:14px;height:14px> 4?","response_type":"free","response_choices":[],"correct_response":"0","response":"0","explain":false,"explanation":"","explanation_history":[],"orientation_history":[[0]],"response_history":["0"],"rt":4694,"trial_type":"polygon-arrow-question","trial_index":0,"trial_index_global":51,"time_elapsed":657309,"internal_chunk_id":"0-0.12-0"},{"nsides":9,"question":"What is 6 <img src=./images/nonagon_symbol.png style=width:14px;height:14px> 6?","response_type":"free","response_choices":[],"correct_response":"3","response":"3","explain":false,"explanation":"","explanation_history":[],"orientation_history":[[0]],"response_history":["3"],"rt":4932,"trial_type":"polygon-arrow-question","trial_index":0,"trial_index_global":52,"time_elapsed":662242,"internal_chunk_id":"0-0.12-0"},{"nsides":9,"instructions":"On the following question, and several others later in the HIT, we will ask you to explain how you got your answer. On these questions, you will be given one box for your answer to the question, and a second for your explanation. Please explain your thought process  in as mu ch detail as possible (at least one sentence, and more if you can).","orientation_history":[0],"rt":8971,"trial_type":"polygon-arrow-instructions","trial_index":0,"trial_index_global":53,"time_elapsed":671215,"internal_chunk_id":"0-0.12-0"},{"nsides":9,"question":"What is 4 <img src=./images/nonagon_symbol.png style=width:14px;height:14px> 1? Please explain in words how you got your answer.","response_type":"free","response_choices":[],"correct_response":"5","response":"5","explain":true,"explanation":"I started at 4 on the shape, then went clockwise by 1, which reached 5. ","explanation_history":["I started at 4 on ","I started at 4 on","I started at 4 on the symbol","I started at 4 on the symbo","I started at 4 on the symb","I started at 4 on the sym","I started at 4 on the sy","I started at 4 on the shape, then went clockwise '1'","I started at 4 on the shape, then went clockwise '1","I started at 4 on the shape, then went clockwise '","I started at 4 on the shape , then w ent clockwise by 1 untl ","I started at 4 on the shape, then went clockwise by 1 untl","I started at 4 on the shape, then went clockwise by 1 unt","I started at 4 on the shape, then went clockwise by 1 un","I started at 4 on the shape, then went clockwise by 1 u","I started at 4 on the shape, then went clockwise by 1 ","I started at 4 on the shape, then went clockwise by 1, r","I started at 4 on the shape, then went clockwise by 1, which reached 5. "],"orientation_history":[[0]],"response_history":["5"],"rt":32567,"trial_type":"polygon-arrow-question","trial_index":0,"trial_index_global":54,"time_elapsed":703784,"internal_chunk_id":"0-0.12-0"},{"nsides":9,"question":"What is 8 <img src=./images/nonagon_symbol.png style=width:14px;height:14px> 4? Please explain in words how you got your answer.","response_type":"free","response_choices":[],"correct_response":"3","response":"3","explain":true,"explanation":"I started at 8, went clockwise counting each number as 1, unti l I coun ted spots and ended at 3.","explanation_history":["I started at 8, went clockwise counting each number as 1, until I counted 4 and ended at 3.","I started at 8, went clockwise counting each number as 1, until I counted 4","I started at 8, went clockwise counting each number as 1, until I counted spa","I started at 8, went clockwise counting each number as 1, until I counted spots and ended at 3."],"orientation_history":[[0]],"response_history":["3"],"rt":37767,"trial_type":"polygon-arrow-question","trial_index":0,"trial_index_global":55,"time_elapsed":741551,"internal_chunk_id":"0-0.12-0"},{"nsides":9,"question":"What is the identity under <img src=./images/nonagon_symbol.png style=width:14px;height:14px>? Please explain in words how you got your answer.","response_type":"free","response_choices":[],"correct_response":"0","response":"0","explain":true,"explanation":"If you start at any number and go '0' spots clockwise, you end up at itself, identifying the number.","explanation_history":["Beac","Bea","Beeca","Beec","Bee","Because if y","If yous tar","If yous ta","If yous t","If yous ","If yous","If you start at any number and go '0' cloc","If you start at any number and go '0' clo","If you start at any number and go '0' cl","If you start at any number and go '0' c","If you start at any number and go '0' spots clocks","If you start at any number and go '0' spots clockwise, you end up at itself, identifying the number."],"orientation_history":[[0]],"response_history":["1","0"],"rt":37360,"trial_type":"polygon-arrow-question","trial_index":0,"trial_index_global":56,"time_elapsed":778919,"internal_chunk_id":"0-0.12-0"},{"nsides":9,"question":"What is the inverse of 5 under <img src=./images/nonagon_symbol.png style=width:14px;height:14px>?","response_type":"free","response_choices":[],"correct_response":"4","response":"1","explain":false,"explanation":"","explanation_history":[],"orientation_history":[[0]],"response_history":["1"],"rt":9787,"trial_type":"polygon-arrow-question","trial_index":0,"trial_index_global":57,"time_elapsed":788707,"internal_chunk_id":"0-0.12-0"},{"nsides":9,"question":"What is the inverse of 2 under <img src=./images/nonagon_symbol.png style=width:14px;height:14px>?","response_type":"free","response_choices":[],"correct_response":"7","response":"7","explain":false,"explanation":"","explanation_history":[],"orientation_history":[[0]],"response_history":["7"],"rt":17396,"trial_type":"polygon-arrow-question","trial_index":0,"trial_index_global":58,"time_elapsed":806104,"internal_chunk_id":"0-0.12-0"},{"nsides":9,"question":"What is the inverse of 0 under <img src=./images/nonagon_symbol.png style=width:14px;height:14px>?","response_type":"free","response_choices":[],"correct_response":"0","response":"0","explain":false,"explanation":"","explanation_history":[],"orientation_history":[[0]],"response_history":["0"],"rt":3680,"trial_type":"polygon-arrow-question","trial_index":0,"trial_index_global":59,"time_elapsed":809785,"internal_chunk_id":"0-0.12-0"},{"nsides":9,"question":"What is the inverse of 3 under <img src=./images/nonagon_symbol.png style=width:14px;height:14px>? Please explain in words how you got your answer.","response_type":"free","response_choices":[],"correct_response":"6","response":"6","explain":true,"explanation":"I started at 3 and found the spot that was mirror image of it on the shape, which is 6.","explanation_history":["I started at 3 and found the spot that was mirror image of it on the shape, which is 6."],"orientation_history":[[0]],"response_history":["8","6"],"rt":34619,"trial_type":"polygon-arrow-question","trial_index":0,"trial_index_global":60,"time_elapsed":844405,"internal_chunk_id":"0-0.12-0"},{"nsides":9,"question":"Is 2 a generator under <img src=./images/nonagon_symbol.png style=width:14px;height:14px>? Please explain in words how you got your answer.","response_type":"multi","response_choices":["Yes","No "],"correct_response":"Yes","response":"Yes","explain":true,"explanation":"If you start at any number and go 2 clockwise, you can reach each number on the shape. ","explanation_history":["If o","If you start at any number and add ","If you start at any number and add","If you start at any number and ad","If you start at any number and a","If you start at any number and go 2 co","If you start at any number and go 2 clockwise, you can reach every number on the shape. ","If you start at any number and go 2 clockwise, you can reach e number on the shape. ","If you start at any number and go 2 clockwise, you can reach eac number on the shape. ","If you start at any number and go 2 clockwise, you can reach each number on the shape. "],"orientation_history":[[0]],"response_history":["No","Yes"],"rt":49821,"trial_type":"polygon-arrow-question","trial_index":0,"trial_index_global":61,"time_elapsed":894228,"internal_chunk_id":"0-0.12-0"},{"nsides":9,"question":"Is 3 a generator under <img src =./ima ges/nonagon_symbol.png style=width:14px;height:14px>? Please explain in words how you got your answer.","response_type":"multi","response_choices":["Yes","No"],"correct_response":"No","response":"No","explain":true,"explanation":"If you start at any number and continually go 3 spaces clockwise, you will only land on the same spots, excluding other numbers.","explanation_history":["If you start at anu ","If you start at anu","If you start at any number and d","If you start at any number and continually add ","If you start at any number and continually add","If you start at any number and continually ad","If you start at any number and continually a","If you start at any number and continually go 3 spaces clockwise, you will only land on the same spots, excluding other numbers."],"orientation_history":[[0]],"response_history":["No"],"rt":29861,"trial_type":"polygon-arrow-question","trial_index":0,"trial_index_global":62,"time_elapsed":924097,"internal_chunk_id":"0-0.12-0 "},{"nsides":9,"question":"Is 5 a generator under <img src=./images/nonagon_symbol.png style=width:14px;height:14px>? Please explain in words how you got your answer.","response_type":"multi","response_choices":["Yes","No"],"correct_response":"Yes","response":"Yes","explain":true,"explanation":"If you pick any number to start at and go clockwise 5 spaces, you will land on each number if you through enough rotations.","explanation_history":["If you pick any number to start at and go clockwwise ","If you pick any number to start at and go clockwwise","If you pick any number to start at and go clockwwis","If you pick any number to start at and go clockwwi","If you pick any number to start at and go clockww","If you pick any number to start at and go clockwise 5 spaces, you will land on each numbwer if you ","If you pick any number to start at and go clockwise 5 spaces, you will land on each numbw","If you pick any number to start at and go clockwise 5 spaces, you will land on e ach numb ","If you pick any number to start at and go clockwise 5 spaces, you will land on each number if you add 5","If you pick any number to start at and go clockwise 5 spaces, you will land on each number if you add ","If you pick any number to start at and go clockwise 5 spaces, you will land on each number if you add","If you pick any number to start at and go clockwise 5 spaces, you will land on each number if you ad","If you pick any number to start at and go clockwise 5 spaces, you will land on each number if you a","If you pick any number to start at and go clockwise 5 spaces, you will land on each number if you ","If you pick any number to start at and go clockwise 5 spaces, you will land on each number if you","If you pick any number to start at and go clockwise 5 spaces, you will land on each number if yo","If you pick any number to start at and go clockwise 5 spaces, you will land on each number if y","If you pick any number to start at and go clockwise 5 spaces, you wi ll land  on each number if you through enough rotations."],"orientation_history":[[0]],"response_history":["Yes"],"rt":74172,"trial_type":"polygon-arrow-question","trial_index":0,"trial_index_global":63,"time_elapsed":998272,"internal_chunk_id":"0-0.12-0"},{"nsides":9,"question":"Is 6 a generator under <img src=./images/nonagon_symbol.png style=width:14px;height:14px>? Please explain in words how you got your answer.","response_type":"multi","response_choices":["Yes","No"],"correct_response":"No","response":"No","explain":true,"explanation":"If you start at any number and continually go clockwise 6 spaces, you will only land on certain numbers, excluding others.","explanation_history":["If you start at any number and go clockwise 6 spaces, you will only land ","If you start at any number and cgo clockwise 6 spaces, you will only land ","If you start at any number and congo clockwise 6 spaces, you will only land ","If you start at any number and contgo clockwise 6 spaces, you  will onl y land ","If you start at any number and contigo clockwise 6 spaces, you will only land ","If you start at any number and contingo clockwise 6 spaces, you will only land ","If you start at any number and continugo clockwise 6 spaces, you will only land ","If you start at any number and continualgo clockwise 6 spaces, you will only land ","If you start at any number and continuallygo clockwise 6 spaces, you will only land ","If you start at any number and continually go clockwise 6 spaces, you will only land on certain numbers, exlucind","If you start at any number and continually go clockwise 6 spaces, you will only land on certain numbers, exlucin","If you start at any number and continually go clockwise 6 spaces, you will only land on certain numbers, exluci","If you start at any number and continually go clockwise 6 spaces, you will only land on certain numbers, exluc","If you start at any number and continually go clockwise 6 spaces, you will only land on certain numbers , exludi ng others.","If you start at any number and continually go clockwise 6 spaces, you will only land on certain numbers, ecxluding others.","If you start at any number and continually go clockwise 6 spaces, you will only land on certain numbers, exluding others.","If you start at any number and continually go clockwise 6 spaces, you will only land on certain numbers, excluding others."],"orientation_history":[[0]],"response_history":["No"],"rt":40236,"trial_type":"polygon-arrow-question","trial_index":0,"trial_index_global":64,"time_elapsed":1038514,"internal_chunk_id":"0-0.12-0"},{"nsides":"n","instructions":"Now we'd like to ask you some questions about <img src=./images/ngon_symbol.png style=width:14px;height:14px>, where n could be any positive counting number. For example, n could be 3, and the polygon a triangle, or n could be any other counting number you can think of. If you need to write the operation, you can use (n), and your answers can include n to stan d in for  the arbitrary value if necessary. (You can use the polygon at the right to think, but it doesn't necessarily correspond to the real polygon, which is why we've left most of it dashed.)","orientation_history":[0],"rt":19758,"trial_type":"polygon-arrow-instructions","trial_index":0,"trial_index_global":65,"time_elapsed":1058275,"internal_chunk_id":"0-0"},{"nsides":"n","question":"What is the formula for the inverse of 1 under <img src=./images/ngon_symbol.png style=width:14px;height:14px>?","response_type":"free","response_choices":[],"correct_response":"n-1","response":"1 - 2","explain":false,"explanation":"","explanation_history":[],"orientation_history":[[0]],"response_history":["1 - 2"],"rt":29055,"trial_type":"polygon-arrow-question","trial_index":0,"trial_index_global":66,"time_elapsed":1087334,"internal_chunk_id":"0-0.14-0"},{"nsides":"n","question":"What is the formula for the inverse of an element x under <img src=./images/ngon_symbol.png style=width:14 px;heigh t:14px>? Please explain in words why your answer is correct.","response_type":"free","response_choices":[],"correct_response":"n-x","response":"x-2","explain":true,"explanation":"This part is confusing without knowing the value of n. I am trying to understand this. The inverse part has been confusing. Everything else has been clear. ","explanation_history":["This is ","This is","This i","This part is confusing without knowing the value of n. I am trying to understand this, u","This part is confusing without knowing the value of n. I am trying to understand this, ","This part is confusing without knowing the value of n. I am trying to understand this,","This part is confusing without knowing the value of n. I am trying to understand this","This part is confusing without knowing the value of n. I am trying to understand this. The inverse part has been confusing. WEver","This part is confusing without knowing the value of n. I am trying to understand this. The inverse part ha s been c onfusing. WEve","This part is confusing without knowing the value of n. I am trying to understand this. The inverse part has been confusing. WEv","This part is confusing without knowing the value of n. I am trying to understand this. The inverse part has been confusing. WE","This part is confusing without knowing the value of n. I am trying to understand this. The inverse part has been confusing. W","This part is confusing without knowing the value of n. I am trying to understand this. The inverse part has been confusing. Everythign else","This part is confusing without knowing the value of n. I am trying to understand this. The inverse part has been confusing. Everythign els","This part is confusing without knowing the value of n. I am trying to understand this. The inverse part has been confusing. Everythign el","This part is confusing without knowing the value of n. I am trying to understand this. The inverse part has been confusing. Everythign e","This part is confusing  without  knowing the value of n. I am trying to understand this. The inverse part has been confusing. Everythign ","This part is confusing without knowing the value of n. I am trying to understand this. The inverse part has been confusing. Everythign","This part is confusing without knowing the value of n. I am trying to understand this. The inverse part has been confusing. Everythig","This part is confusing without knowing the value of n. I am trying to understand this. The inverse part has been confusing. Everything else has been clear. "],"orientation_history":[[0]],"response_history":["x=","x-3","x-2"],"rt":123143,"trial_type":"polygon-arrow-question","trial_index":0,"trial_index_global":67,"time_elapsed":1210479,"internal_chunk_id":"0-0.14-0"},{"nsides":"n","question":"Is there a pattern to which elements are generators? How can you know if an element x is a generator under <img src=./images/ngon_symbol.png style=width:14px;height:14px> without seeing whether it can make  all the  elements?.","response_type":"free","response_choices":[],"correct_response":"","response":"If n is divisible by a number, that number cannot be a generator. But if n is not evenly divisible by a number, then that number can generate any number.","explain":false,"explanation":"","explanation_history":[],"orientation_history":[[0]],"response_history":["If n is divisible by a number< it","If n is divisible by a number< i","If n is divisible by a number< ","If n is divisible by a number<","If n is divisible by a number","If n is divisible by a number, it cannot be a gne","If n is divisible by a number, it cannot be a gn","If n is divisible by a number, it cannot be a genra","If n is divisible by a number, it cannot be a genr","If n is divisible by a number, it cannot be a generator. ","If n is divisible by a number, i cannot be a generator. ","If n is divisible by a number,  cannot be a generator. ","If n is divisible by a number, t cannot be a generator. ","If n is divisible b y a numb er, tha cannot be a generator. ","If n is divisible by a number, that cannot be a generator. ","If n is divisible by a number, that  cannot be a generator. ","If n is divisible by a number, that n cannot be a generator. ","If n is divisible by a number, that nu cannot be a generator. ","If n is divisible by a number, that numb cannot be a generator. ","If n is divisible by a number, that number cannot be a generator. But if the number is not evenly divisible th","If n is divisible by a number, that number cannot be a generator. But if the number is not evenly divisible t","If n is divisible by a number, that number cannot be a generator. But if the number is not evenly divisible by ","If n is divisible by a number, that number cannot be a generator. But if the  is not evenly divisible by ","If n is divisible by a number, that number cannot be a generator. But if the is not evenly divisible by ","If n is divisible by a number, that number cannot be a generator. But if th is n ot evenl y divisible by ","If n is divisible by a number, that number cannot be a generator. But if t is not evenly divisible by ","If n is divisible by a number, that number cannot be a generator. But if  is not evenly divisible by ","If n is divisible by a number, that number cannot be a generator. But if n is not evenly divisible by a number t","If n is divisible by a number, that number cannot be a generator. But if n is not evenly divisible by a number ","If n is divisible by a number, that number cannot be a generator. But if n is not evenly divisible by a number, teh","If n is divisible by a number, that number cannot be a generator. But if n is not evenly divisible by a number, te","If n is divisible by a number, that number cannot be a generator. But if n is not evenly divisible by a number, then that number i","If n is divisible by a number, that number cannot be a generator. But if n is not evenly divisible by a number, then that number ga","If n is divisible by a number,  that num ber cannot be a generator. But if n is not evenly divisible by a number, then that number g","If n is divisible by a number, that number cannot be a generator. But if n is not evenly divisible by a number, then that number can generate any m","If n is divisible by a number, that number cannot be a generator. But if n is not evenly divisible by a number, then that number can generate any number."],"rt":85565,"trial_type":"polygon-arrow-question","trial_index":0,"trial_index_global":68,"time_elapsed":1296051,"internal_chunk_id":"0-0.14-0"},{"nsides":"n","question":"True or false: If x is an odd number, it must be a generator under <img src=./images/ngon_symbol.png style=width:14px;height:14px>.","response_type":"multi","response_choices":["True","False"],"correct_response":"False","response":"False","explain":false,"explanation":"","explanation_history":[],"orientation_history":[[0]],"response_history":["False"],"rt":6634,"trial_type":"polygon-arrow-question","trial_index":0,"trial_index_global":69,"time_elapsed":1302690,"internal_chunk_id":"0-0.14-0"},{"nsides":"n","question":"True or false: If x is an even number, it must not be a generator under <img src=./images/ngon_symbol.png style=width:14px;height:14px>.","response_type":"multi","response_choices":["True","False"],"correct_response":"False","response":"False","explain":false,"explanation":"","explanation_history":[],"orientation_history":[[0]],"response_history":["False"],"rt":4880,"trial_type":"polygon-arrow-question","trial_index":0,"trial_index_global":70,"time_elapsed":1307572,"internal_chunk_id":"0-0.14-0"},{"nsides":"n","question":"True or false: If x is not a generator under <img src=./images/ngon_symbol.png style=width:14px;height:14px>, x must be a divisor of n, that is, x must divide n evenly, with no remainder.","response_type":"multi","response_choices":["True","False"],"correct_response":"False","response":"False","explain":false,"explanation":"","explanation_history":[],"orientation_history":[[0]],"response_history":["False"],"rt":14086,"trial_type":"polygon-arrow-question","trial_index":0,"trial_index_global":71,"time_elapsed":1321659,"internal_chunk_id":"0-0.14-0"},{"nsides":"n","question":"True or false: If x is not a generator under <img src=./images/ngon_symbol.png style=width:14px;height:14px>, x must be a multiple of a divisor of n. Please explain in words how you got your answer.","response_type":"multi","response_choices":["True","False"],"correct_response":"True","response":"True","explain":true,"explanation":"If n can be evenly divisible by a number, whenever you add that number to a certain spot on 'n', then it will continually land on specific numbers. However, if that number does not divide 'n' into a whole number, then it is a generator as it will land on different spots of 'n', ultimately landing on every spot.","explanation_history":["If n can be evenly divislbe","If n can be evenly divislb","If n can be evenly  divisl","If n can be evenly divisible by a number, whenever you add that number to a certain spot on the ","If n can be evenly divisible by a number, whenever you add that number to a certain spot on the","If n can be evenly divisible by a number, whenever you add that number to a certain spot on th","If n can be evenly divisible by a number, whenever you add that number to a certain spot on t","If n can be evenly divisible by a number, whenever you add that number to a certain spot on 'n', b","If n can be evenly divisible by a number, whenever you add that number to a certain spot on 'n', ","If n can be evenly divisible by a number, whenever you add that number to a certain spot on 'n',","If n can be evenly divisible by a number, whenever you add that number to a certain spot on 'n', then it will continaully","If n can be evenly divisible by a number, whenever you add that number to a certain spot on 'n', then it will continaull","If n can be evenly divisible by a number, whenever  you add  that number to a certain spot on 'n', then it will continaul","If n can be evenly divisible by a number, whenever you add that number to a certain spot on 'n', then it will continau","If n can be evenly divisible by a number, whenever you add that number to a certain spot on 'n', then it will contina","If n can be evenly divisible by a number, whenever you add that number to a certain spot on 'n', then it will continually land on speccific","If n can be evenly divisible by a number, whenever you add that number to a certain spot on 'n', then it will continually land on speccifi","If n can be evenly divisible by a number, whenever you add that number to a certain spot on 'n', then it will continually land on speccif","If n can be evenly divisible by a number, whenever you add that number to a certain spot on 'n', then it will continually land on specci","If n can be evenly divisible by a number, whenever you add that number to a certain spot on 'n', then it will continually l and on s pecc","If n can be evenly divisible by a number, whenever you add that number to a certain spot on 'n', then it will continually land on specific numbers. However, if that number does not evently","If n can be evenly divisible by a number, whenever you add that number to a certain spot on 'n', then it will continually land on specific numbers. However, if that number does not eventl","If n can be evenly divisible by a number, whenever you add that number to a certain spot on 'n', then it will continually land on specific numbers. However, if that number does not event","If n can be evenly divisible by a number, whenever you add that number to a certain spot on 'n', then it will continually land on specific numbers. However, if that number does not evenly d","If n can be evenly divisible by a number, whenever you add that number to a certain spot on 'n', then it will continually land on specific numbers. However, if that number does not even","If n can be evenly divisible by  a number , whenever you add that number to a certain spot on 'n', then it will continually land on specific numbers. However, if that number does not eve","If n can be evenly divisible by a number, whenever you add that number to a certain spot on 'n', then it will continually land on specific numbers. However, if that number does not ev","If n can be evenly divisible by a number, whenever you add that number to a certain spot on 'n', then it will continually land on specific numbers. However, if that number does not ed","If n can be evenly divisible by a number, whenever you add that number to a certain spot on 'n', then it will continually land on specific numbers. However, if that number does not e","If n can be evenly divisible by a number, whenever you add that number to a certain spot on 'n', then it will continually land on specific numbers. However, if that number does not divide 'n' into a whole number, then it ci","If n can be evenly divisible by a number, whenever you add  that num ber to a certain spot on 'n', then it will continually land on specific numbers. However, if that number does not divide 'n' into a whole number, then it c","If n can be evenly divisible by a number, whenever you add that number to a certain spot on 'n', then it will continually land on specific numbers. However, if that number does not divide 'n' into a whole number, then it is a generator as it will alw","If n can be evenly divisible by a number, whenever you add that number to a certain spot on 'n', then it will continually land on specific numbers. However, if that number does not divide 'n' into a whole number, then it is a generator as it will al","If n can be evenly divisible by a number, whenever you add that number to a certain spot on 'n', then it will continually land on specific numbers. However, if that number does not divide 'n' into a whole number, then it is a generator as it will a","If n can be evenly divisible by a number, whenever you add that number to a  certain  spot on 'n', then it will continually land on specific numbers. However, if that number does not divide 'n' into a whole number, then it is a generator as it will land on different spots of 'n' until ","If n can be evenly divisible by a number, whenever you add that number to a certain spot on 'n', then it will continually land on specific numbers. However, if that number does not divide 'n' into a whole number, then it is a generator as it will land on different spots of 'n' until","If n can be evenly divisible by a number, whenever you add that number to a certain spot on 'n', then it will continually land on specific numbers. However, if that number does not divide 'n' into a whole number, then it is a generator as it will land on different spots of 'n' unti","If n can be evenly divisible by a number, whenever you add that number to a certain spot on 'n', then it will continually land on specific numbers. However, if that number does not divide 'n' into a whole number, t hen it i s a generator as it will land on different spots of 'n' unt","If n can be evenly divisible by a number, whenever you add that number to a certain spot on 'n', then it will continually land on specific numbers. However, if that number does not divide 'n' into a whole number, then it is a generator as it will land on different spots of 'n' un","If n can be evenly divisible by a number, whenever you add that number to a certain spot on 'n', then it will continually land on specific numbers. However, if that number does not divide 'n' into a whole number, then it is a generator as it will land on different spots of 'n' u","If n can be evenly divisible by a number, whenever you add that number to a certain spot on 'n', then it will continually land on specific numbers. However, if that number does not divide 'n' into a whole number, then it is a generator as it will land on different spots of 'n' ","If n can be evenly divisible by a number, whenever you add that number to a certa in spot  on 'n', then it will continually land on specific numbers. However, if that number does not divide 'n' into a whole number, then it is a generator as it will land on different spots of 'n'","If n can be evenly divisible by a number, whenever you add that number to a certain spot on 'n', then it will continually land on specific numbers. However, if that number does not divide 'n' into a whole number, then it is a generator as it will land on different spots of 'n', f","If n can be evenly divisible by a number, whenever you add that number to a certain spot on 'n', then it will continually land on specific numbers. However, if that number does not divide 'n' into a whole number, then it is a generator as it will land on different spots of 'n', ultimately langd","If n can be evenly divisible by a number, whenever you add that number to a certain spot on 'n', then it will continually land on specific numbers. However, if that number does not divide 'n' into a whole number, then  it is a  generator as it will land on different spots of 'n', ultimately lang","If n can be evenly divisible by a number, whenever you add that number to a certain spot on 'n', then it will continually land on specific numbers. However, if that number does not divide 'n' into a whole number, then it is a generator as it will land on different spots of 'n', ultimately landing on every spot."],"orientation_history":[[0]],"response_history":["True"],"rt":106734,"trial_type":"polygon-arrow-question","trial_index":0,"trial_index_global":72,"time_elapsed":1428395,"internal_chunk_id":"0-0.14-0"},{"nsides":"n","question":"If an element x is a generator under <img src=./images/ngon_symbol.png style=width:14px;height:14px>, is its inverse a generator under <img src=./images/ngon_symbol.png style=width:14px;height:14px> always, sometimes, or never?","response_type":"multi","response_choices":["Always","Sometimes","Never"],"correct_response":"Always","response":"Sometimes","explain":false,"explanation":"","explanation_history":[],"orientation_history":[[0]],"response_history":["Sometimes"],"rt":37590,"trial_type":"polygon-arrow-question","trial_index":0,"trial_index_global":73,"time_elapsed":1465991,"internal_chunk_id":"0-0.14-0"},{"nsides":"n","question":"If an element x is a generator under <img src=./images/ngon_symbol.png style=width:14px;height:14px>, is x <img src=./images/ngon_symbol.png style=width:14px;height:14px> x a generator under <img src=./images/ngon_symbol.png style=width:14px;height:14px> always, sometimes, or never? Please explain in words how you got your answer.","response_type":"multi","response_choices":["Always","Sometimes","Never"],"correct_response":"Sometimes","response":"Always","explain":true,"explanation":"You would keep adding 'x' to itself, if it was a generator, then it would land on new numbers as you add 'x' to itself. But if it's not a generator, it wouldn't land on a new number.","explanation_history":[" I","You would keep adding 'x' to itself, if it was a generator, then it would land on new numbers as you add 'x' to is","You would keep adding 'x' to itself, if it was a generator, then it would land on new numbers as you add 'x' to itself', ","You would keep adding 'x' to itself, if it was a generator, then it would land on new numbers as you add 'x' to itself',","You would keep adding 'x' to itself, if it was a generator, then it would land on new numbers as you add 'x' to itself'","You would keep adding 'x' to itself, if it was a generator, then it would land on new numbers as you add 'x' to itself, bu","You would keep adding 'x' to itself, if it was a generator, then it would land on new numbers as you add 'x' to itself, b","You would keep adding 'x' to itself, if it was a generator, then it would land on new numbers as you add 'x' to itself, ","You would keep adding 'x' to itself, if it was a generator, then it would land on new numbers as you add 'x' to itself,","You w ould kee p adding 'x' to itself, if it was a generator, then it would land on new numbers as you add 'x' to itself. But if it's not a genr","You would keep adding 'x' to itself, if it was a generator, then it would land on new numbers as you add 'x' to itself. But if it's not a generator, it wouldn't land ao","You would keep adding 'x' to itself, if it was a generator, then it would land on new numbers as you add 'x' to itself. But if it's not a generator, it wouldn't land ao","You would keep adding 'x' to itself, if it was a generator, then it would land on new numbers as you add 'x' to itself. But if it's not a generator, it wouldn't land a","You would keep adding 'x' to itself, if it was a generator, then it would land on new numbers as you add 'x' to itself. But if it's not a generator, it wouldn't land on new numbers","You would keep adding 'x' to itself, if it was a generator, then it would land on new numbers as you add 'x' to itself. But if it's not a generator, it wouldn't l and on n e","You would keep adding 'x' to itself, if it was a generator, then it would land on new numbers as you add 'x' to itself. But if it's not a generator, it wouldn't land on n","You would keep adding 'x' to itself, if it was a generator, then it would land on new numbers as you add 'x' to itself. But if it's not a generator, it wouldn't land on a new number that was","You would keep adding 'x' to itself, if it was a generator, then it would land on new numbers as you add 'x' to itself. But if it's not a generator, it wouldn't land on a new number that wa","You would keep adding 'x' to itself, if it was a generator, then it would land on new numbers as you add 'x' to itself. But if it's not a generator, it wouldn't land on a new number t","You would keep adding 'x' to itself, if it was a generator, then it would land on new numbers as you add 'x' to itself. But if it's not a generator, it wouldn't land on a new number ","You would keep adding 'x' to itself, if it was a generat or, then  it would land on new numbers as you add 'x' to itself. But if it's not a generator, it wouldn't land on a new number."],"orientation_history":[[0]],"response_history":["Always"],"rt":107568,"trial_type":"polygon-arrow-question","trial_index":0,"trial_index_global":74,"time_elapsed":1573564,"internal_chunk_id":"0-0.14-0"},{"nsides":"n","question":"If an element x is not a generator under <img src=./images/ngon_symbol.png style=width:14px;height:14px>, is x <img src=./images/ngon_symbol.png style=width:14px;height:14px> x a generator under <img src=./images/ngon_symbol.png style=width:14px;height:14px> always, sometimes, or never?","response_type":"multi","response_choices":["Always","Sometimes","Never"],"correct_response":"Never","response":"Never","explain":false,"explanation":"","explanation_history":[],"orientation_history":[[0]],"response_history":["Never"],"rt":52989,"trial_type":"polygon-arrow-question","trial_index":0,"trial_index_global":75,"time_elapsed":1626559,"internal_chunk_id":"0-0.14-0"},{"instructions":"We would like to ask you some questions about your background. Please press Continue to continue.","rt":2838,"trial_type":"instructions","trial_index":0,"trial_index_global":76,"time_elapsed":1629402,"internal_chunk_id":"0-0.15-0"},{"question":"What is your age?","response_type":"free","response_choices":[],"correct_response":"","response":"32","explain":false,"explanation":"","explanation_history":[],"response_history":["32"],"rt":2075,"trial_type":"question","trial_index":0,"trial_index_global":77,"time_elapsed":1631480,"internal_chunk_id":"0-0.15-0"},{"question":"What is your level of education?","response_type":"multi","response_choices":["Did not graduate high school","High school diploma","Some college, no degree","Associates Degree","Bachelors Degree","Some graduate school, no degree","Masters Degree","Doctorate, M.D., etc."],"correct_response":"","response":"Some college, no degree","explain":false,"explanation":"","explanation_history":[],"response_history":["Some college, no degree"],"rt":3569,"trial_type":"question","trial_index":0,"trial_index_global":78,"time_elapsed":1635050,"internal_chunk_id":"0-0.15-0"},{"question":"What is the most advanced math class you've completed? If you have multiple classes and you're not sure which one is most advanced, please list them.","response_type":"free","response_choices":[],"correct_response":"","response":"College Algebra & Quantitative methods of psychology","explain":false,"explanation":"","explanation_history":[],"response_history":["College Alebra;","College Alebra","College Alebr","College Aleb","College Ale","College Algegbra","College Algegbr","College Algegb","College Algeg","College Algebra. Quanti","College Algebra. Quant","College Algebra. Quan","College Algebra. Qua","College Algebra. Qu","College Algebra. Qa","College Algebra. Quantitative methos i","College Algebra. Quantitative methos ","College Algebra. Quantitative met hos","Co llege Algebra. Quantitative methods of spych","College Algebra. Quantitative methods of spyc","College Algebra. Quantitative methods of spy","College Algebra. Quantitative methods of sp","College Algebra. Quantitative methods of s","College Algebra. Quantitative methods of psychology","College Algebra  Quantitative methods of psychology","College Algebra & Quantitative methods of psychology"],"rt":30241,"trial_type":"question","trial_index":0,"trial_index_global":79,"time_elapsed":1665293,"internal_chunk_id":"0-0.15-0"},{"question":"How familiar are you with the concept of modular arithmetic?","response_type":"multi","response_choices":["1 - never heard of it","2 - heard of it but didn't know what it was","3 - seen it used or explained","4 - used it but not often or recently","5 - used it, remember and understand it"],"correct_response":"1","response":"1 - never heard of it","explain":false,"explanation":"","explanation_history":[],"response_history":["1 - never heard of it"],"rt":6826,"trial_type":"question","trial_index":0,"trial_index_global":80,"time_elapsed":1672122,"internal_chunk_id":"0-0.15-0"},{"question":"How familiar are you with the concept of a mathematical group?","response_type":"multi","response_choices":["1 - never heard of it","2 - heard of it but didn't know what it was","3 - seen it used or explained","4 - used it but not often or recently","5 - used it, remember and understand it"],"correct_response":"1","response":"1 - never heard of it","explain":false,"explanation":"","explanation_history":[],"response_history":["1 - never heard of it"],"rt":3888,"trial_type":"question","trial_index":0,"trial_index_global":81,"time_elapsed":1676012,"internal_chunk_id":"0-0.15-0"},{"question":"Do you feel you learned something from this HIT?","response_type":"multi","response_choices":["1 - not at all","2 - somewhat","3 - definitely"],"correct_response":"1","response":"2 - somewhat","explain":false,"explanation":"","explanation_history":[],"response_history":["2 - somewhat"],"rt":2734,"trial_type":"question","trial_index":0,"trial_index_global":82,"time_elapsed":1678746,"internal_chunk_id":"0-0.15-0"},{"question":"Do you feel you understood the concepts in this HIT?","response_type":"multi","response_choices":["1 - not at all","2 - somewhat","3 - definitely"],"correct_response":"1","response":"2 - somewhat","explain":false,"explanation":"","explanation_history":[],"response_history":["2 - somewhat"],"rt":2273,"trial_type":"question","trial_index":0,"trial_index_global":83,"time_elapsed":1681020,"internal_chunk_id":"0-0.15-0"},{"question":"Did you enjoy this HIT?","response_type":"multi","response_choices":["1 - not at all","2 - somewhat","3 - definitely"],"correct_response":"1","response":"3 - definitely","explain":false,"explanation":"","explanation_history":[],"response_history":["3 - definitely"],"rt":2749,"trial_type":"question","trial_index":0,"trial_index_global":84,"time_elapsed":1683770,"internal_chunk_id":"0-0.15-0 "},{"question":"What is your gender?","response_type":"multi","response_choices":["Female","Male","Other"],"correct_response":"","response":"Female","explain":false,"explanation":"","explanation_history":[],"response_history":["Female"],"rt":1905,"trial_type":"question","trial_index":0,"trial_index_global":85,"time_elapsed":1685676,"internal_chunk_id":"0-0.15-0"},{"question":"What is/are your native language(s)? (The languages spoken in your household when you were a child.)","response_type":"free","response_choices":[],"correct_response":"","response":"English","explain":false,"explanation":"","explanation_history":[],"response_history":["English"],"rt":3418,"trial_type":"question","trial_index":0,"trial_index_global":86,"time_elapsed":1689095,"internal_chunk_id":"0-0.15-0"},{"question":"Did you use pen and paper at any point on this HIT?","response_type":"free","response_choices":[],"correct_response":"","response":"No","explain":false,"explanation":"","explanation_history":[],"response_history":["No"],"rt":2103,"trial_type":"question","trial_index":0,"trial_index_global":87,"time_elapsed":1691199,"internal_chunk_id":"0-0.15-0"},{"question":"Do you have any comments on this HIT?","response_type":"free","response_choices":[],"correct_response":"","response":"I tried my best, I promise! The inverse part was tricky to understand. I think I got it more as there were more questions answered about it, but it was the part I struggled with the most. I think I was able to understand the generator portion of it.","explain":false,"explanation":"","explanation_history":[],"response_history":["I trid","I tried my best, butt h","I tried my best, butt ","I tried my best, butt","I tried my best, but ","I tried my best, I promise! The inverse part was tricky to understand. I think I got it more as th","I tried my best, I promise! The inverse part was tricky to understand. I think I got it more as t","I tried my best, I promise! The inverse part was tricky to understand. I th ink I go t it more as ","I tried my best, I promise! The inverse part was tricky to understand. I think I got it more as","I tried my best, I promise! The inverse part was tricky to understand. I think I got it more a","I tried my best, I promise! The inverse part was tricky to understand. I think I got it more as there were more questions answered about it, but it was the a","I tried my best, I promise! The inverse part was tricky to understand. I think I got it more as there were more questions answered about it, but it was the part I stra","I tried my best, I promise! The inverse part was tricky to understand. I think I got it more as there were more questions answered about it, but it was the part I struggled with the most. The gn","I tried my best, I promise! The inverse part was tricky to understand. I think I got it more as there were more questions answered about it, but it was the part I struggled with the most. The generator portion was prert","I tried my best, I promise! T he inver se part was tricky to understand. I think I got it more as there were more questions answered about it, but it was the part I struggled with the most. The generator portion was prer","I tried my best, I promise! The inverse part was tricky to understand. I think I got it more as there were more questions answered about it, but it was the part I struggled with the most. The generator portion was pretty ","I tried my best, I promise! The inverse part was tricky to understand. I think I got it more as there were more questions answered about it, but it was the part I struggled with the most. I think I was able to pic up","I tried my best, I promise! The inverse part was tricky to understand. I think I got it more as there were more questions answered about it, but it was the part I struggled with the most. I think I was able to pic u","I tried my best, I promise! The inverse part was tricky to understand. I think I got it more as there were more questions answered about it, but  it was  the part I struggled with the most. I think I was able to pic ","I tried my best, I promise! The inverse part was tricky to understand. I think I got it more as there were more questions answered about it, but it was the part I struggled with the most. I think I was able to pic","I tried my best, I promise! The inverse part was tricky to understand. I think I got it more as there were more questions answered about it, but it was the part I struggled with the most. I think I was able to pi","I tried my best, I promise! The inverse part was tricky to understand. I think I got it more as there were more questions answered about it, but it was the part I struggled with the most. I think I was able to p","I tried my best, I promise! The inverse part was tricky to understand. I think I got it more as there were more questions answered about it, but it was the part I struggled with the most. I think I was able to understand the 'g","I tried my best, I promise! The inverse part was  tricky t o understand. I think I got it more as there were more questions answered about it, but it was the part I struggled with the most. I think I was able to understand the '","I tried my best, I promise! The inverse part was tricky to understand. I think I got it more as there were more questions answered about it, but it was the part I struggled with the most. I think I was able to understand the generator portion of it."],"rt":52978,"trial_type":"question","trial_index":0,"trial_index_global":88,"time_elapsed":1744178,"internal_chunk_id":"0-0.15-0"}]