[{"nsides":6,"instructions":"Let's define a new operation <img src=./images/hexagon_symbol.png style=width:14px;height:14px>. This operation will give us a way of combining two of the numbers 0, 1, 2, 3, 4, 5 to get another one of them back. To perform <img src=./images/hexagon_symbol.png style=width:14px;height:14px>, you can either use a method based on the hexagon at right, or a method based on arithmetic.<br /><b>Hexagon method:</b> you can use the interactive diagram on the right, or perform the operation in your mind. Point the arrow at the first number on the hexagon by clicking, then click (or click and drag) to move the arrow the second number of points clockwise around the hexagon. The number the arrow arrives at is your result. (The operation is called <img src=./images/hexagon_symbol.png style=width:14px;height:14px> because it uses the hexagon, which has 6 sides.) <br ><b>Arithmetic method:</b> you start with the first number, and then add  the sec ond one to it. If the sum is smaller than 6, that's your result. If the sum is 6 or bigger, you subtract 6 to get your result. <br /><br />For example, 3 <img src=./images/hexagon_symbol.png style=width:14px;height:14px> 5 = 2, because 5 steps clockwise from 3 on the hexagon brings us to 2. Equivalently, 3 + 5 = 8, and 8 is bigger than 6, so we subtract 6, and 8 - 6 = 2. So 3 <img src=./images/hexagon_symbol.png style=width:14px;height:14px> 5 = 2.<br /><br />Similarly, 1 <img src=./images/hexagon_symbol.png style=width:14px;height:14px> 4 = 5, because 1 + 4 = 5, and 5 is less than 6 so we leave it alone. Equivalently, 4 steps clockwise from 1 on the hexagon brings us to 5. <br /><br />Click Continue when you're ready to move on.","orientation_history":[0],"rt":1257,"trial_type":"polygon-arrow-instructions","trial_index":0,"trial_index_global":1,"time_elapsed":2348,"internal_chunk_id":"0-0"},{"nsides":6,"instructions":"Do you see how the different  ways of  performing <img src=./images/hexagon_symbol.png style=width:14px;height:14px> give the same result? By labeling the points of the hexagon with the numbers from 0 to 5, we ensure that when we combine two numbers using the hexagon, we only produce numbers between 0 and 5. When we use the arithmetic strategy, adding the second number to the first mimics counting around the hexagon, and subtracting 6 each time we get above 5 makes sure the results correspond to the numbers on the points of the hexagon. <br /><br />Click Continue when you're ready to move on.","orientation_history":[0],"rt":876,"trial_type":"polygon-arrow-instructions","trial_index":0,"trial_index_global":2,"time_elapsed":3225,"internal_chunk_id":"0-0"},{"nsides":6,"question":"Now try one on your own! What is 4 <img src=./images/hexagon_symbol.png style=width:14px;height:14px> 5? <br /><br /> (Remember, to perform <img src=./images/hexagon_symbol.png style=width:14px;height:14px>, you  can eit her use a method based on the hexagon at right, or a method based on arithmetic.<br /><br /><b>Hexagon method:</b> you can use the interactive diagram on the right, or perform the operation in your mind. Point the arrow at the first number, then move the arrow the second number of points clockwise around the hexagon. The number the arrow arrives at is your result. <br /><br /><b>Arithmetic method:</b> you start with the first number, and then add the second one to it. If the sum is smaller than 6, that's your result. If the sum is 6 or bigger, you subtract 6 to get your result.)","response_type":"free","response_choices":[],"correct_response":"3","response":"3","explain":false,"explanation":"","explanation_history":[],"orientation_history":[[0]],"response_history":["3"],"rt":3747,"trial_type":"polygon-arrow-question","trial_index":0,"trial_index_global":3,"time_elapsed":6973,"internal_chunk_id":"0-0.3-0"},{"nsides":6,"feedback":"Correct! 4 <img src=./images/hexagon_symbol. png st yle=width:14px;height:14px> 5 = 3 because 5 steps clockwise on the hexagon from 4 brings us to 3. Equivalently, 4 + 5 = 9 and 9 - 6 = 3.","orientation_history":[0],"rt":993,"trial_type":"polygon-arrow-feedback","trial_index":0,"trial_index_global":4,"time_elapsed":7967,"internal_chunk_id":"0-0.3-0"},{"nsides":6,"question":"What is 3 <img src=./images/hexagon_symbol.png style=width:14px;height:14px> 2? Try to solve this problem using the hexagon. <br /><br /> (Remember, to perform <img src=./images/hexagon_symbol.png style=width:14px;height:14px> on the hexagon, you can use the interactive diagram on the right, or perform the operation in your mind. Point the arrow at the first number on the hexagon, and then move the arrow the second number of points clockwise around the hexagon.)","response_type":"free","response_choices":[],"correct_response":"5","response":"5","explain":false,"explanation":"","explanation_history":[],"orientation_history":[[0]],"response_history":["5"],"rt":1941,"trial_type":"polygon-arrow-question","trial_index":0,"trial_index_global":5,"time_elapsed":9910,"internal_chunk_id":"0-0.3-0"},{"nsides":6,"feedback":"Correct! 3 <img src=./images/hexagon_symbol.png style=width:14px;height:14px> 2 = 5 because 2 steps clockwise on the hexagon from 3 brings us to 5. Equivalently, 3 + 2 = 5 and 5 is less than 6.","orientation_history":[0],"rt":1669,"trial_type":"polygon-arrow-feedback","trial_index":0,"trial_index_global":6,"time_elapsed":11579,"internal_chunk_id":"0-0.3-0"},{"nsides":6,"question":"What is 1 <img src=./images/hexagon_symbol.png style=width:14px;height:14px> 5? Try to solve this probem using the arithmetic technique. <br /><br /> (Remember, to perform <img src=./images/hexagon_symbol.png style=width:14px;height:14px> by arithmetic, you start with the first number, and then add the second one to it. If the sum is smaller than 6, that's your result. If the sum is 6 or bigger, you subtra ct 6 to  get your result.)","response_type":"free","response_choices":[],"correct_response":"0","response":"0","explain":false,"explanation":"","explanation_history":[],"orientation_history":[[0]],"response_history":["6","0"],"rt":3481,"trial_type":"polygon-arrow-question","trial_index":0,"trial_index_global":7,"time_elapsed":15061,"internal_chunk_id":"0-0.3-0"},{"nsides":6,"feedback":"Correct! 1 <img src=./images/hexagon_symbol.png style=width:14px;height:14px> 5 = 0 because 1 + 5 = 6 and 6 - 6 = 0.  Equivalently, 5 steps clockwise on the hexagon from 1 brings us to 0.","orientation_history":[0],"rt":943,"trial_type":"polygon-arrow-feedback","trial_index":0,"trial_index_global":8,"time_elapsed":16005,"internal_chunk_id":"0-0.3-0"},{"nsides":6,"question":"What is 1 <img src=./images/hexagon_symbol.png style=width:14px;height:14px> 1? Try to solve this problem using the hexagon. <br /><br /> (Remember, to perform <img src=./images/hexagon_symbol.png style=width:1 4px;heig ht:14px> on the hexagon, you can use the interactive diagram on the right, or perform the operation in your mind. Point the arrow at the first number on the hexagon, and then move the arrow the second number of points clockwise around the hexagon.)","response_type":"free","response_choices":[],"correct_response":"2","response":"2","explain":false,"explanation":"","explanation_history":[],"orientation_history":[[0]],"response_history":["2"],"rt":1549,"trial_type":"polygon-arrow-question","trial_index":0,"trial_index_global":9,"time_elapsed":17555,"internal_chunk_id":"0-0.3-0"},{"nsides":6,"feedback":"Correct! 1 <img src=./images/hexagon_symbol.png style=width:14px;height:14px> 1 = 2 because 1 step clockwise on the hexagon from 1 brings us to 2. Equivalently, 1 + 1 = 2 and 2 is less than 6.","orientation_history":[0],"rt":597,"trial_type":"polygon-arrow-feedback","trial_index":0,"trial_index_global":10,"time_elapsed":18153,"internal_chunk_id":"0-0.3-0"},{"nsides":6,"question":"What is 3 <img src=./images/hexagon_symbol.png style=width:14px;height:14px> 0? Try to solve this problem using the arithmetic technique. <br /><br /> (Remember, to perform <img src=./images/hexagon_symbol.png style=width:14px;height:14px> using arithmetic, you start with the first number, and then add the second one to it. If the sum is smaller than 6, that's your result. If the sum is 6 or bigger, you subtract 6 to get your result.)","response_type":"free","response_choices":[],"correct_response":"3","response":"3","explain":false,"explanation":"","explanation_history":[],"orientation_history":[[0]],"response_history":["3"],"rt":2403,"trial_type":"polygon-arrow-question","trial_index":0,"trial_index_global":11,"time_elapsed":20557,"internal_chunk_id":"0-0.3-0"},{"nsides":6,"feedback":"Correct! 3 <img src=./images/hexagon_symbol.png style=width:14px;height:14px> 0 = 3 because 3 + 0 = 3 and 3 - 6 = 3.  Equivalently, 0 steps clockwise on the hexagon  from 3  brings us to 3.","orientation_history":[0],"rt":637,"trial_type":"polygon-arrow-feedback","trial_index":0,"trial_index_global":12,"time_elapsed":21195,"internal_chunk_id":"0-0.3-0"},{"nsides":6,"question":"What is 4 <img src=./images/hexagon_symbol.png style=width:14px;height:14px> 4? Try to solve this problem using the hexagon. <br /><br /> (Remember, to perform <img src=./images/hexagon_symbol.png style=width:14px;height:14px> on the hexagon, you can use the interactive diagram on the right, or perform the operation in your mind. Point the arrow at the first number on the hexagon, and then move the arrow the second number of points clockwise around the hexagon.)","response_type":"free","response_choices":[],"correct_response":"2","response":"2","explain":false,"explanation":"","explanation_history":[],"orientation_history":[[0]],"response_history":["2"],"rt":2104,"trial_type":"polygon-arrow-question","trial_index":0,"trial_index_global":13,"time_elapsed":23300,"internal_chunk_id":"0-0.3-0"},{"nsides":6,"feedback":"Correct! 4 <img src=./images/hexagon_symbol.png style=width:14px;height:14px> 4 = 2 because 4 steps clockwise on the hexagon from 4 brings us to 2. Equivalently, 4 + 4 = 8 and 8 - 6 = 2.","orientation_history":[0],"rt":586,"trial_type":"polygon-arrow-feedback","trial_index":0,"trial_index_global":14,"time_elapsed":23887,"internal_chunk_id":"0-0.3-0"},{"nsides":6,"question":"What is 1 <img src=./images/hexagon_symbol.png style=width:14px;height:14px> 3? Try to solve this problem using the arithmetic technique. <br /><br /> (Remember, to perform <img src=./images/hexagon_symbol.png style=width:14px;height:14px> by arithmetic, you start with the first number, and then add the second one to it. If the sum is smaller than 6, that's your result. If the sum is 6 or bigger, you subtract 6 to get your result.)","response_type":"free","response_choices":[],"correct_response":"4","response":"4","explain":false,"explanation":"","explanation_history":[],"orientation_history":[[0]],"response_history":["4"],"rt":1586,"trial_type":"polygon-arrow-question","trial_index":0,"trial_index_global":15,"time_elapsed":25474,"internal_chunk_id":"0-0.3-0"},{"nsides":6,"feedback":"Correct! 1 <img src=./images/hexagon_symbol.png style=width:14px;height:14px> 3 = 4 because 1 + 3 = 4 and 4 - 6 = 4.  Equivalently, 3 steps clockwise on the hexagon from 1 brings us to 4.","orientation_history":[0],"rt":611,"trial_type":"polygon-arrow-feedback","trial_index":0,"trial_index_global":16,"time_elapsed":26086,"internal_chunk_id":"0-0.3-0"},{"nsides":6,"question":"What is 4 <img src=./images/hexagon_symbol.png style=width:14px;height:14px> 3? <br /><br /> (Remember, to perform <img src=./images/hexagon_symbol.png style=width:14px;height:14px>, you can either use a method based on the hexagon at right, or a method based on arithmetic.<br /><br /><b>Hexagon method:</b> you can use the interactive  diagram  on the right, or perform the operation in your mind. Point the arrow at the first number, then move the arrow the second number of points clockwise around the hexagon. The number the arrow arrives at is your result. <br /><br /><b>Arithmetic method:</b> you start with the first number, and then add the second one to it. If the sum is smaller than 6, that's your result. If the sum is 6 or bigger, you subtract 6 to get your result.)","response_type":"free","response_choices":[],"correct_response":"1","response":"7","explain":false,"explanation":"","explanation_history":[],"orientation_history":[[0]],"response_history":["7"],"rt":1952,"trial_type":"polygon-arrow-question","trial_index":0,"trial_index_global":17,"time_elapsed":28039,"internal_chunk_id":"0-0.3-0"},{"nsides":6,"feedback":"Sorry, that was incorrect. 4 <img src=./images/hexagon_symbol.png style=width:14px;height:14px> 3 = 1 because 3 steps clockwise on the hexagon from 4 brings us to 1. Equivalently, 4 + 3 =  7 and 7  - 6 = 1.","orientation_history":[0],"rt":2910,"trial_type":"polygon-arrow-feedback","trial_index":0,"trial_index_global":18,"time_elapsed":30950,"internal_chunk_id":"0-0.3-0"},{"nsides":6,"question":"What is 0 <img src=./images/hexagon_symbol.png style=width:14px;height:14px> 5? <br /><br /> (Remember, to perform <img src=./images/hexagon_symbol.png style=width:14px;height:14px>, you can either use a method based on the hexagon at right, or a method based on arithmetic.<br /><br /><b>Hexagon method:</b> you can use the interactive diagram on the right, or perform the operation in your mind. Point the arrow at the first number, then move the arrow the second number of points clockwise around the hexagon. The number the arrow arrives at is your result. <br /><br /><b>Arithmetic method:</b> you start with the first number, and then add the second one to it. If the sum is smaller than 6, that's your result. If the sum is 6 or bigger, you subtract 6 to get your r esult.)","response_type":"free","response_choices":[],"correct_response":"5","response":"5","explain":false,"explanation":"","explanation_history":[],"orientation_history":[[0]],"response_history":["5"],"rt":1936,"trial_type":"polygon-arrow-question","trial_index":0,"trial_index_global":19,"time_elapsed":32886,"internal_chunk_id":"0-0.3-0"},{"nsides":6,"feedback":"Correct! 0 <img src=./images/hexagon_symbol.png style=width:14px;height:14px> 5 = 5 because 5 steps clockwise on the hexagon from 0 brings us to 5. Equivalently, 0 + 5 = 5 and 5 is less than 6.","orientation_history":[0],"rt":1131,"trial_type":"polygon-arrow-feedback","trial_index":0,"trial_index_global":20,"time_elapsed":34018,"internal_chunk_id":"0-0.3-0"},{"nsides":6,"question":"What is 2 <img src=./images/hexagon_symbol.png style=width:14px;height:14px> 5? <br /><br /> (Remember, to perform <img src=./images/hexagon_symbol.png style=width:14px;height:14px>, you can either use a method based on t he hexag on at right, or a method based on arithmetic.<br /><br /><b>Hexagon method:</b> you can use the interactive diagram on the right, or perform the operation in your mind. Point the arrow at the first number, then move the arrow the second number of points clockwise around the hexagon. The number the arrow arrives at is your result. <br /><br /><b>Arithmetic method:</b> you start with the first number, and then add the second one to it. If the sum is smaller than 6, that's your result. If the sum is 6 or bigger, you subtract 6 to get your result.)","response_type":"free","response_choices":[],"correct_response":"1","response":"1","explain":false,"explanation":"","explanation_history":[],"orientation_history":[[0]],"response_history":["1"],"rt":1924,"trial_type":"polygon-arrow-question","trial_index":0,"trial_index_global":21,"time_elapsed":35944,"internal_chunk_id":"0-0.3-0"},{"nsides":6,"feedback":"Correct! 2 <img src=./images/hexagon_symbol.png style=width:14px;height:1 4px> 5  = 1 because 5 steps clockwise on the hexagon from 2 brings us to 1. Equivalently, 2 + 5 = 7 and 7 - 6 = 1.","orientation_history":[0],"rt":806,"trial_type":"polygon-arrow-feedback","trial_index":0,"trial_index_global":22,"time_elapsed":36751,"internal_chunk_id":"0-0.3-0"},{"nsides":6,"instructions":"Now we're going to discuss a couple special properties of this new operation, <img src=./images/hexagon_symbol.png style=width:14px;height:14px> that we've learned. First, notice that the number 0 behaves in a special way under <img src=./images/hexagon_symbol.png style=width:14px;height:14px>. Whenever we combine 0 with anything else, we get that same thing back. We'll say that 0 is the <i>identity</i> under <img src=./images/hexagon_symbol.png style=width:14px;height:14px>, because when you combine it with something it gives you that identical thing back.","orientation_history":[0],"rt":1162,"trial_type":"polygon-arrow-instructions","trial_index":0,"trial_index_global":23,"time_elapsed":37915,"internal_chunk_id":"0-0"},{"nsides":6,"instructions":"Now that we know 0 is the identity under <img src=./images/hexagon_symbol.png style=width:14px;height:14px>, we're going to make a new definition. We'll say that the <i>inverse</i> of a number is the element that you combine with it to produce the identity. For example, 5 <img src=./images/hexagon_symbol.png style=width:14px;height:14px> 1 = 0, so we say 1 is the inverse of 5 under <img src=./images/hexagon_symbol.png style=width:14px;height:14px>, (remember 0 is the identity under <img src=./images/hexagon_symbol.png style=width:14px;height:14px>). Similarly, 3 is its own inverse under <img src=./images/hexagon_symbol.png style=width:14px;height:14px>, because 3 <img src=./images/hexagon_symbol.png style=width:14px;height:14px> 3 = 0.","orientation_history":[0],"rt":2208,"trial_type":"polygon-arrow-instructions","trial_index":0,"trial_index_global":24,"time_elapsed":40124,"internal_chunk_id":"0-0"},{"nsides":6,"question":"Now you try! What is the inverse of 4 under <img src=./images/hexagon_symbol.png style=width:14px;height:14px>? <br /><br /> (Remember, the inverse of an element is the thing which you combine with it to produce the identity.)","response_type":"free","response_choices":[],"correct_response":"2","response":"2","explain":false,"explanation":"","explanation_history":[],"orientation_history":[[0]],"response_history":["2"],"rt":2083,"trial_type":"polygon-arrow-question","trial_index":0,"trial_index_global":25,"time_elapsed":42208,"internal_chunk_id":"0-0.7-0"},{"nsides":6,"feedback":"Correct! The inverse of 4 under <img src=./images/hexagon_symbol.png style=width:14px;height:14px> is 2 because 4 <img src=./images/hexagon_symbol.png style=width:14px;height:14px> 2 = 0, and 0 is the identity under <img src=./images/hexagon_symbol.png style=width:14px;height:14px>.","orientation_history":[0],"rt":650,"trial_type":"polygon-arrow-feedback","trial_index":0,"trial_index_global":26,"time_elapsed":42859,"internal_chunk_id":"0-0.7-0"},{"nsides":6,"question":"What is the inverse of 1 under <img src=./images/hexagon_symbol.png style=width:14px;height:14px>? <br /><br /> (Remember, the inverse of an element is the thing which you combine with it to produce the identity.)","response_type":"free","response_choices":[],"correct_response":"5","response":"5","explain":false,"explanation":"","explanation_history":[],"orientation_history":[[0]],"response_history":["5"],"rt":1849,"trial_type":"polygon-arrow-question","trial_index":0,"trial_index_global":27,"time_elapsed":44709,"internal_chunk_id":"0-0.7-0"},{"nsides":6,"feedback":"Correct! The inverse of 1 under <img src=./images/hexagon_symbol.png style=width:14px;height:14px> is 5 because 1 <img src=./images/hexagon_symbol.png style=width:14px;height:14px> 5 = 0, and 0 is the identity under <img  src=./ images/hexagon_symbol.png style=width:14px;height:14px>.","orientation_history":[0],"rt":740,"trial_type":"polygon-arrow-feedback","trial_index":0,"trial_index_global":28,"time_elapsed":45450,"internal_chunk_id":"0-0.7-0"},{"nsides":6,"question":"What is the inverse of 3 under <img src=./images/hexagon_symbol.png style=width:14px;height:14px>? <br /><br /> (Remember, the inverse of an element is the thing which you combine with it to produce the identity.)","response_type":"free","response_choices":[],"correct_response":"3","response":"3","explain":false,"explanation":"","explanation_history":[],"orientation_history":[[0]],"response_history":["3"],"rt":1381,"trial_type":"polygon-arrow-question","trial_index":0,"trial_index_global":29,"time_elapsed":46831,"internal_chunk_id":"0-0.7-0"},{"nsides":6,"feedback":"Correct! The inverse of 3 under <img src=./images/hexagon_symbol.png style=width:14px;height:14px> is 3 because 3 <img src=./images/hexagon_symbo l.png  style=width:14px;height:14px> 3 = 0, and 0 is the identity under <img src=./images/hexagon_symbol.png style=width:14px;height:14px>.","orientation_history":[0],"rt":597,"trial_type":"polygon-arrow-feedback","trial_index":0,"trial_index_global":30,"time_elapsed":47429,"internal_chunk_id":"0-0.7-0"},{"nsides":6,"question":"What is the inverse of 2 under <img src=./images/hexagon_symbol.png style=width:14px;height:14px>? <br /><br /> (Remember, the inverse of an element is the thing which you combine with it to produce the identity.)","response_type":"free","response_choices":[],"correct_response":"4","response":"4","explain":false,"explanation":"","explanation_history":[],"orientation_history":[[0]],"response_history":["4"],"rt":1666,"trial_type":"polygon-arrow-question","trial_index":0,"trial_index_global":31,"time_elapsed":49096,"internal_chunk_id":"0-0.7-0"},{"nsides":6,"feedback":"Correct! The inverse of 2 under <img src=./images/hexagon_symbol.png  style= width:14px;height:14px> is 4 because 2 <img src=./images/hexagon_symbol.png style=width:14px;height:14px> 4 = 0, and 0 is the identity under <img src=./images/hexagon_symbol.png style=width:14px;height:14px>.","orientation_history":[0],"rt":532,"trial_type":"polygon-arrow-feedback","trial_index":0,"trial_index_global":32,"time_elapsed":49629,"internal_chunk_id":"0-0.7-0"},{"nsides":6,"question":"What is the inverse of 0 under <img src=./images/hexagon_symbol.png style=width:14px;height:14px>? <br /><br /> (Remember, the inverse of an element is the thing which you combine with it to produce the identity.)","response_type":"free","response_choices":[],"correct_response":"0","response":"0","explain":false,"explanation":"","explanation_history":[],"orientation_history":[[0]],"response_history":["9","0"],"rt":4340,"trial_type":"polygon-arrow-question","trial_index":0,"trial_index_global":33,"time_elapsed":53969,"internal_chunk_id":"0-0.7-0"},{"nsides":6,"feedback":"Correct! The inverse of 0 under <img src=./images/hexagon_symbol.png style=width:14px;height:14px> is 0 because 0 <img src=./images/hexagon_symbol.png style=width:14px;height:14px> 0 = 0, and 0 is the identity under <img src=./images/hexagon_symbol.png style=width:14px;height:14px>.","orientation_history":[0],"rt":628,"trial_type":"polygon-arrow-feedback","trial_index":0,"trial_index_global":34,"time_elapsed":54598,"internal_chunk_id":"0-0.7-0"},{"nsides":6,"instructions":"It is also possible to successively apply <img src=./images/hexagon_symbol.png style=width:14px;height:14px>, and the operation can simply be performed starting with the left-most pair. For example, 2 <img src=./images/hexagon_symbol.png style=width:14px;height:14px> 3 <img src=./images/hexagon_symbol.png style=width:14px;height:14px> 4 = 5 <img src=./images/hexagon_symbol.png style=width:14px;height:14px> 4 = 3.","orientation_history":[0],"rt":3442,"trial_type":"polygon-arrow-instructions","trial_index":0,"trial_index_global":35,"time_elapsed":58042,"internal_chunk_id":"0-0"},{"nsides":6,"instructions":"We have one last definition to learn today, using the successive operations we just learned. Let's start with an example. Under our operation <img src=./images/hexagon_symbol.png style=width:14px;height:14px> we can make every other number using just 1: 2 = 1 <img src=./images/hexagon_symbol.png style=width:14px;height:14px> 1, 3 = 1 <img src=./images/hexagon_symbol.png style=width:14px;height:14px> 1 <img src=./images/hexagon_symbol.png style=width:14px;height:14px> 1, 4 = 1 <img src=./images/hexagon_symbol.png style=width:14px;height:14px> 1 <img src=./images/hexagon_symbol.png style=width:14px;height:14px> 1 <img src=./images/hexagon_symbol.png style=width:14px;height:14px> 1, 5 = 1 <img src=./images/hexagon_symbol.png style=width:14px;height:14px> 1 <img sr c=./im ages/hexagon_symbol.png style=width:14px;height:14px> 1 <img src=./images/hexagon_symbol.png style=width:14px;height:14px> 1 <img src=./images/hexagon_symbol.png style=width:14px;height:14px> 1, and 0 = 1 <img src=./images/hexagon_symbol.png style=width:14px;height:14px> 1 <img src=./images/hexagon_symbol.png style=width:14px;height:14px> 1 <img src=./images/hexagon_symbol.png style=width:14px;height:14px> 1 <img src=./images/hexagon_symbol.png style=width:14px;height:14px> 1 <img src=./images/hexagon_symbol.png style=width:14px;height:14px> 1. Because 1 can make every other element under <img src=./images/hexagon_symbol.png style=width:14px;height:14px>, we say that 1 is a <i>generator</i> under <img src=./images/hexagon_symbol.png style=width:14px;height:14px>. <br /><br /> However, 2 is not a generator under <img src=./images/hexagon_symbol.png style=width:14px;height:14px>, because 4 =  2 <img s rc=./images/hexagon_symbol.png style=width:14px;height:14px> 2, and 0 = 2 <img src=./images/hexagon_symbol.png style=width:14px;height:14px> 2 <img src=./images/hexagon_symbol.png style=width:14px;height:14px> 2, but there is no way to make 1, 3, or 5 using just 2.","orientation_history":[0],"rt":3371,"trial_type":"polygon-arrow-instructions","trial_index":0,"trial_index_global":36,"time_elapsed":61414,"internal_chunk_id":"0-0"},{"nsides":6,"question":"Now you try! Is 3 a generator under <img src=./images/hexagon_symbol.png style=width:14px;height:14px>? <br /><br /> (Remember, a generator is an element which can make every other element.)","response_type":"multi","response_choices":["Yes","No"],"correct_response":"No","response":"No","explain":false,"explanation":"","explanation_history":[],"orientation_history":[[0]],"response_history":["No"],"rt":3922,"trial_type":"polygon-arrow-question","trial_index":0,"trial_index_global":37,"time_elapsed":65336,"internal_chunk_id":"0-0.10-0"},{"nsides":6,"feedback":"Correct! 3 is not a generator under <img src=./images/hexagon_symbol.png style=width:14px;height:14px>, because 3 = 3, 0 = 3 <img src=./images/hexagon_symbol.png style=width:14px;height:14px> 3, but there is no way to make 1, 2, 4, or 5 using just 3.","orientation_history":[0],"rt":1093,"trial_type":"polygon-arrow-feedback","trial_index":0,"trial_index_global":38,"time_elapsed":66431,"internal_chunk_id":"0-0.10-0"},{"nsides":6,"question":"Is 5 a generator under <img src=./images/hexagon_symbol.png style=width:14px;height:14px>? <br /><br /> (Remember, a generator is an element which can make every other element.)","response_type":"multi","response_choices":["Yes","No"],"correct_response":"Yes","response":"Yes","explain":false,"explanation":"","explanation_history":[],"orientation_history":[[0]],"response_history":["Yes"],"rt":2073,"trial_type":"polygon-arrow-question","trial_index":0,"trial_index_global":39,"time_elapsed":68504,"internal_chunk_id":"0-0.10-0"},{"nsides":6,"feedback":"Correct! 5 is a generator under <img src=./images/hexagon_symbol.png style=width:14px;height:14px>, because 5 = 5, 4 = 5 <img src=./images/hexagon_symbol.png style=width:14px;height:14px> 5, 3 = 5 <img src=./images/hexagon_symbol.png style=width:14px;height:14px> 5 <img src=./images/hexagon_symbol.png style=width:14px;height:14px> 5, 2 = 5 <img src=./images/hexagon_symbol.png style=width:14px;height:14px> 5 <img src=./images/hexagon_symbol.png style=width:14px;height:14px> 5 <img src=./images/hexagon_symbol.png style=width:14px;height:14px> 5, 1 = 5 <img src=./images/hexagon_symbol.png style=width:14px;height:14px> 5 <img src=./images/hexagon_symbol.png style=width:14px;height:14px> 5 <img src=./images/hexagon_symbol.png style=width:14px;height:14px> 5 <img src=./images/hexagon_symbol.png style=width:14px;heig ht:14px> 5, and 0 = 5 <img src=./images/hexagon_symbol.png style=width:14px;height:14px> 5 <img src=./images/hexagon_symbol.png style=width:14px;height:14px> 5 <img src=./images/hexagon_symbol.png style=width:14px;height:14px> 5 <img src=./images/hexagon_symbol.png style=width:14px;height:14px> 5 <img src=./images/hexagon_symbol.png style=width:14px;height:14px> 5, so you can make all of the numbers under <img src=./images/hexagon_symbol.png style=width:14px;height:14px> using 5","orientation_history":[0],"rt":785,"trial_type":"polygon-arrow-feedback","trial_index":0,"trial_index_global":40,"time_elapsed":69290,"internal_chunk_id":"0-0.10-0"},{"nsides":6,"question":"Is 4 a generator under <img src=./images/hexagon_symbol.png style=width:14px;height:14px>? <br /><br /> (Remember, a generator is an element which can make every other element.)","response_type":"multi","response_choices":["Yes","No"],"correct_response":"No","response":"N o","explain":false,"explanation":"","explanation_history":[],"orientation_history":[[0]],"response_history":["No"],"rt":2237,"trial_type":"polygon-arrow-question","trial_index":0,"trial_index_global":41,"time_elapsed":71528,"internal_chunk_id":"0-0.10-0"},{"nsides":6,"feedback":"Correct! 4 is not a generator under <img src=./images/hexagon_symbol.png style=width:14px;height:14px>, because 4 = 4, 2 = 4 <img src=./images/hexagon_symbol.png style=width:14px;height:14px> 4, and 0 = 4 <img src=./images/hexagon_symbol.png style=width:14px;height:14px> 4 <img src=./images/hexagon_symbol.png style=width:14px;height:14px> 4, but there is no way to make 1, 3, or 5 using just 4.","orientation_history":[0],"rt":673,"trial_type":"polygon-arrow-feedback","trial_index":0,"trial_index_global":42,"time_elapsed":72202,"internal_chunk_id":"0-0.10-0"},{"nsides":6,"question":"Is 0 a generator under <img src=./images/hexagon_symbol.png style=width:14px;height :14px> ? <br /><br /> (Remember, a generator is an element which can make every other element.)","response_type":"multi","response_choices":["Yes","No"],"correct_response":"No","response":"No","explain":false,"explanation":"","explanation_history":[],"orientation_history":[[0]],"response_history":["Yes","No"],"rt":2737,"trial_type":"polygon-arrow-question","trial_index":0,"trial_index_global":43,"time_elapsed":74940,"internal_chunk_id":"0-0.10-0"},{"nsides":6,"feedback":"Correct! 0 is not a generator under <img src=./images/hexagon_symbol.png style=width:14px;height:14px>, because 0 = 0, but there is no way to make 1, 2, 3, 4, or 5 using just 0.","orientation_history":[0],"rt":674,"trial_type":"polygon-arrow-feedback","trial_index":0,"trial_index_global":44,"time_elapsed":75614,"internal_chunk_id":"0-0.10-0"},{"nsides":9,"instructions":"Now we are going to ask you some questions about a new operation, <img src=./images/nonagon_symbol.png style=width:14px;height:14px >, on th e numbers 0, 1, 2, 3, 4, 5, 6, 7, 8. It works exactly like <img src=./images/hexagon_symbol.png style=width:14px;height:14px>, except now you use the nonagon shown at the right. Equivalently, after adding the two numbers you subtract 9 if your result is 9 or greater.<br /><br />Do you see how the different ways of performing <img src=./images/nonagon_symbol.png style=width:14px;height:14px> give the same result, just like with <img src=./images/hexagon_symbol.png style=width:14px;height:14px>? By labeling the points of the nonagon with the numbers from 0 to 8, we ensure that when we combine two numbers under <img src=./images/nonagon_symbol.png style=width:14px;height:14px>, we only produce numbers between 0 and 8. When we use the arithmetic strategy, adding the second number to the first mimics counting around the nonagon, and subtracting 9 each time we get above 8 makes sure the results correspond to the numbers on the points of the nonagon. <br /><b r />We'll give you one practice question with feedback to make sure you understand the new operation. After that, try to complete the remaining questions as accurately as possible.","orientation_history":[0],"rt":1560,"trial_type":"polygon-arrow-instructions","trial_index":0,"trial_index_global":45,"time_elapsed":77174,"internal_chunk_id":"0-0"},{"nsides":9,"question":"Practice: What is 5 <img src=./images/nonagon_symbol.png style=width:14px;height:14px> 5?","response_type":"free","response_choices":[],"correct_response":"1","response":"1","explain":false,"explanation":"","explanation_history":[],"orientation_history":[[0]],"response_history":["1"],"rt":5532,"trial_type":"polygon-arrow-question","trial_index":0,"trial_index_global":46,"time_elapsed":82706,"internal_chunk_id":"0-0.12-0"},{"nsides":9,"feedback":"Correct! 5 <img src=./images/nonagon_symbol.png style=width:14px;height:14px> 5 = 1 because 5 steps clockwise on the nonagon from 5 brings us to 1. Equ ivalentl y, 5 + 5 = 10 and 10 - 9 = 1.","orientation_history":[0],"rt":706,"trial_type":"polygon-arrow-feedback","trial_index":0,"trial_index_global":47,"time_elapsed":83414,"internal_chunk_id":"0-0.12-0"},{"nsides":9,"question":"What is 3 <img src=./images/nonagon_symbol.png style=width:14px;height:14px> 3?","response_type":"free","response_choices":[],"correct_response":"6","response":"6","explain":false,"explanation":"","explanation_history":[],"orientation_history":[[0]],"response_history":["6"],"rt":2238,"trial_type":"polygon-arrow-question","trial_index":0,"trial_index_global":48,"time_elapsed":85652,"internal_chunk_id":"0-0.12-0"},{"nsides":9,"question":"What is 7 <img src=./images/nonagon_symbol.png style=width:14px;height:14px> 4?","response_type":"free","response_choices":[],"correct_response":"2","response":"2","explain":false,"explanation":"","explanation_history":[],"orientation_history":[[0]],"response_history":["2"],"rt":1640,"trial_type":"polygon-arrow -questio n","trial_index":0,"trial_index_global":49,"time_elapsed":87293,"internal_chunk_id":"0-0.12-0"},{"nsides":9,"question":"What is 1 <img src=./images/nonagon_symbol.png style=width:14px;height:14px> 8?","response_type":"free","response_choices":[],"correct_response":"0","response":"0","explain":false,"explanation":"","explanation_history":[],"orientation_history":[[0]],"response_history":["0"],"rt":2426,"trial_type":"polygon-arrow-question","trial_index":0,"trial_index_global":50,"time_elapsed":89720,"internal_chunk_id":"0-0.12-0"},{"nsides":9,"question":"What is 5 <img src=./images/nonagon_symbol.png style=width:14px;height:14px> 4?","response_type":"free","response_choices":[],"correct_response":"0","response":"0","explain":false,"explanation":"","explanation_history":[],"orientation_history":[[0]],"response_history":["0"],"rt":2461,"trial_type":"polygon-arrow-question","trial_index":0,"trial_index_global":51,"time_elapsed":92182,"internal_chunk_id":"0-0.12-0 "},{"nsides":9,"question":"What is 6 <img src=./images/nonagon_symbol.png style=width:14px;height:14px> 6?","response_type":"free","response_choices":[],"correct_response":"3","response":"3","explain":false,"explanation":"","explanation_history":[],"orientation_history":[[0]],"response_history":["3"],"rt":4117,"trial_type":"polygon-arrow-question","trial_index":0,"trial_index_global":52,"time_elapsed":96300,"internal_chunk_id":"0-0.12-0"},{"nsides":9,"instructions":"On the following question, and several others later in the HIT, we will ask you to explain how you got your answer. On these questions, you will be given one box for your answer to the question, and a second for your explanation. Please explain your thought process in as much detail as possible (at least one sentence, and more if you can).","orientation_history":[0],"rt":1848,"trial_type":"polygon-arrow-instructions","trial_index":0,"trial_index_global":53,"time_elapsed":98149,"internal_chunk_id":"0-0.12-0"},{"nsides":9,"question":"What is 4 <img src=./images/nonagon_symbol.png style=width:14px;height:14px> 1? Please explain in words how you got your answer.","response_type":"free","response_choices":[],"correct_response":"5","response":"5","explain":true,"explanation":"4+1=5, less than 9 so thats the answer","explanation_history":["4+1=5, less than 9 so thats the answer"],"orientation_history":[[0]],"response_history":["5"],"rt":16801,"trial_type":"polygon-arrow-question","trial_index":0,"trial_index_global":54,"time_elapsed":114952,"internal_chunk_id":"0-0.12-0"},{"nsides":9,"question":"What is 8 <img src=./images/nonagon_symbol.png style=width:14px;height:14px> 4? Please explain in words how you got your answer.","response_type":"free","response_choices":[],"correct_response":"3","response":"3","explain":true,"explanation":"8+4=12, >= 9 so answer is: 12-9=3","explanation_history":["8+4=12, more than 9 ","8+4=12, more than ","8+4=12, more ","8+4=12, >= 1","8+4=12, >= 9 so  12-9","8 +4=12, >= 9 so 12-","8+4=12, >= 9 so answer is: 12-9=3"],"orientation_history":[[0]],"response_history":["3"],"rt":24826,"trial_type":"polygon-arrow-question","trial_index":0,"trial_index_global":55,"time_elapsed":139779,"internal_chunk_id":"0-0.12-0"},{"nsides":9,"question":"What is the identity under <img src=./images/nonagon_symbol.png style=width:14px;height:14px>? Please explain in words how you got your answer.","response_type":"free","response_choices":[],"correct_response":"0","response":"0","explain":true,"explanation":"The operator with 0 and any number under 9 always gives that number.","explanation_history":["0 (0)","0 (0","0 (9) x == x","0 (9) x == ","Operator with","Operator ","0 operator X ","0 operator ","0 ","THat oper","THat ","That operator with ) +","That operator with ) ","That operator with )","That operator with 90 ","That operator with 90","That operator with 9","That operator with 0 + any number always gives that number.","Toperator with 0 +  any numb er always gives that number.","Theoperator with 0 + any number always gives that number.","The operator with 0 + any number always gives that number.","The operator with 0  any number always gives that number.","The operator with 0 a any number always gives that number.","The operator with 0 and any number always gives that number.","The operator with 0 and any numberu always gives that number.","The operator with 0 and any numberun always gives that number.","The operator with 0 and any numberu always gives that number.","The operator with 0 and any number always gives that number.","The operator with 0 and any number u always gives that number.","The operator with 0 and any number un always gives that number.","The operator with 0 and any number und always gives that number.","The operator with 0 and any number under  always gives that number.","The operator with 0 and any number under 9 always gives that number."],"orientation_history":[[0]],"response_history":["0"],"rt":64336,"trial_type":"polygon-arrow-question","trial_index":0,"trial_index_global":56,"time_elapsed":204118,"internal_chunk_id":"0-0.12-0"},{"nsides":9,"question":"What is the inverse of 5 under <img src=./images/nonagon_symbol.png style=width:14px;height:14px>?","response_type":"free","response_choices":[],"correct_response":"4","response":"4","explain":false,"explanation":"","explanation_history":[],"orientation_history":[[0]],"response_history":["4"],"rt":4666,"trial_type":"polygon-arrow-question","trial_index":0,"trial_index_global":57,"time_elapsed":208785,"internal_chunk_id":"0-0.12-0"},{"nsides":9,"question":"What is the inverse of 2 under <img src=./images/nonagon_symbol.png style=width:14px;height:14px>?","response_type":"free","response_choices":[],"correct_response":"7","response":"7","explain":false,"explanation":"","explanation_history":[],"orientation_history":[[0]],"response_history":["8","7"],"rt":2948,"trial_type":"polygon-arrow-question","trial_index":0,"trial_index_global":58,"time_elapsed":211734,"internal_chunk_id":"0-0.12-0"},{"nsides":9,"question":"What is the inverse of 0 under <img src=./images/nonagon_symbol.png style=width:14px;height:14px>?","response_type":"free","response_choices":[],"correct_response":"0","response":"0","explain":false,"explanation":"","explanation_history":[],"orientation_history":[[0]],"response_history":["0"],"rt":3628,"trial_type":"polygon-arrow-question","trial_index":0,"trial_index_global":59,"time_elapsed":215363,"internal_chunk_id":"0-0.12-0"},{"nsides":9,"question":"What is the inverse of 3 under <img src=./images/nonagon_symbol.png style=width:14px;height:14px>? Please explain in words how you got your answer.","response_type":"free","response_choices":[],"correct_response":"6","response":"6","explain":true,"explanation":"The inverse of 3 is the lowest number that adds up to 9, so 3+6","explanation_history":["3+6 ","3+6","3+","3","The inverse is the 2 num","The inverse is t he 2 low est numbers that give 0","The inverse is the 2 lowest numbers that give ","The inverse is the 2 lowest numbers that ","The inverse is the 2 lowest numbers ","The inverse is the 2 lowest ","The inverse is the 2 ","The inverse is the lowest number fo","The inverse is the lowest number that makes ","The inverse is the ","The inverse is ","The inverse of 3 is the number that gives 0, so the goal in this caa","The inverse of 3 is the number that gives 0, so the goal in this ","The inverse of 3 is the number that gives 0, so the goal in ","The inverse of 3 is the number that gives 0, so the goal ","The inverse of 3 is the number that gives 0, so the ","The inverse of 3 is the number that gives 0, so ","The inverse of 3 is the number that gives 0, ","The inverse of 3 is the number that gives 0,","The inverse of 3 is the number that gives 0 ","The inverse of 3 is the number that gives 0 ","The inverse of 3 is the number that gives 0, 9, etc/","The inverse of 3 is the number that giv es 0, 9,  etc","The inverse of 3 is the lonumber that gives 0, 9, etc","The inverse of 3 is the lownumber that gives 0, 9, etc","The inverse of 3 is the lowesnumber that gives 0, 9, etc","The inverse of 3 is the lowestnumber that gives 0, 9, etc","The inverse of 3 is the lowest number that gives 0, 9, etc","The inverse of 3 is the lowest number that gives 0, 9, ","The inverse of 3 is the lowest number that gives 0, ","The inverse of 3 is the lowest number that gives ","The inverse of 3 is the lowest number that adds up to 9, so 3+6"],"orientation_history":[[0]],"response_history":["6"],"rt":84488,"trial_type":"polygon-arrow-question","trial_index":0,"trial_index_global":60,"time_elapsed":299853,"internal_chunk_id":"0-0.12-0"},{"nsides":9,"question":"Is 2 a generator under <img src=./images/nonagon_symbol.png style=width:14px;height:14px>? Please explain in words how you got your answer.","response_type":"multi","response_choices":["Yes","No"],"correct_response":"Yes","response":"Yes","explain":true,"explanation":"Yes, on the first go around (up to 8) it will generate all the even numbers, then on the 2nd (up to 18) it will cover the odd numbers and 0.","explanation_history":["Yes, on the first s","Yes, on the first ","Yes, on the first go around (up to 8) it will cover the even numbers, the on the 2nd (up to 18) it will do","Yes, on the first go around (up to 8) it will cover the even numbers, the on the 2nd (up to 18) it will d","Yes, on the first go around (up to 8) it will cover the even numbers, the on the 2nd (up to 18) it will cover the odd numbers and 0.","Yes, on the first go around (up to 8) it will ge the even numbers, the on the 2nd (up to 18) it will cover the odd numbers and 0.","Yes, on the first go around (up to 8) it will gene the even numbers, the on the 2nd (up to 18) it will cover the odd numbers and 0.","Yes, on the first go around (up to 8) it will gener the even numbers, the on the 2nd (up to 18) it will cover the odd numbers a nd 0."," Yes, on the first go around (up to 8) it will genera the even numbers, the on the 2nd (up to 18) it will cover the odd numbers and 0.","Yes, on the first go around (up to 8) it will generat the even numbers, the on the 2nd (up to 18) it will cover the odd numbers and 0.","Yes, on the first go around (up to 8) it will generate the even numbers, the on the 2nd (up to 18) it will cover the odd numbers and 0.","Yes, on the first go around (up to 8) it will generate  the even numbers, the on the 2nd (up to 18) it will cover the odd numbers and 0.","Yes, on the first go around (up to 8) it will generate a the even numbers, the on the 2nd (up to 18) it will cover the odd numbers and 0.","Yes, on the first go around (up to 8) it will generate al the even numbers, the on the 2nd (up to 18) it will cover the odd numbers and 0.","Yes, on the first go around (up to 8) it will generate all the even numbers, the on the 2nd (up to 18) it will cover the odd numbers and 0.","Yes, on the firs t go aro und (up to 8) it will generate all the even numbers, them  on the 2nd (up to 18) it will cover the odd numbers and 0.","Yes, on the first go around (up to 8) it will generate all the even numbers, them on the 2nd (up to 18) it will cover the odd numbers and 0.","Yes, on the first go around (up to 8) it will generate all the even numbers, then on the 2nd (up to 18) it will cover the odd numbers and 0."],"orientation_history":[[0]],"response_history":["No","Yes"],"rt":101362,"trial_type":"polygon-arrow-question","trial_index":0,"trial_index_global":61,"time_elapsed":401217,"internal_chunk_id":"0-0.12-0"},{"nsides":9,"question":"Is 3 a generator under <img src=./images/nonagon_symbol.png style=width:14px;height:14px>? Please explain in words how you got your answer.","response_type":"multi","response_choices":["Yes","No"],"correct_response":"No","response":"No","explain":true,"explanation":"No, because it will only generate 3,6,0 repeatedly.","explanation_history":["No,  because  it will only generate 3,69","No, because it will only generate 3,6,0 repeatedly."],"orientation_history":[[0]],"response_history":["No"],"rt":21295,"trial_type":"polygon-arrow-question","trial_index":0,"trial_index_global":62,"time_elapsed":422514,"internal_chunk_id":"0-0.12-0"},{"nsides":9,"question":"Is 5 a generator under <img src=./images/nonagon_symbol.png style=width:14px;height:14px>? Please explain in words how you got your answer.","response_type":"multi","response_choices":["Yes","No"],"correct_response":"Yes","response":"Yes","explain":true,"explanation":"Yes, because the wheel is 9 units and 5 generates with a phase (or whatever it should be called) of 10 units, resulting in it shifting by 1 per rotation. Ex 5,1,6,2,...","explanation_history":["No, because it w","Ye,","Yes, because the wheel is 9 units and 5 will ","Yes, because the wheel is 9 units and 5 generates in units ","Yes, because the wheel is 9 units and 5 generates in ","Yes, because the wheel  is 9 un its and 5 generates with a phase (or whatever it should be called) of 10 units, resi;t","Yes, because the wheel is 9 units and 5 generates with a phase (or whatever it should be called) of 10 units, resi;","Yes, because the wheel is 9 units and 5 generates with a phase (or whatever it should be called) of 10 units, resi","Yes, because the wheel is 9 units and 5 generates with a phase (or whatever it should be called) of 10 units, res","Yes, because the wheel is 9 units and 5 generates with a phase (or whatever it should be called) of 10 units, resulting in iot","Yes, because the wheel is 9 units and 5 generates with a phase (or whatever it should be called) of 10 units, resulting in io","Yes, because the wheel is 9 units and 5 generates with a phase (or whatever it should be called) of 10 units, resulting in it shjof","Yes, because the wheel is 9 units and 5 generates with a phase (or whatever it should be called) of 10 units, resulting in it shjo","Yes, because the wheel is  9 units  and 5 generates with a phase (or whatever it should be called) of 10 units, resulting in it shj","Yes, because the wheel is 9 units and 5 generates with a phase (or whatever it should be called) of 10 units, resulting in it shifting by 1 per rotation. Ex 5,1,6,2...","Yes, because the wheel is 9 units and 5 generates with a phase (or whatever it should be called) of 10 units, resulting in it shifting by 1 per rotation. Ex 5,1,6,2,...","Yes, because the wheel is 9 units and 5 generates with a phase (or whatever it should be called) of 10 units, resulting in it shifting by 1 per rotation. Ex 5,1,6,2,7...","Yes, because the wheel is 9 units and 5 generates with a phase (or whatever it should be called) of 10 units, resulting in it shifting by 1 per rotation. Ex 5,1,6,2,7,...","Yes, because the wheel is 9 units and 5 generates with a phase (or whatever it should be called) of 10 units, resulting in it shifting by 1 per rotation. Ex 5,1,6,2,7,3...","Yes, because the wheel is 9 un its and  5 generates with a phase (or whatever it should be called) of 10 units, resulting in it shifting by 1 per rotation. Ex 5,1,6,2,7,3,...","Yes, because the wheel is 9 units and 5 generates with a phase (or whatever it should be called) of 10 units, resulting in it shifting by 1 per rotation. Ex 5,1,6,2,7,3,8...","Yes, because the wheel is 9 units and 5 generates with a phase (or whatever it should be called) of 10 units, resulting in it shifting by 1 per rotation. Ex 5,1,6,2,7,3,8,4...","Yes, because the wheel is 9 units and 5 generates with a phase (or whatever it should be called) of 10 units, resulting in it shifting by 1 per rotation. Ex 5,1,6,2,7,3,8,4,...","Yes, because the wheel is 9 units and 5 generates with a phase (or whatever it should be called) of 10 units, resulting in it shifting by 1 per rotation. Ex 5,1,6,2,7,3,8,4,0...","Yes, because the wheel is 9 units and 5 generates with a phase (or whatever it should be called) of 10 units, resulting in it shifting by 1  per rot ation. Ex 5,1,6,2,7,3,8,4,0,5...","Yes, because the wheel is 9 units and 5 generates with a phase (or whatever it should be called) of 10 units, resulting in it shifting by 1 per rotation. Ex 5,1,6,2,7,...","Yes, because the wheel is 9 units and 5 generates with a phase (or whatever it should be called) of 10 units, resulting in it shifting by 1 per rotation. Ex 5,1,6,2,7...","Yes, because the wheel is 9 units and 5 generates with a phase (or whatever it should be called) of 10 units, resulting in it shifting by 1 per rotation. Ex 5,1,6,2,...","Yes, because the wheel is 9 units and 5 generates with a phase (or whatever it should be called) of 10 units, resulting in it shifting by 1 per rotation. Ex 5,1,6,2...","Yes, because the wheel is 9 units and 5 generates with a phase (or whatever it should be called) of 10 units, resulting in it shifting by 1 per rotation. Ex 5,1,6,2,..."],"orientation_history":[[0]],"response_history":["No","Yes"],"rt":159786,"trial_type":"polygon-arr ow-quest ion","trial_index":0,"trial_index_global":63,"time_elapsed":582302,"internal_chunk_id":"0-0.12-0"},{"nsides":9,"question":"Is 6 a generator under <img src=./images/nonagon_symbol.png style=width:14px;height:14px>? Please explain in words how you got your answer.","response_type":"multi","response_choices":["Yes","No"],"correct_response":"No","response":"No","explain":true,"explanation":"No, because it will only generate 0,3,6. I guess because 9 and 6 share a factor of 3.","explanation_history":["No, because it's a ","No, because it's a","No, because it's a multiple of 3","No, because it's a multiple of ","No, because it's a multiple ","No, because it's a ","No, because it's ","No, because it's","No, because it'","No, because it","No, because i ","No, because it will only generate 0,3,6. I guess because it shares w","No, because it will only generate 0,3,6. I guess because it shares factors with 9","No, because it will only generate 0,3,6. I guess because shares facto rs with  9","No, because it will only generate 0,3,6. I guess because shares factors with ","No, because it will only generate 0,3,6. I guess because shares factors ","No, because it will only generate 0,3,6. I guess because shares ","No, because it will only generate 0,3,6. I guess because ","No, because it will only generate 0,3,6. I guess because 9 and 6 share a factor of 3."],"orientation_history":[[0],[0,0,0,0,0,0,0.0008644908155481801,0.0834497369786289,0.1952573572575349,0.3042669072601114,0.48547391920746663,0.6184147458883676,0.715347990955433,0.7564207695458871,0.8104222699218554,0.9171835101717218,0.995030092054088,1.0616439033398084,1.0616439033398084,1.0616439033398084,1.0616439033398084,1.0616439033398084,1.0616439033398084,1.0616439033398084,1.0781713239425292,1.1120566538466468,1.238934064568364,1.390803590021976,1.5894020362203187,1.8974548172440953,2.3272170963407834,2.7679679441202056,3.15105784975942,3.388712279133668,3.5700901076342575,3.6972165158585586,3.7696901954498854,3.812947883167036,3.829418919681406,3.8454303615247385,3.868610134931675,3.9051055028099997,3.9520149235116486,3.976797384124824,3.9886733103364254,3.994487198318267,4.025522981350918,4.057926546293899,4.090409024651603,4.102890140172788,4.102890140172788,4.102890140172788,4.102890140172788,4.102890140172788,4.102890140172788,4.102890140172788,4.110445443644422,4.141412308745797,4.14934120729652,4.1573451675363655,4.1573451675363655,4.1654242203195535,4.1654242203195535,4.1654242203195535,4.1654242203195535,4.1654242203195535,4.173578357873445,4.224074295666136,4.250322147809822,4.250322147809822,4.2592171786293616,4.2592171786293616,4.2592171786293616,4.2592171786293616,4.2592171786293616,4.277222784114128,4.277222784114128,4.277222784114128,4.277222784114128,4.277222784114128,4.277222784114128,4.277222784114128,4.277222784114128,4.707216612718198,4.842548312331822,4.919435265159025,5.081934032199548,5.2456963888756745,5.342501632867337,5.390843116099034,5.390843116099034,5.390843116099034,5.390843116099034,5.390843116099034,5.390843116099034,5.390843116099034,5.390843116099034,5.390843116099034,5.390843116099034,5.390843116099034,5.390843116099034,5.390843116099034,5.390843116099034,5.398061882176969,5.398061882176969,5.398061882176969,5.398061882176969,5.398061882176969,5.398061882176969,5.398061882176969,5.398061882176969,5.398061882176969,5.413747354556906,5.428831062807286,5.460679847750632,5.485201724238581,5.4935980599678755,5.502130745808824,5.502130745808824,5.510108568300183,5.510108568300183,5.510108568300183,5.510108568300183,5.510108568300183,5.510108568300183,5.510108568300183,5.527565572646299,5.571891358453277,5.6353931465903395,5.700913588005732,5.790560304327219,5.859416793628263,5.92426082118147,5.99024418970232,6.059343993639152,6.1378527481211504,6.178404075966886,6.20361820455864,6.20361820455864,6.20361820455864,6.20361820455864,6.20361820455864,6.216251468139711,6.216251468139711,6.216251468139711,6.216251468139711,6.216251468139711,6.216251468139711,6.216251468139711,6.216251468139711,6.2288968641851765,6.2288968641851765,6.2288968641851765,6.2288968641851765,6.2288968641851765,6.2288968641851765,6.2288968641851765,6.2288968641851765,6.2288968641851765,6.2288968641851765,6.2288968641851765,6.2288968641851765,6.2288968641851765,6.2288968641851765,6.2288968641851765,6.2288968641851765,6.2288968641851765,6.2288968641851765,6.2288968641851765,6.2288968641851765,0.17851883258364154,0.17851883258364154,0.22235039030927917,0.26373568137243586,0.28022151847551324,0.3391533774736024,0.3932737595997109,0.434670215149245,0.4755830449246843,0.48197218264504915,0.5296219214920013,0.5699338678786703,0.625105330562799,0.6998773326010697,0.8031157735892175,0.9034991249342895,0.9926660302643247,1.0614131163602918,1.1059419605359502,1.1172575525789779,1.1451102700521216,1.1613125558309705,1.1845102499352353,1.1845102499352353,1.1962633523616233,1.1962633523616233,1.1962633523616233,1.2479495979108677,1.3092619911384265,1.4126716428153154,1.502877589846296,1.5937203314015083,1.6709662230713553,1.7591123638663564,1.8320838328723796,1.8790721212649941,1.9133367880900443,1.9133367880900443,1.9133367880900443,1.9133367880900443,1.9133367880900443,1.9133367880900443,1.9133367880900443,1.9133367880900443,1.9133367880900443,1.9133367880900443,1.9133367880900443,1.9133367880900443,1.9133367880900443,1.9133367880900443,1.9133367880900443,1.9133367880900443,1.9133367880900443,1.9133367880900443,1.9133367880900443,1.9133367880900443,1.9133367880900443,1.9133367880900443,1.9133367880900443,1.9133367880900443,1.9133367880900443,1.9133367880900443,1.9514650415681731,1.9784460927568766,1.9784460927568766,1.9784460927568766,1.9784460927568766,1.9784460927568766,1.9784460927568766,1.9784460927568766,1.9784460927568766,1.9784460927568766,2.010930968428629,2.0441213110412884,2.0779649549555703,2.122901231740663,2.1576888848828615,2.2204814236916484,2.257156513702328,2.3011360550500317,2.3616861973402914,2.4209586378850325,2.488204910111591,2.5377266584681397,2.5701836897482817,2.5802927485053857,2.5802927485053857,2.5905236459099443,2.5905236459099443,2.6066648604671556,2.64364855196591,2.6859877666113556,2.7169256676836495,2.7579096077272913,2.7835655648978923,2.8200534933343846,2.87887207886933,2.9941253005800945,3.136420285923302,3.2661590422777884,3.357593922865096,3.423613540343773,3.4556392001589353,3.476594216247876,3.5116762083143653,3.5465686291321283,3.571312414130195,3.59096769111689,3.605810916640932,3.615458470666093,3.6303971183509187,3.664270242266779,3.7006178632857996,3.756116368531516,3.8175424118702193,3.89801342313568,4.006825627952925,4.105509649570883,4.186988833128246,4.2142995510478345,4.2142995510478345,4.2142995510478345,4.2142995510478345,4.2142995510478345,4.2142995510478345,4.2142995510478345,4.2142995510478345,4.2142995510478345,4.2142995510478345,4.2142995510478345,4.2142995510478345,4.314452040327272,4.314452040327272,4.42608787156204,4.541514531928964,4.6960691383671795,4.794068807707023,4.86433804728725,4.899496558829914,4.9198677287330455,4.9395629690987315,4.950670684689039,4.96171124553824,4.972682592142269,4.972682592142269,4.98358275736324,4.98358275736324,4.98358275736324,4.98358275736324,4.9944098671386685,5.026435526953832,5.057745202540712,5.117364955927025,5.15700911592674,5.206689908665104,5.237265979004926,5.293217587980396,5.349380823912238,5.4054027979637445,5.445192094925626,5.484433478551053,5.500049583360845,5.515650462846546,5.515650462846546,5.515650462846546,5.531228559926533,5.563761456273332,5.619655111551516,5.659994209527591,5.709927428382045,5.744906769326013,5.806265819158358,5.887034079509806,5.967462509196083,6.027409065274139,6.076611746044537,6.114106188931395,6.152001195220771,6.177436022058247,6.19019293549368,6.19019293549368,6.19019293549368,6.19019293549368,6.19019293549368,6.19019293549368,6.19019293549368,6.19019293549368,6.19019293549368,6.19019293549368,6.19019293549368,6.19019293549368,6.202970745924606,6.202970745924606,6.215765323306837,6.215765323306837,6.215765323306837,6.215765323306837,6.215765323306837,6.215765323306837,6.215765323306837,6.215765323306837,6.215765323306837,6.215765323306837,6.215765323306837,6.215765323306837,6.215765323306837,6.215765323306837,6.215765323306837,6.215765323306837,6.215765323306837,6.215765323306837,6.215266570230986,6.228239726116469,6.228239726116469,6.228239726116469,6.228239726116469,6.228239726116469,6.228239726116469,6.228239726116469,6.228239726116469,6.228239726116469,6.228239726116469,6.228239726116469,6.228239726116469,6.228239726116469,6.228239726116469,6.228239726116469,6.241050777855269,6.241050777855269,6.240875370033879,6.240875370033879,-0.028977393851561173,-0.028977393851561173,-0.015464702838233091,-0.0015869853766987685,-0.0015869853766987685,-0.0015869853766987685,0.0126651852470272,0.0126651852470272,0.02730114243720072,0.04132907026706323,0.05652789982664341,0.08813135071530298,0.12139403415557326,0.17142115997431717,0.1966238499844628,0.2358399360542276,0.30934622865769845,0.4088139097899852,0.5079333488884843,0.5590252096960063,0.5887783317146714,0.5887783317146714,0.5887783317146714,0.5887783317146714,0.5887783317146714,0.5887783317146714,0.5317096011312443,0.3712632631824129,0.25155939788676074,0.17142115997431717,0.14824799109815823,0.1149480555366551,0.11291966075260262,0.11291966075260262,0.09889252470843868,0.09889252470843868,0.09889252470843868,0.09889252470843868,0.09889252470843868,0.09889252470843868,0.09889252470843868,0.09889252470843868,0.09889252470843868,0.09889252470843868,0.09889252470843868,0.09889252470843868,0.09889252470843868,0.09889252470843868,0.09889252470843868,0.09889252470843868,0.09889252470843868,0.09889252470843868,0.09889252470843868,0.09889252470843868,0.09889252470843868,0.09889252470843868,0.09889252470843868,0.09889252470843868,0.09889252470843868,0.09889252470843868,0.09889252470843868,0.09889252470843868,0]],"response_history":["No"],"rt":89030,"trial_type":" polygon-arrow-question","trial_index":0,"trial_index_global":64,"time_elapsed":671333,"internal_chunk_id":"0-0.12-0"},{"nsides":"n","instructions":"Now we'd like to ask you some questions about <img src=./images/ngon_symbol.png style=width:14px;height:14px>, where n could be any postive counting number. For example, n could be 3, and the polygon a triangle, or n could be any other counting number you can think of, in which case the corresponding polygon would have n sides. Just as before, you can use either the polygon or arithmetic methods. If you need to write the operation, you can use (n), and your answers can include n to stand in for the arbitrary value if necessary. (You can use the polygon at the right to think, but it doesn't necessarily correspond to the real polygon, which is why we've left most of it dashed.)","orientation_history":[0],"rt":15880,"trial_type":"polygon-arrow-instructions","trial_index":0,"trial_index_global":65,"time_elapsed":687216,"internal_chunk_id":"0-0"},{"nsides":"n","question":"What is the formula for the inverse of 1 under <img src=./images/ngon_symbol.png style=width:14px;height:14px>?","response_type":"free","response_choices":[],"correct_response":"n-1","response":"(n)-1","explain":false,"explanation":"","explanation_history":[],"orientation_history":[[0]],"response_history":["(n)-1"],"rt":19744,"trial_type":"polygon-arrow-question","trial_index":0,"trial_index_global":66,"time_elapsed":706961,"internal_chunk_id":"0-0.14-0"},{"nsides":"n","question":"What is the formula for the inverse of an element x under <img src=./images/ngon_symbol.png style=width:14px;height:14px>? Please explain in words how you got your answer.","response_type":"free","response_choices":[],"correct_response":"n-x","response":"(n)-x if x>0, else 0","explain":true,"explanation":"The inverse is the positive number that makes the (n) operation add up to a multiple of n. If x is 0 then it should be 0 instead of n.","explanation_history":["The inverse is the 2 numbers ","The inverse is the 2 ","The inverse is the number that makes it u","The inverse is the number that makes it add up to n","The inverse is the number that makes i add up to n","The inverse is the number that makes  add up to n","The inverse is the number that makes ( add up to n","The inverse is the number that makes (n add up to n","The inverse is the number that makes (n) add up to n","The inverse is the number that makes th (n) add up to n","The inverse is the number that makes the (n) add up to n","The inverse is the number that makes the (n) opadd up to n","The inverse is the number that makes the (n) opeadd up to n","The inverse is the number that makes the (n) operadd up to n","The inverse is the number that makes the (n) operatadd up to n","The inverse is the number that makes the (n) operatioadd up to n","The inverse is the number that makes the (n) operationadd up to n","The inverse is the number that makes the (n) opera tion add  up to n","The inverse is the number that makes the (n) operation add up to a n","The inverse is the number that makes the (n) operation add up to a mn","The inverse is the number that makes the (n) operation add up to a muln","The inverse is the number that makes the (n) operation add up to a multn","The inverse is the number that makes the (n) operation add up to a multin","The inverse is the number that makes the (n) operation add up to a multipln","The inverse is the number that makes the (n) operation add up to a multiplen","The inverse is the number that makes the (n) operation add up to a multiple n","The inverse is the number that makes the (n) operation add up to a multiple ofn","The inverse is the number that makes the (n) operation add up to a multiple of n. If (n","The inverse is the number that makes the (n) operation add up to a multiple of n. If (","The inverse is the number that makes the (n) operation add up to a multiple of n. If x is 0 then it should be 0  instead  of (n)","The inverse is the number that makes the (n) operation add up to a multiple of n. If x is 0 then it should be 0 instead of (n","The inverse is the number that makes the (n) operation add up to a multiple of n. If x is 0 then it should be 0 instead of (","The inverse is the number that makes the (n) operation add up to a multiple of n. If x is 0 then it should be 0 instead of n.","The inverse is the ponumber that makes the (n) operation add up to a multiple of n. If x is 0 then it should be 0 instead of n.","The inverse is the posnumber that makes the (n) operation add up to a multiple of n. If x is 0 then it should be 0 instead of n.","The inverse is the posinumber that makes the (n) operation add up to a multiple of n. If x is 0 then it should be 0 instead of n.","The inverse is the positnumber that makes the (n) operation add up to a multiple of n. If x is 0 then it should be 0 instead of n.","The inverse is the positinumber that makes the (n) operation add up to  a multip le of n. If x is 0 then it should be 0 instead of n.","The inverse is the positivenumber that makes the (n) operation add up to a multiple of n. If x is 0 then it should be 0 instead of n.","The inverse is the positive number that makes the (n) operation add up to a multiple of n. If x is 0 then it should be 0 instead of n."],"orientation_history":[[0],[0.1798534997924781,0.1798534997924781,0.1798534997924781,0.1798534997924781,0.1798534997924781,0.1798534997924781,0.1798534997924781,0.22679884805388584,0.29736514522392365,0.3660565158474183,0.4214192068878042,0.4566054718924939,0.505581054874205,0.5349550737860964,0.5349550737860964,0.5349550737860964,0.5349550737860964,0.5349550737860964,0.5349550737860964,0.5349550737860964,0.5431895762878278,0.5431895762878278,0.5431895762878278,0.5880026035475675,0.6747409422235526,0.8253768505207383,0.9994588469612697,1.171280832795522,1.3208177053340742,1.4288992721907325,1.5707963267948966,1.683523938385274,1.7717505904829935,1.8370483759458218,1.8978944238006894,1.9295669970654687,1.9605048981377624,1.9841267313342243,2.0131705497716412,2.0481417091685685,2.093585412175299,2.154877381817704,2.20354516179708,2.2655346029915995,2.3036114285814033,2.347791326644698,2.3805798993650633,2.411256885566015,2.44685437739309,2.473303234759209,2.5178909373629015,2.561589879382112,2.6155262345930295,2.6617521280714653,2.706050092049443,2.752903153083559,2.819842099193151,2.9200638489730455,3.0280480487171384,3.1331182801868227,3.1993794843607306],[3.495295799670915,3.495295799670915,3.495295799670915,3.495295799670915,3.495295799670915,3.522099030702158,3.7438799997247574,4.086127542785935,4.452759350976432,4.699889631365329,4.821839929526053,4.877537657799317,4.921411923190954,4.971159872348387,5.010887911970869,5.034139534781332,5.0596297632808005,5.07322576341778,5.097765448864218,5.121826189910832,5.145394842008316,5.1684609767343,5.187399736649787],[5.695182703632019,5.695182703632019,5.6989140295986775,5.737958151642311,5.780342096251726,5.84008275221218,5.920641069915079,6.025861592208497,6.156593179899614,0.037717952466864046,0.19739555984988066,0.31561566203876623,0.33394507184489397,0.3520443143154173,0.3520443143154173,0.3520443143154173,0.3520443143154173,0.3520443143154173,0.3520443143154173,0.3520443143154173,0.3587706702705722,0.3587706702705722],[0.3587706702705722,0.3587706702705722,0.3587706702705722,0.3587706702705722,0.3587706702705722,0.3587706702705722,0.3587706702705722,0.3587706702705722,0.36574730126234445,0.4453010438876859,0.48251329502247686,0.540419500270584,0.6000502134017535,0.6435011087932844,0.6919213822388588,0.7061990924279967,0.7229793534014909,0.7378150601204648,0.75415832996718,0.75415832996718],[0.75415832996718,0.75415832996718,0.75415832996718,0.75415832996718,0.75415832996718,0.75415832996718,0.75415832996718,0.75415832996718,0.75415832996718,0.7718243364790791,0.7899852871868456,0.7899852871868456,0.8034142319515036,0.8219116081443247,0.8219116081443247,0.8408966686431651,0.8408966686431651,0.8408966686431651,0.8408966686431651]],"response_history":["(n)-x if x>-","(n)-x if x>0, else 0"],"rt":233503,"trial_type":"polygon-arrow-question","trial_index":0,"trial_index_global":67,"time_elapsed":940466,"internal_chunk_id":"0-0.14-0"},{"nsides":"n","question":"Is there a pattern to which elements are generators? How can you know if an element x is a generator under <img src=./images/ngon_symbol.png style=width:14px;height:14px> without seeing whether it can make all the elements?.","response_type":"free","response_choices":[],"correct_response":"","response":"x is a generator under (n) if x and n do not share a factor >1","explain":false,"explanation":"","explanation_history":[],"orientation_history":[[0]],"response_history":["c ","c","x is a generator under (n) if it shares no factors wi","x is a generator under (n) if it shares no factors ","x is a generator under (n) if it shares no ","x is a generator under (n) if it shares ","x  is a ge nerator under (n) if it ","x is a generator under (n) if x shares no factors with","x is a generator under (n) if x shares no factors ","x is a generator under (n) if x shares no ","x is a generator under (n) if x shares ","x is a generator under (n) if x ","x is a generator under (n) if LCD(x,n)","x is a generator under (n) if LC(x,n)","x is a generator under (n) if L(x,n)","x is a generator under (n) if g(x,n)","x is a generator under (n) if gcv(x,n)","x is a generator under (n) if gcvd(x,n)","x is a generator under (n) if gcv(x,n)","x is a generator under (n) if gcd(x,n)","x is a generator under (n) if gcd(x,","x is a generator under (n) if gcd(","x is a generator under (n) if they share a divisor","x is a generator under (n) if they share a factor >1","x is a generator under (n) if they dshare a factor >1","x is a generator under (n) if they doshare a factor >1","x is a generator under (n) if they do share a factor >1","x is a generator under (n) if they share a factor > 1","x is  a generator under (n) if share a factor >1","x is a generator under (n) if xshare a factor >1","x is a generator under (n) if x ashare a factor >1","x is a generator under (n) if x anshare a factor >1","x is a generator under (n) if x and share a factor >1","x is a generator under (n) if x and nshare a factor >1","x is a generator under (n) if x and n dshare a factor >1","x is a generator under (n) if x and n doshare a factor >1","x is a generator under (n) if x and n do nshare a factor >1","x is a generator under (n) if x and n do noshare a factor >1","x is a generator under (n) if x and n do notshare a factor >1","x is a generator under (n) if x and n do not share a factor >1"],"rt":195929,"trial_type":"polygon-arrow-question","trial_index":0,"trial_index_global":68,"time_elapsed":1136399,"internal_chunk_id":"0-0.14-0"},{"nsides":"n","question":"True or false: If x is an odd number, it must be a generator under <img src=./images/ngon_symbol.png style=width:14px;heig ht:14px>.","response_type":"multi","response_choices":["True","False"],"correct_response":"False","response":"False","explain":false,"explanation":"","explanation_history":[],"orientation_history":[[0]],"response_history":["False"],"rt":8354,"trial_type":"polygon-arrow-question","trial_index":0,"trial_index_global":69,"time_elapsed":1144754,"internal_chunk_id":"0-0.14-0"},{"nsides":"n","question":"True or false: If x is an even number, it must not be a generator under <img src=./images/ngon_symbol.png style=width:14px;height:14px>.","response_type":"multi","response_choices":["True","False"],"correct_response":"False","response":"False","explain":false,"explanation":"","explanation_history":[],"orientation_history":[[0]],"response_history":["False"],"rt":5218,"trial_type":"polygon-arrow-question","trial_index":0,"trial_index_global":70,"time_elapsed":1149973,"internal_chunk_id":"0-0.14-0"},{"nsides":"n","question":"True or false: If x is not a generator under <img src=./ images/n gon_symbol.png style=width:14px;height:14px>, x must be a divisor of n, that is, x must divide n evenly, with no remainder.","response_type":"multi","response_choices":["True","False"],"correct_response":"False","response":"True","explain":false,"explanation":"","explanation_history":[],"orientation_history":[[0]],"response_history":["True"],"rt":10917,"trial_type":"polygon-arrow-question","trial_index":0,"trial_index_global":71,"time_elapsed":1160892,"internal_chunk_id":"0-0.14-0"},{"nsides":"n","question":"True or false: If x is not a generator under <img src=./images/ngon_symbol.png style=width:14px;height:14px>, x must be a multiple of a divisor of n. Please explain in words how you got your answer.","response_type":"multi","response_choices":["True","False"],"correct_response":"True","response":"True","explain":true,"explanation":"If x is not a generator, it repeatedly generates a certain subset of (n), and it is the same subset each time it goes through t he set.  This means it shares a divisor with n, because otherwise it would generate different subsets each time.","explanation_history":["If x is not a generator, it repeatedly generates a su","If x is not a generator, it repeatedly generates a certain subset of (n). ","If x is not a generator, it repeatedly generates a certain subset of (n).","If x is not a generator, it repeatedly generates a certain subset of (n), and it is the same subset each rotation.","If x is not a generator, it repeatedly generates a certain subset of (n), and it is the same subset each ","If x is not a generator, it repeatedly generates a certain subset of (n), and it is the same subset each time ot ","If x is not a generator, it repeatedly generates a certain subset of (n), and it is the same subset each time ot","If x is not a generator, it repeatedly generates a certain subset of (n), and it is the same subset each time o","If x is not a generator, it repeatedly generates a certain subset of (n), and it  is the s ame subset each time it goes thor","If x is not a generator, it repeatedly generates a certain subset of (n), and it is the same subset each time it goes tho","If x is not a generator, it repeatedly generates a certain subset of (n), and it is the same subset each time it goes through the set. This means it shares a divisor with n, because otherwise it would generate different subsets each time\n","If x is not a generator, it repeatedly generates a certain subset of (n), and it is the same subset each time it goes through the set. This means it shares a divisor with n, because otherwise it would generate different subsets each time."],"orientation_history":[[0]],"response_history":["True"],"rt":396971,"trial_type":"polygon-arrow-question","trial_index":0,"trial_index_global":72,"time_elapsed":1557863,"internal_chunk_id":"0-0.14-0"},{"nsides":"n","question":"If an element x is a generator under <img src=./images/ngon_symbol.png style=width:14px;height:14px>, is its in verse a  generator under <img src=./images/ngon_symbol.png style=width:14px;height:14px> always, sometimes, or never?","response_type":"multi","response_choices":["Always","Sometimes","Never"],"correct_response":"Always","response":"Always","explain":false,"explanation":"","explanation_history":[],"orientation_history":[[0]],"response_history":["Sometimes","Always"],"rt":69194,"trial_type":"polygon-arrow-question","trial_index":0,"trial_index_global":73,"time_elapsed":1627060,"internal_chunk_id":"0-0.14-0"},{"nsides":"n","question":"if an element x is a generator under <img src=./images/ngon_symbol.png style=width:14px;height:14px>, is x <img src=./images/ngon_symbol.png style=width:14px;height:14px> x a generator under <img src=./images/ngon_symbol.png style=width:14px;height:14px> always, sometimes, or never? Please explain in words how you got your answer.","response_type":"multi","response_choices":["Always","Sometimes","Never"],"correct_response":"Sometim es","response":"Sometimes","explain":true,"explanation":"1 is a generator under (n). 1 (3) 1 is 2, and 2 is a generator under (3).\n3 is a generator under (4). 3 (4) 3 is 2, which is not a generator under (4).\nTherefore sometimes it is and sometimes it is not.","explanation_history":["1 is a generator under (n). 1 (n>2) 2","1 is a generator under (n). 1 (n>) 2","1 is a generator under (n). 1 (n) 2","1 is a generator under (n). 1 (3) 2 is 0, and 0 is not a generator.\n\n","1 is a generator under (n). 1 (3) 2 is 0, and 0 is not a generator.\n2 is not a generator under (4). ","1 is a generator under (n). 1 (3) 2 is 0, and 0 is not a generator.\n2 is not a generator under (","1 is a generator under (n). 1 (3) 2 is 0, and 0 is not a generator.\n2 is not a generator ","1 is a generator under (n). 1 (3) 2 is 0, and 0 is not a generator.\n2 is not a ","1 is a generator under (n). 1 (3) 2 is 0, and 0 is not a generator.\n2 is not ","1 is a generator under (n). 1 (3) 2 is 0, and 0 is  not a g enerator.\n2 is a generator under (3). 1 (3)","1 is a generator under (n). 1 (3) 2 is 0, and 0 is not a generator.\n2 is a generator under (3). 1 (3","1 is a generator under (n). 1 (3) 2 is 0, and 0 is not a generator.\n2 is a generator under (3). 1 (","1 is a generator under (n). 1 (3) 2 is 0, and 0 is not a generator.\n2 is a generator under (3). 1 ","1 is a generator under (n). 1 (3) 2 is 0, and 0 is not a generator.\n2 is a generator under (3). 1","1 is a generator under (n). 1 (3) 2 is 0, and 0 is not a generator.\n2 is a generator under (3). 2(","1 is a generator under (n). 1 (3) 2 is 0, and 0 is not a generator.\n2 is a generator under (3). 2 (3)","1 is a generator under (n). 1 (3) 2 is 0, and 0 is not a generator.\n2 is a generator under (3). 2 (","1 is a generator under (n). 1 (3) 2 is 0, and 0 is not a generator.\n2 is a generator under (3). The ide","1 is a generator under (n). 1 (3) 2 is 0, and 0 is not a generator.\n2 is a generator under (3). The ","1 is a gene rator un der (n). 1 (3) 2 is 0, and 0 is not a generator.\n2 is a generator under (3). The","1 is a generator under (n). 1 (3) 2 is 0, and 0 is not a generator.\n2 is a generator under (3). Th","1 is a generator under (n). 1 (3) 2 is 0, and 0 is not a generator.\n2 is a generator under (3). T","1 is a generator under (n). 1 (3) 2 is 0, and 0 is not a generator.\n2 is a generator under (3). 2 (3) 2","1 is a generator under (n). 1 (3) 1 is 0, and 0 is not a generator.\n2 is a generator under (3). 2 (3) 2","1 is a generator under (n). 1 (3) 1 is 0, and 0 is not a generator.\n3 is a generator under (3). 2 (3) 2","1 is a generator under (n). 1 (3) 1 is 0, and 0 is not a generator.\n3 is a generator under (4). 2 (3) 2","1 is a generator under (n). 1 (3) 1 is 0, and 0 is not a generator.\n3 is a generator under (4). 3 (3) 2","1 is a generator under (n). 1 (3) 1 is 0, and 0 is not a generator.\n3 is a generator under (4). 3 (4) 2","1 is a generator under (n). 1 (3) 1 is 0, and 0 is not a gen erator.\n3 is a generator under (4). 3 (4) 3 is 2, which is not a generator","1 is a generator under (4). 1 (3) 1 is 0, and 0 is not a generator.\n3 is a generator under (4). 3 (4) 3 is 2, which is not a generator","1 is a generator under (4). 1 (4) 1 is 0, and 0 is not a generator.\n3 is a generator under (4). 3 (4) 3 is 2, which is not a generator","1 is a generator under (n). 1 (4) 1 is 0, and 0 is not a generator.\n3 is a generator under (4). 3 (4) 3 is 2, which is not a generator","1 is a generator under (n). 1 (4 1 is 0, and 0 is not a generator.\n3 is a generator under (4). 3 (4) 3 is 2, which is not a generator","1 is a generator under (n). 1 (3 1 is 0, and 0 is not a generator.\n3 is a generator under (4). 3 (4) 3 is 2, which is not a generator","1 is a generator under (n). 1 (3) 1 is 0, and 0 is not a generator.\n3 is a generator under (4). 3 (4) 3 is 2, which is not a generator","1 is a generator under (n). 1 (3) 1 is 2, and 0 is not a generator.\n3 is a generator under ( 4). 3 (4 ) 3 is 2, which is not a generator","1 is a generator under (n). 1 (3) 1 is 2, and 2 is not a generator.\n3 is a generator under (4). 3 (4) 3 is 2, which is not a generator","1 is a generator under (n). 1 (3) 1 is 2, and 2 is  a generator.\n3 is a generator under (4). 3 (4) 3 is 2, which is not a generator","1 is a generator under (n). 1 (3) 1 is 2, and 2 is a generator.\n3 is a generator under (4). 3 (4) 3 is 2, which is not a generator\n","1 is a generator under (n). 1 (3) 1 is 2, and 2 is a generator.\n3 is a generator under (4). 3 (4) 3 is 2, which is not a generator.\n\n","1 is a generator under (n). 1 (3) 1 is 2, and 2 is a generator.\n3 is a generator under (4). 3 (4) 3 is 2, which is not a generator.\nTherefore sometimes is ","1 is a generator under (n). 1 (3) 1 is 2, and 2 is a generator.\n3 is a generator under (4). 3 (4) 3 is 2, which is not a generator.\nTherefore sometimes is","1 is a generator under (n). 1 (3) 1 is 2, and 2 is a generator.\n3 is a generator und er (4).  3 (4) 3 is 2, which is not a generator.\nTherefore sometimes it is and sometimes it is not.","1 is a generator under (n). 1 (3) 1 is 2, and 2 is a generator\n3 is a generator under (4). 3 (4) 3 is 2, which is not a generator.\nTherefore sometimes it is and sometimes it is not.","1 is a generator under (n). 1 (3) 1 is 2, and 2 is a generator \n3 is a generator under (4). 3 (4) 3 is 2, which is not a generator.\nTherefore sometimes it is and sometimes it is not.","1 is a generator under (n). 1 (3) 1 is 2, and 2 is a generator un\n3 is a generator under (4). 3 (4) 3 is 2, which is not a generator.\nTherefore sometimes it is and sometimes it is not.","1 is a generator under (n). 1 (3) 1 is 2, and 2 is a generator und\n3 is a generator under (4). 3 (4) 3 is 2, which is not a generator.\nTherefore sometimes it is and sometimes it is not.","1 is a generator under (n). 1 (3) 1 is 2, and 2 is a generator under\n3 is a generator under (4). 3 (4) 3 is 2, which is not a generator.\nTher efore so metimes it is and sometimes it is not.","1 is a generator under (n). 1 (3) 1 is 2, and 2 is a generator under \n3 is a generator under (4). 3 (4) 3 is 2, which is not a generator.\nTherefore sometimes it is and sometimes it is not.","1 is a generator under (n). 1 (3) 1 is 2, and 2 is a generator under (\n3 is a generator under (4). 3 (4) 3 is 2, which is not a generator.\nTherefore sometimes it is and sometimes it is not.","1 is a generator under (n). 1 (3) 1 is 2, and 2 is a generator under (3\n3 is a generator under (4). 3 (4) 3 is 2, which is not a generator.\nTherefore sometimes it is and sometimes it is not.","1 is a generator under (n). 1 (3) 1 is 2, and 2 is a generator under (3)\n3 is a generator under (4). 3 (4) 3 is 2, which is not a generator.\nTherefore sometimes it is and sometimes it is not.","1 is a generator under (n). 1 (3) 1 is 2, and 2 is a generator under (3).\n3 is a generator under (4). 3 (4) 3 is 2, which is not a generator.\nTherefore sometimes it is  and some times it is not.","1 is a generator under (n). 1 (3) 1 is 2, and 2 is a generator under (3).\n3 is a generator under (4). 3 (4) 3 is 2, which is not a generator\nTherefore sometimes it is and sometimes it is not.","1 is a generator under (n). 1 (3) 1 is 2, and 2 is a generator under (3).\n3 is a generator under (4). 3 (4) 3 is 2, which is not a generator \nTherefore sometimes it is and sometimes it is not.","1 is a generator under (n). 1 (3) 1 is 2, and 2 is a generator under (3).\n3 is a generator under (4). 3 (4) 3 is 2, which is not a generator un\nTherefore sometimes it is and sometimes it is not.","1 is a generator under (n). 1 (3) 1 is 2, and 2 is a generator under (3).\n3 is a generator under (4). 3 (4) 3 is 2, which is not a generator und\nTherefore sometimes it is and sometimes it is not.","1 is a generator under (n). 1 (3) 1 is 2, and 2 is a generator under (3).\n3 is a generator under (4). 3 (4) 3 is 2, which is not a generator under\nTherefore sometimes it is and  sometim es it is not.","1 is a generator under (n). 1 (3) 1 is 2, and 2 is a generator under (3).\n3 is a generator under (4). 3 (4) 3 is 2, which is not a generator under \nTherefore sometimes it is and sometimes it is not.","1 is a generator under (n). 1 (3) 1 is 2, and 2 is a generator under (3).\n3 is a generator under (4). 3 (4) 3 is 2, which is not a generator under (\nTherefore sometimes it is and sometimes it is not.","1 is a generator under (n). 1 (3) 1 is 2, and 2 is a generator under (3).\n3 is a generator under (4). 3 (4) 3 is 2, which is not a generator under (4\nTherefore sometimes it is and sometimes it is not.","1 is a generator under (n). 1 (3) 1 is 2, and 2 is a generator under (3).\n3 is a generator under (4). 3 (4) 3 is 2, which is not a generator under (4)\nTherefore sometimes it is and sometimes it is not.","1 is a generator under (n). 1 (3) 1 is 2, and 2 is a generator under (3).\n3 is a generator under (4). 3 (4) 3 is 2, which is not a generator under (4).\nT herefore  sometimes it is and sometimes it is not."],"orientation_history":[[0]],"response_history":["Sometimes"],"rt":345883,"trial_type":"polygon-arrow-question","trial_index":0,"trial_index_global":74,"time_elapsed":1972945,"internal_chunk_id":"0-0.14-0"},{"nsides":"n","question":"If an element x is not a generator under <img src=./images/ngon_symbol.png style=width:14px;height:14px>, is x <img src=./images/ngon_symbol.png style=width:14px;height:14px> x a generator under <img src=./images/ngon_symbol.png style=width:14px;height:14px> always, sometimes, or never?","response_type":"multi","response_choices":["Always","Sometimes","Never"],"correct_response":"Never","response":"Never","explain":false,"explanation":"","explanation_history":[],"orientation_history":[[0]],"response_history":["Sometimes","Never"],"rt":65446,"trial_type":"polygon-arrow-question","trial_index":0,"trial_index_global":75,"time_elapsed":2038395,"internal_chunk_id":"0-0.14-0"},{"instructions":" Now we'd like you to do a few of the questions and tell us how much you're using the arithmetic and polygon methods to solve them. We'll give you a demonstration of the response screen first.<br /><br />Press continue when you're ready to begin.","rt":7688,"trial_type":"instructions","trial_index":0,"trial_index_global":76,"time_elapsed":2046085,"internal_chunk_id":"0-0.15-0"},{"nsides":9,"added_prompt":"<i>This is a demo response screen. You can respond independently to both questions, so it's okay to say you used both methods.</i><br /><br />","rt":9925,"trial_type":"polygon-arrow-which-representation","trial_index":0,"trial_index_global":77,"time_elapsed":2056012,"internal_chunk_id":"0-0.15-0"},{"question":"<i>This is a demo response screen.</i><br /><br />Please describe in as much detail as possible how you used the arithmetic method, polygon method, or both for the problem.","response_type":"free","response_choices":[],"correct_response":"","response":"","explain":false,"explanation":"","explanation_history":[],"response_history":[],"rt":8463,"trial_type":"question","trial_index":0,"trial_index_global":78,"time_elapsed":2064477,"internal_chunk_id":"0-0.15-0"},{"instructions":"Great! Now we have a few questions for you to do (some of which you may have seen earlier), and after each question you will tell us how much you used the polygon and arithmetic methods.<br /><br />Press continue when you're ready to begin.","rt":5607,"trial_type":"instructions","trial_index":0,"trial_index_global":79,"time_elapsed":2070085,"internal_chunk_id":"0-0.15-0"},{"nsides":9,"question":"Please answer the following question:<br /><br />What is the inverse of 4 under <img src=./images/nonagon_symbol.png style=width:14px;height:14px>?","response_type":"free","response_choices":[],"correct_response":"5","response":"5","explain":false,"explanation":"","explanation_history":[],"orientation_history":[[0]],"response_history":["5"],"rt":7842,"trial_type":"polygon-arr ow-quest ion","trial_index":0,"trial_index_global":80,"time_elapsed":2077927,"internal_chunk_id":"0-0.15-0"},{"nsides":9,"question":"Please answer the following question:<br /><br />What is the inverse of 4 under <img src=./images/nonagon_symbol.png style=width:14px;height:14px>?","added_prompt":"","polygon_response":"0","modular_response":"4","rt":13051,"trial_type":"polygon-arrow-which-representation","trial_index":0,"trial_index_global":81,"time_elapsed":2090980,"internal_chunk_id":"0-0.15-0"},{"question":"Please describe in as much detail as possible how you used the arithmetic method, polygon method, or both for the problem.","response_type":"free","response_choices":[],"correct_response":"","response":"I considered what number to add to give 9","explain":false,"explanation":"","explanation_history":[],"response_history":["I consider w","I consider ","I considered what number to add to give (","I considered what number to add to give 9","I considered what number to add t o give 9 "],"rt":36261,"trial_type":"question","trial_index":0,"trial_index_global":82,"time_elapsed":2127243,"internal_chunk_id":"0-0.15-0"},{"nsides":9,"question":"Please answer the following question:<br /><br />What is the inverse of 0 under <img src=./images/nonagon_symbol.png style=width:14px;height:14px>?","response_type":"free","response_choices":[],"correct_response":"0","response":"0","explain":false,"explanation":"","explanation_history":[],"orientation_history":[[0]],"response_history":["0"],"rt":10282,"trial_type":"polygon-arrow-question","trial_index":0,"trial_index_global":83,"time_elapsed":2137528,"internal_chunk_id":"0-0.15-0"},{"nsides":9,"question":"Please answer the following question:<br /><br />What is the inverse of 0 under <img src=./images/nonagon_symbol.png style=width:14px;height:14px>?","added_prompt":"","polygon_response":"0","modular_response":"2","rt":10822,"trial_type":"polygon-arrow-which-representation","trial_index":0,"trial_index_global":84,"time_elapsed":2148351,"internal_chunk_id":"0-0.15-0"},{"question":"Please describe in as much detail as possible how you used the arithmetic method, polygon method, or both for the problem.","response_type":"free","response_choices":[],"correct_response":"","response":"the inverse of 0 should always be 0, I suppose that is the arithmetic method.","explain":false,"explanation":"","explanation_history":[],"response_history":["the inverse of 0 should always be 0, so ","the inverse of 0 should always be 0, I suppose that ","the inverse of 0 should always be 0, I suppose that is the arithmetic method."],"rt":25188,"trial_type":"question","trial_index":0,"trial_index_global":85,"time_elapsed":2173540,"internal_chunk_id":"0-0.15-0"},{"nsides":9,"question":"Please answer the following question:<br /><br />Is 4 a generator under <img src=./images/nonagon_symbol.png style=width:14px;height:14px>?","response_type":"Multi","response_choices":["Yes","No"],"correct_response":"Ye s","response":"Yes","explain":false,"explanation":"","explanation_history":[],"orientation_history":[[0]],"response_history":["Yes"],"rt":18811,"trial_type":"polygon-arrow-question","trial_index":0,"trial_index_global":86,"time_elapsed":2192354,"internal_chunk_id":"0-0.15-0"},{"nsides":9,"question":"Please answer the following question:<br /><br />Is 4 a generator under <img src=./images/nonagon_symbol.png style=width:14px;height:14px>?","added_prompt":"","polygon_response":"2","modular_response":"4","rt":18460,"trial_type":"polygon-arrow-which-representation","trial_index":0,"trial_index_global":87,"time_elapsed":2210815,"internal_chunk_id":"0-0.15-0"},{"question":"Please describe in as much detail as possible how you used the arithmetic method, polygon method, or both for the problem.","response_type":"free","response_choices":[],"correct_response":"","response":"I used the is it a factor arithmetic method I figured out earlier and used polygon to confirm.","explain":false,"explanation":"","explanation_history":[],"response_history":["I used the early","I used the earlier determind ","I used the earlier determind","I used the earlier determined method of ","I used the earlier determined method ","I used the earlier determined ","I used the earlier ","I used the ","I used the is it a fat","I used the is it a factor method ","I used the is it a factor arithmetic method I figured out earlier and used polygon to confirm."],"rt":39393,"trial_type":"question","trial_index":0,"trial_index_global":88,"time_elapsed":2250209,"internal_chunk_id":"0-0.15-0"},{"nsides":"n","question":"Please answer the following question:<br /><br />True or false: If x divides n, it must not be a generator under <img src=./images/ngon_symbol.png style=width:14px;height:14px>.","response_type":"multi","response_choices":["True","False"],"correct_response":"True","response":"True","explain":false,"explanation":"","explanation_history":[],"orientation_history":[[0]],"response_history":["True"],"rt":27760,"trial_type":"polygon-arrow-question","trial_index":0,"trial_index_global":89,"time_elapsed":2277971,"internal_chunk_id":"0-0.15-0"},{"nsides":"n","question":"Please answer the following question:<br /><br />True or false: If x divides n, it must not be a generator under <img src=./images/ngon_symbol.png style=width:14px;height:14px>.","added_prompt":"","polygon_response":"0","modular_response":"4","rt":3779,"trial_type":"polygon-arrow-which-representation","trial_index":0,"trial_index_global":90,"time_elapsed":2281752,"internal_chunk_id":"0-0.15-0"},{"question":"Please describe in as much detail as possible how you used the arithmetic method, polygon method, or both for the problem.","response_type":"free","response_choices":[],"correct_response":"","response":"The polygon is useless for (n). Used the same factor/divisor rule.","explain":false,"explanation":"","explanation_history":[],"response_history":["Y","The polygon is usele ss for ( n) ","The polygon is useless for (n). I used","The polygon is useless for (n). I ","The polygon is useless for (n). Used the same factor/divisor. ","The polygon is useless for (n). Used the same factor/divisor.","The polygon is useless for (n). Used the same factor/divisor rule."],"rt":46475,"trial_type":"question","trial_index":0,"trial_index_global":91,"time_elapsed":2328229,"internal_chunk_id":"0-0.15-0"},{"instructions":"We would like to ask you some questions about your background. Please press Continue to continue.","rt":1398,"trial_type":"instructions","trial_index":0,"trial_index_global":92,"time_elapsed":2329629,"internal_chunk_id":"0-0.16-0"},{"question":"What is your age?","response_type":"free","response_choices":[],"correct_response":"","response":"23","explain":false,"explanation":"","explanation_history":[],"response_history":["23"],"rt":2283,"trial_type":"question","trial_index":0,"trial_index_global":93,"time_elapsed":2331913,"internal_chunk_id":"0-0.16- 0"},{"question":"What is your level of education?","response_type":"multi","response_choices":["Did not graduate high school","High school diploma","Some college, no degree","Associates Degree","Bachelors Degree","Some graduate school, no degree","Masters Degree","Doctorate, M.D., etc."],"correct_response":"","response":"Some college, no degree","explain":false,"explanation":"","explanation_history":[],"response_history":["Some college, no degree"],"rt":2962,"trial_type":"question","trial_index":0,"trial_index_global":94,"time_elapsed":2334875,"internal_chunk_id":"0-0.16-0"},{"question":"What is the most advanced math class you've completed? If you have multiple classes and you're not sure which one is most advanced, please list them.","response_type":"free","response_choices":[],"correct_response":"","response":"Taken geometry, pre calculus, and the calculus class that comes after precalc - don't recall the name.","explain":false,"explanation":"","explanation_history":[],"response_history":["Taken geometry, pre calculus, and the calculs","Taken geometry, pre calculus, and the calculus class that comes after precacl","Taken geometry, pre calculus, and the calculus class that comes after precac","Taken geometry, pre calculus, and the calculus class that comes after precalc 0- ","Taken geometry, pre calculus, and the calculus class that comes after precalc 0-","Taken geometry, pre calculus, and the calculus class that comes after precalc 0","Taken geometry, pre calculus, and the calculus class that comes after precalc -","Taken geometry, pre calculus, and the calculus class that comes after precalc - don't recall the name."],"rt":149438,"trial_type":"question","trial_index":0,"trial_index_global":95,"time_elapsed":2484314,"internal_chunk_id":"0-0.16-0"},{"question":"How familiar are you with the concept of modular arithmetic?","response_type":"multi","response_choices":["1 - never heard of it","2 - heard of it but didn't know what it was","3 - seen it used or ex plained","4 - used it but not often or recently","5 - used it, remember and understand it"],"correct_response":"1","response":"4 - used it but not often or recently","explain":false,"explanation":"","explanation_history":[],"response_history":["4 - used it but not often or recently"],"rt":11296,"trial_type":"question","trial_index":0,"trial_index_global":96,"time_elapsed":2495614,"internal_chunk_id":"0-0.16-0"},{"question":"How familiar are you with the concept of a mathematical group?","response_type":"multi","response_choices":["1 - never heard of it","2 - heard of it but didn't know what it was","3 - seen it used or explained","4 - used it but not often or recently","5 - used it, remember and understand it"],"correct_response":"1","response":"3 - seen it used or explained","explain":false,"explanation":"","explanation_history":[],"response_history":["3 - seen it used or explained"],"rt":8269,"trial_type":"question","trial_index":0,"trial_index_global":97,"time_elapsed":2503884,"internal_chunk_id":"0-0.16-0"},{"question":"Do you feel you learned something from this HIT?","response_type":"multi","response_choices":["1 - not at all","2 - somewhat","3 - definitely"],"correct_response":"1","response":"2 - somewhat","explain":false,"explanation":"","explanation_history":[],"response_history":["2 - somewhat"],"rt":4040,"trial_type":"question","trial_index":0,"trial_index_global":98,"time_elapsed":2507924,"internal_chunk_id":"0-0.16-0"},{"question":"Do you feel you understood the concepts in this HIT?","response_type":"multi","response_choices":["1 - not at all","2 - somewhat","3 - definitely"],"correct_response":"1","response":"3 - definitely","explain":false,"explanation":"","explanation_history":[],"response_history":["3 - definitely"],"rt":3119,"trial_type":"question","trial_index":0,"trial_index_global":99,"time_elapsed":2511044,"internal_chunk_id":"0-0.16-0"},{"question":"Did you enjoy this HIT?","response_type":"multi","response_choices":["1 - not at all","2  - somew hat","3 - definitely"],"correct_response":"1","response":"2 - somewhat","explain":false,"explanation":"","explanation_history":[],"response_history":["2 - somewhat"],"rt":2851,"trial_type":"question","trial_index":0,"trial_index_global":100,"time_elapsed":2513896,"internal_chunk_id":"0-0.16-0"},{"question":"What is your gender?","response_type":"multi","response_choices":["Female","Male","Other"],"correct_response":"","response":"Male","explain":false,"explanation":"","explanation_history":[],"response_history":["Male"],"rt":2748,"trial_type":"