[{"nsides":6,"instructions":"Let's define a new operation <img src=./images/hexagon_symbol.png style=width:14px;height:14px>. This operation will give us a way of combining two of the numbers 0, 1, 2, 3, 4, 5 to get another one of them back. Consider the hexagon at the right, where I've labeled each point with one of the numbers. To perform <img src=./images/hexagon_symbol.png style=width:14px;height:14px>, you can use the interactive diagram on the right, or perform the operation in your mind. Point the arrow at the first number on the hexagon by clicking, then click (or click and drag) to move the arrow the second number of points clockwise around the hexagon. The number the arrow arrives at is your result. (The operation is called <img src=./images/hexagon_symbol.png style=width:14px;height:14px> because it uses the hexagon, which has 6 sides.) <br /><br />For example, 3 <img src=./images/hexagon_symbol.png style=width:14px;height:14px> 5 =  2, becau se 5 steps clockwise from 3 on the hexagon brings us to 2. So 3 <img src=./images/hexagon_symbol.png style=width:14px;height:14px> 5 = 2.<br /><br />Similarly, 1 <img src=./images/hexagon_symbol.png style=width:14px;height:14px> 4 = 5, because 4 steps clockwise from 1 brings us to 5. <br /><br />Click Continue when you're ready to move on.","orientation_history":[0,[6.145759161682643,6.145759161682643,6.156212517565507,6.166693846484936,6.166693846484936,6.166693846484936,6.187731592846872,6.283185307179586],[0.9660167739817157,0.9660167739817157,0.9994588469612697,1.00589192476412,1.00589192476412,1.00589192476412,1.00589192476412,1.00589192476412,1.00589192476412,1.00589192476412,1.00589192476412,1.0471975511965976],[3.1958870654980993,3.1958870654980993,3.1958870654980993,3.1958870654980993,3.185043548981324,3.185043548981324,3.185043548981324,3.141592653589793],[5.171086134776653,5.171086134776653,5.171086134776653,5.171086134776653,5.171086134776653,5.171086134776653,5.171086134776653,5.171086134776653,5.171086134776653,5.235987755982988],[1.1174576309403337,1.1174576309403337,1.1174576309403337,1.1174576309403337,1.1174576309403337,1.1174576309403337,1.1174576309403337,1.1174576309403337,1.1174576309403337,1.0471975511965976],[4.23948237672176,4.23948237672176,4.23948237672176,4.23948237672176,4.23948237672176,4.23948237672176,4.23948237672176,4.23948237672176,4.23948237672176,4.23948237672176,4.23948237672176,4.23948237672176,4.23948237672176,4.23948237672176,4.23948237672176,4.23948237672176,4.23948237672176,4.23948237672176,4.23948237672176,4.23948237672176,4.23948237672176,4.23948237672176,4.23948237672176,4.23948237672176,4.1887902047863905],[1.0283647568049465,1.0283647568049465,1.0283647568049465,1.0283647568049465,1.0283647568049465,1.0283647568049465,1.0283647568049465,1.0283647568049465,1.0283647568049465,1.0471975511965976],[4.15598505119574,4.15598505119574,4.15598505119574,4.15598505119574,4.15598505119574,4.15598505119574,4.15598505119574,4.15598505119574,4.15598505119574,4.1887902047863905]],"rt":82097,"trial_type":"polygon-arrow-instructions","trial_index":0,"trial_index_global":1,"time_elapsed":92661,"internal_chunk_id":"0-0"},{"nsides":6,"instructions":"Do you see how <img src=./images/hexagon_symbol.png style=width:14px;height:14px> works? By labeling the points of the hexagon with the numbers from 0 to 5, we ensure that when we combine two numbers under <img src=./images/hexagon_symbol.png style=width:14px;height:14px>, we only produce numbers between 0 and 5.<br /><br />Click Continue when you are ready to move on.","orientation_history":[0],"rt":8013,"trial_type":"polygon-arrow-instructions","trial_index":0,"trial_index_global":2,"time_elapsed":100676,"internal_chunk_id":"0-0"},{"nsides":6,"question":"Now try one on your own! What is 4 <img src=./images/hexagon_symbol.png style=width:14px;height:14px> 5? <br /><br /> (Remember, to perform <img src=./ima ges/hexa gon_symbol.png style=width:14px;height:14px>, you can use the interactive diagram on the right, or perform the operation in your mind. Point the arrow at the first number on the hexagon, then move the arrow the second number of points clockwise around the hexagon. The number the arrow arrives at is your result.)","response_type":"free","response_choices":[],"correct_response":"3","response":"1","explain":false,"explanation":"","explanation_history":[],"orientation_history":[[0],[4.224552541725048,4.224552541725048,4.224552541725048,4.224552541725048,4.224552541725048,4.224552541725048,4.224552541725048,4.1887902047863905],[5.239676027398977,5.239676027398977,5.239676027398977,5.245232868004079,5.245232868004079,5.245232868004079,5.245232868004079,5.235987755982988]],"response_history":["1"],"rt":10685,"trial_type":"polygon-arrow-question","trial_index":0,"trial_index_global":3,"time_elapsed":111365,"internal_chunk_id":"0-0.3-0"},{"nsides":6,"feedback":"Sorry, that was  incorrec t. 4 <img src=./images/hexagon_symbol.png style=width:14px;height:14px> 5 = 3 because 5 steps clockwise on the hexagon from 4 brings us to 3","orientation_history":[0],"rt":20845,"trial_type":"polygon-arrow-feedback","trial_index":0,"trial_index_global":4,"time_elapsed":132212,"internal_chunk_id":"0-0.3-0"},{"nsides":6,"question":"What is 3 <img src=./images/hexagon_symbol.png style=width:14px;height:14px> 2? <br /><br /> (Remember, to perform <img src=./images/hexagon_symbol.png style=width:14px;height:14px>, you can use the interactive diagram on the right, or perform the operation in your mind. Point the arrow at the first number on the hexagon, then move the arrow the second number of points clockwise around the hexagon. The number the arrow arrives at is your result.)","response_type":"free","response_choices":[],"correct_response":"5","response":"5","explain":false,"explanation":"","explanation_history":[],"orientation_history":[[0],[3.071938079861225,3.071938079861225,3.071938079861225,3.071938079861225,3.071938079861225,3.071938079861225,3.071938079861225,3.071938079861225,3.141592653589793],[4.171969480114106,4.171969480114106,4.16222320003151,4.16222320003151,4.16222320003151,4.16222320003151,4.16222320003151,4.1887902047863905],[5.245232868004079,5.245232868004079,5.245232868004079,5.245232868004079,5.245232868004079,5.245232868004079,5.235987755982988]],"response_history":["5"],"rt":15935,"trial_type":"polygon-arrow-question","trial_index":0,"trial_index_global":5,"time_elapsed":148148,"internal_chunk_id":"0-0.3-0"},{"nsides":6,"feedback":"Correct! 3 <img src=./images/hexagon_symbol.png style=width:14px;height:14px> 2 = 5 because 2 steps clockwise on the hexagon from 3 brings us to 5","orientation_history":[0],"rt":1631,"trial_type":"polygon-arrow-feedback","trial_index":0,"trial_index_global":6,"time_elapsed":149780,"internal_chunk_id":"0-0.3-0"},{"nsides":6,"question":"What is 1 <img src=./images/hexagon_ symbol.p ng style=width:14px;height:14px> 5? <br /><br /> (Remember, to perform <img src=./images/hexagon_symbol.png style=width:14px;height:14px>, you can use the interactive diagram on the right, or perform the operation in your mind. Point the arrow at the first number on the hexagon, then move the arrow the second number of points clockwise around the hexagon. The number the arrow arrives at is your result.)","response_type":"free","response_choices":[],"correct_response":"0","response":"0","explain":false,"explanation":"","explanation_history":[],"orientation_history":[[0],[1.0747526484287184,1.0747526484287184,1.0747526484287184,1.0747526484287184,1.0747526484287184,1.0747526484287184,1.0747526484287184,1.0747526484287184,1.0747526484287184,1.0747526484287184,1.0471975511965976],[2.185459278717062,2.185459278717062,2.185459278717062,2.185459278717062,2.185459278717062,2.185459278717062,2.185459278717062,2.0943951023931953],[3.1302295063255023,3.1302295063255023,3.1302295063255023,3.1302295063255023,3.1302295063255023,3.141592653589793],[4.217777819200903,4.217777819200903,4.209114549129957,4.209114549129957,4.209114549129957,4.209114549129957,4.1887902047863905],[5.037884835621167,5.037884835621167,5.037884835621167,5.037884835621167,5.037884835621167,5.037884835621167,5.235987755982988],[0.13863973713415811,0.13863973713415811,0.13863973713415811,0.13863973713415811,0.13863973713415811,0]],"response_history":["0"],"rt":9727,"trial_type":"polygon-arrow-question","trial_index":0,"trial_index_global":7,"time_elapsed":159508,"internal_chunk_id":"0-0.3-0"},{"nsides":6,"feedback":"Correct! 1 <img src=./images/hexagon_symbol.png style=width:14px;height:14px> 5 = 0 because 5 steps clockwise on the hexagon from 1 brings us to 0","orientation_history":[0],"rt":1472,"trial_type":"polygon-arrow-feedback","trial_index":0,"trial_index_global":8,"time_elapsed":160980,"internal_chunk_id":"0-0.3-0"},{"nsides":6,"question":"What is 1 <img src=./ima ges/hexa gon_symbol.png style=width:14px;height:14px> 1? <br /><br /> (Remember, to perform <img src=./images/hexagon_symbol.png style=width:14px;height:14px>, you can use the interactive diagram on the right, or perform the operation in your mind. Point the arrow at the first number on the hexagon, then move the arrow the second number of points clockwise around the hexagon. The number the arrow arrives at is your result.)","response_type":"free","response_choices":[],"correct_response":"2","response":"2","explain":false,"explanation":"","explanation_history":[],"orientation_history":[[0],[1.0529033447245055,1.0529033447245055,1.0478575632237246,1.0478575632237246,1.0478575632237246,1.0478575632237246,1.0478575632237246,1.0478575632237246,1.0471975511965976],[2.1112158270654806,2.1112158270654806,2.1112158270654806,2.1112158270654806,2.1112158270654806,2.1112158270654806,2.0943951023931953]],"response_history":["2"],"rt":4496,"trial_type":"polygon-arrow-question","trial_index":0,"trial_index_global":9,"time_elapsed":165476,"internal_chunk_id":"0-0.3-0"},{"nsides":6,"feedback":"Correct! 1 <img src=./images/hexagon_symbol.png style=width:14px;height:14px> 1 = 2 because 1 step clockwise on the hexagon from 1 brings us to 2","orientation_history":[0],"rt":1495,"trial_type":"polygon-arrow-feedback","trial_index":0,"trial_index_global":10,"time_elapsed":166972,"internal_chunk_id":"0-0.3-0"},{"nsides":6,"question":"What is 3 <img src=./images/hexagon_symbol.png style=width:14px;height:14px> 0? <br /><br /> (Remember, to perform <img src=./images/hexagon_symbol.png style=width:14px;height:14px>, you can use the interactive diagram on the right, or perform the operation in your mind. Point the arrow at the first number on the hexagon, then move the arrow the second number of points clockwise around the hexagon. The number the arrow arrives at is your result.)","response_type":"free","response_choices":[],"correct_response":"3","response":" 3","explain":false,"explanation":"","explanation_history":[],"orientation_history":[[0],[3.0848354957676998,3.0848354957676998,3.0848354957676998,3.0848354957676998,3.0848354957676998,3.0848354957676998,3.0848354957676998,3.141592653589793]],"response_history":["3"],"rt":4375,"trial_type":"polygon-arrow-question","trial_index":0,"trial_index_global":11,"time_elapsed":171348,"internal_chunk_id":"0-0.3-0"},{"nsides":6,"feedback":"Correct! 3 <img src=./images/hexagon_symbol.png style=width:14px;height:14px> 0 = 3 because 0 steps clockwise on the hexagon from 3 brings us to 3","orientation_history":[0],"rt":1151,"trial_type":"polygon-arrow-feedback","trial_index":0,"trial_index_global":12,"time_elapsed":172500,"internal_chunk_id":"0-0.3-0"},{"nsides":6,"question":"What is 4 <img src=./images/hexagon_symbol.png style=width:14px;height:14px> 4? <br /><br /> (Remember, to perform <img src=./images/hexagon_symbol.png style=width:14px;height:14px>, you can use  the int eractive diagram on the right, or perform the operation in your mind. Point the arrow at the first number on the hexagon, then move the arrow the second number of points clockwise around the hexagon. The number the arrow arrives at is your result.)","response_type":"free","response_choices":[],"correct_response":"2","response":"2","explain":false,"explanation":"","explanation_history":[],"orientation_history":[[0],[3.995067275245241,3.995067275245241,3.995067275245241,3.995067275245241,3.995067275245241,3.995067275245241,4.1887902047863905]],"response_history":["2"],"rt":5775,"trial_type":"polygon-arrow-question","trial_index":0,"trial_index_global":13,"time_elapsed":178276,"internal_chunk_id":"0-0.3-0"},{"nsides":6,"feedback":"Correct! 4 <img src=./images/hexagon_symbol.png style=width:14px;height:14px> 4 = 2 because 4 steps clockwise on the hexagon from 4 brings us to 2","orientation_history":[0],"rt":903,"trial_type":"polygon-arrow-feedback","trial_index":0,"trial_index_global":14,"time_elapsed":179180,"internal_chunk_id":"0-0.3-0"},{"nsides":6,"question":"What is 1 <img src=./images/hexagon_symbol.png style=width:14px;height:14px> 3? <br /><br /> (Remember, to perform <img src=./images/hexagon_symbol.png style=width:14px;height:14px>, you can use the interactive diagram on the right, or perform the operation in your mind. Point the arrow at the first number on the hexagon, then move the arrow the second number of points clockwise around the hexagon. The number the arrow arrives at is your result.)","response_type":"free","response_choices":[],"correct_response":"4","response":"4","explain":false,"explanation":"","explanation_history":[],"orientation_history":[[0],[0.9948777271765435,0.9948777271765435,0.9948777271765435,0.9948777271765435,0.9948777271765435,0.9948777271765435,1.0040671092713902,1.0471975511965976]],"response_history":["4"],"rt":6423,"trial_type":"polygon-arrow-question","trial_index":0,"trial_index_global":15,"time_elapsed":185604,"internal_chunk_id":"0-0.3-0"},{"nsides":6,"feedback":"Correct! 1 <img src=./images/hexagon_symbol.png style=width:14px;height:14px> 3 = 4 because 3 steps clockwise on the hexagon from 1 brings us to 4","orientation_history":[0],"rt":807,"trial_type":"polygon-arrow-feedback","trial_index":0,"trial_index_global":16,"time_elapsed":186412,"internal_chunk_id":"0-0.3-0"},{"nsides":6,"question":"What is 4 <img src=./images/hexagon_symbol.png style=width:14px;height:14px> 3? <br /><br /> (Remember, to perform <img src=./images/hexagon_symbol.png style=width:14px;height:14px>, you can use the interactive diagram on the right, or perform the operation in your mind. Point the arrow at the first number on the hexagon, then move the arrow the second number of points clockwise around the hexagon. The number the arrow arrives at is your result.)","response_type":"free","response_choices":[],"correct_response":"1","response":"1","explain":false,"explanation":"","explanation_history":[],"orientation_history":[[0]],"response_history":["1"],"rt":3542,"trial_type":"polygon-arrow-question","trial_index":0,"trial_index_global":17,"time_elapsed":189956,"internal_chunk_id":"0-0.3-0"},{"nsides":6,"feedback":"Correct! 4 <img src=./images/hexagon_symbol.png style=width:14px;height:14px> 3 = 1 because 3 steps clockwise on the hexagon from 4 brings us to 1","orientation_history":[0],"rt":902,"trial_type":"polygon-arrow-feedback","trial_index":0,"trial_index_global":18,"time_elapsed":190859,"internal_chunk_id":"0-0.3-0"},{"nsides":6,"question":"What is 0 <img src=./images/hexagon_symbol.png style=width:14px;height:14px> 5? <br /><br /> (Remember, to perform <img src=./images/hexagon_symbol.png style=width:14px;height:14px>, you can use the interactive diagram on the right, or perform the operation in your mind. Point the arrow at the first number on the hexagon, then move the arrow the second number of points clockwis e around  the hexagon. The number the arrow arrives at is your result.)","response_type":"free","response_choices":[],"correct_response":"5","response":"5","explain":false,"explanation":"","explanation_history":[],"orientation_history":[[0]],"response_history":["4","5"],"rt":6225,"trial_type":"polygon-arrow-question","trial_index":0,"trial_index_global":19,"time_elapsed":197085,"internal_chunk_id":"0-0.3-0"},{"nsides":6,"feedback":"Correct! 0 <img src=./images/hexagon_symbol.png style=width:14px;height:14px> 5 = 5 because 5 steps clockwise on the hexagon from 0 brings us to 5","orientation_history":[0],"rt":1022,"trial_type":"polygon-arrow-feedback","trial_index":0,"trial_index_global":20,"time_elapsed":198108,"internal_chunk_id":"0-0.3-0"},{"nsides":6,"question":"What is 2 <img src=./images/hexagon_symbol.png style=width:14px;height:14px> 5? <br /><br /> (Remember, to perform <img src=./images/hexagon_symbol.png style=width:14px;height:14px>, you can use the  interact ive diagram on the right, or perform the operation in your mind. Point the arrow at the first number on the hexagon, then move the arrow the second number of points clockwise around the hexagon. The number the arrow arrives at is your result.)","response_type":"free","response_choices":[],"correct_response":"1","response":"1","explain":false,"explanation":"","explanation_history":[],"orientation_history":[[0]],"response_history":["1"],"rt":4742,"trial_type":"polygon-arrow-question","trial_index":0,"trial_index_global":21,"time_elapsed":202852,"internal_chunk_id":"0-0.3-0"},{"nsides":6,"feedback":"Correct! 2 <img src=./images/hexagon_symbol.png style=width:14px;height:14px> 5 = 1 because 5 steps clockwise on the hexagon from 2 brings us to 1","orientation_history":[0],"rt":865,"trial_type":"polygon-arrow-feedback","trial_index":0,"trial_index_global":22,"time_elapsed":203717,"internal_chunk_id":"0-0.3-0"},{"nsides":6,"instructions":"Now we're going to discuss a couple  special  properties of this new operation, <img src=./images/hexagon_symbol.png style=width:14px;height:14px> that we've learned. First, notice that the number 0 behaves in a special way under <img src=./images/hexagon_symbol.png style=width:14px;height:14px>. Whenever we combine 0 with anything else, we get that same thing back. We'll say that 0 is the <i>identity</i> under <img src=./images/hexagon_symbol.png style=width:14px;height:14px>, because when you combine it with something it gives you that identical thing back.","orientation_history":[0],"rt":15212,"trial_type":"polygon-arrow-instructions","trial_index":0,"trial_index_global":23,"time_elapsed":218933,"internal_chunk_id":"0-0"},{"nsides":6,"instructions":"Now that we know 0 is the identity under <img src=./images/hexagon_symbol.png style=width:14px;height:14px>, we're going to make a new definition. We'll say that the <i>inverse</i> of a number is the element that you combine with it to pro duce the  identity under our operation. For example, 5 <img src=./images/hexagon_symbol.png style=width:14px;height:14px> 1 = 0, so we say 1 is the inverse of 5 under <img src=./images/hexagon_symbol.png style=width:14px;height:14px>, (remember 0 is the identity under <img src=./images/hexagon_symbol.png style=width:14px;height:14px>). Similarly, 3 is its own inverse under <img src=./images/hexagon_symbol.png style=width:14px;height:14px>, because 3 <img src=./images/hexagon_symbol.png style=width:14px;height:14px> 3 = 0.","orientation_history":[0],"rt":36598,"trial_type":"polygon-arrow-instructions","trial_index":0,"trial_index_global":24,"time_elapsed":255532,"internal_chunk_id":"0-0"},{"nsides":6,"question":"Now you try! What is the inverse of 4 under <img src=./images/hexagon_symbol.png style=width:14px;height:14px>? <br /><br /> (Remember, the inverse of an element is the thing which you combine with it to produce the identity.)","response_type":"free","response_choices":[],"correct_response":"2","response":"2","explain":false,"explanation":"","explanation_history":[],"orientation_history":[[0]],"response_history":["2"],"rt":5616,"trial_type":"polygon-arrow-question","trial_index":0,"trial_index_global":25,"time_elapsed":261149,"internal_chunk_id":"0-0.7-0"},{"nsides":6,"feedback":"Correct! The inverse of 4 under <img src=./images/hexagon_symbol.png style=width:14px;height:14px> is 2 because 4 <img src=./images/hexagon_symbol.png style=width:14px;height:14px> 2 = 0, and 0 is the identity under <img src=./images/hexagon_symbol.png style=width:14px;height:14px>.","orientation_history":[0],"rt":1093,"trial_type":"polygon-arrow-feedback","trial_index":0,"trial_index_global":26,"time_elapsed":262243,"internal_chunk_id":"0-0.7-0"},{"nsides":6,"question":"What is the inverse of 1 under <img src=./images/hexagon_symbol.png style=width:14px;height:14px>? <br /><br /> (Remember, the inve rse of a n element is the thing which you combine with it to produce the identity.)","response_type":"free","response_choices":[],"correct_response":"5","response":"5","explain":false,"explanation":"","explanation_history":[],"orientation_history":[[0]],"response_history":["5"],"rt":3551,"trial_type":"polygon-arrow-question","trial_index":0,"trial_index_global":27,"time_elapsed":265796,"internal_chunk_id":"0-0.7-0"},{"nsides":6,"feedback":"Correct! The inverse of 1 under <img src=./images/hexagon_symbol.png style=width:14px;height:14px> is 5 because 1 <img src=./images/hexagon_symbol.png style=width:14px;height:14px> 5 = 0, and 0 is the identity under <img src=./images/hexagon_symbol.png style=width:14px;height:14px>.","orientation_history":[0],"rt":1286,"trial_type":"polygon-arrow-feedback","trial_index":0,"trial_index_global":28,"time_elapsed":267083,"internal_chunk_id":"0-0.7-0"},{"nsides":6,"question":"What is the inverse of 3 under <img src=./images/hex agon_sym bol.png style=width:14px;height:14px>? <br /><br /> (Remember, the inverse of an element is the thing which you combine with it to produce the identity.)","response_type":"free","response_choices":[],"correct_response":"3","response":"3","explain":false,"explanation":"","explanation_history":[],"orientation_history":[[0]],"response_history":["3"],"rt":2456,"trial_type":"polygon-arrow-question","trial_index":0,"trial_index_global":29,"time_elapsed":269540,"internal_chunk_id":"0-0.7-0"},{"nsides":6,"feedback":"Correct! The inverse of 3 under <img src=./images/hexagon_symbol.png style=width:14px;height:14px> is 3 because 3 <img src=./images/hexagon_symbol.png style=width:14px;height:14px> 3 = 0, and 0 is the identity under <img src=./images/hexagon_symbol.png style=width:14px;height:14px>.","orientation_history":[0],"rt":935,"trial_type":"polygon-arrow-feedback","trial_index":0,"trial_index_global":30,"time_elapsed":270476,"internal_chunk_id":"0-0. 7-0"},{"nsides":6,"question":"What is the inverse of 2 under <img src=./images/hexagon_symbol.png style=width:14px;height:14px>? <br /><br /> (Remember, the inverse of an element is the thing which you combine with it to produce the identity.)","response_type":"free","response_choices":[],"correct_response":"4","response":"4","explain":false,"explanation":"","explanation_history":[],"orientation_history":[[0]],"response_history":["4"],"rt":3063,"trial_type":"polygon-arrow-question","trial_index":0,"trial_index_global":31,"time_elapsed":273540,"internal_chunk_id":"0-0.7-0"},{"nsides":6,"feedback":"Correct! The inverse of 2 under <img src=./images/hexagon_symbol.png style=width:14px;height:14px> is 4 because 2 <img src=./images/hexagon_symbol.png style=width:14px;height:14px> 4 = 0, and 0 is the identity under <img src=./images/hexagon_symbol.png style=width:14px;height:14px>.","orientation_history":[0],"rt":935,"trial_type":"polygon-arrow-feedback","trial_index":0,"trial_index_global":32,"time_elapsed":274476,"internal_chunk_id":"0-0.7-0"},{"nsides":6,"question":"What is the inverse of 0 under <img src=./images/hexagon_symbol.png style=width:14px;height:14px>? <br /><br /> (Remember, the inverse of an element is the thing which you combine with it to produce the identity.)","response_type":"free","response_choices":[],"correct_response":"0","response":"0","explain":false,"explanation":"","explanation_history":[],"orientation_history":[[0]],"response_history":["0"],"rt":2991,"trial_type":"polygon-arrow-question","trial_index":0,"trial_index_global":33,"time_elapsed":277468,"internal_chunk_id":"0-0.7-0"},{"nsides":6,"feedback":"Correct! The inverse of 0 under <img src=./images/hexagon_symbol.png style=width:14px;height:14px> is 0 because 0 <img src=./images/hexagon_symbol.png style=width:14px;height:14px> 0 = 0, and 0 is the identity under <img src=./images/hexagon_symbol.png style=width:14px;height:14 px>.","orientation_history":[0],"rt":896,"trial_type":"polygon-arrow-feedback","trial_index":0,"trial_index_global":34,"time_elapsed":278365,"internal_chunk_id":"0-0.7-0"},{"instructions":"It is also possible to successively apply <img src=./images/hexagon_symbol.png style=width:14px;height:14px>, and the operation can simply be performed starting with the left-most pair. For example, 2 <img src=./images/hexagon_symbol.png style=width:14px;height:14px> 3 <img src=./images/hexagon_symbol.png style=width:14px;height:14px> 4 = 5 <img src=./images/hexagon_symbol.png style=width:14px;height:14px> 4 = 3.","rt":18350,"trial_type":"instructions","trial_index":0,"trial_index_global":35,"time_elapsed":296716,"internal_chunk_id":"0-0"},{"nsides":6,"instructions":"We have one last definition to learn today, using the successive operations we just learned. Let's start with an example. Under our operation <img src=./images/hexagon_symbol.png style=width:14p x;height :14px> we can make every other number using just 1: 2 = 1 <img src=./images/hexagon_symbol.png style=width:14px;height:14px> 1, 3 = 1 <img src=./images/hexagon_symbol.png style=width:14px;height:14px> 1 <img src=./images/hexagon_symbol.png style=width:14px;height:14px> 1, 4 = 1 <img src=./images/hexagon_symbol.png style=width:14px;height:14px> 1 <img src=./images/hexagon_symbol.png style=width:14px;height:14px> 1 <img src=./images/hexagon_symbol.png style=width:14px;height:14px> 1, 5 = 1 <img src=./images/hexagon_symbol.png style=width:14px;height:14px> 1 <img src=./images/hexagon_symbol.png style=width:14px;height:14px> 1 <img src=./images/hexagon_symbol.png style=width:14px;height:14px> 1 <img src=./images/hexagon_symbol.png style=width:14px;height:14px> 1, and 0 = 1 <img src=./images/hexagon_symbol.png style=width:14px;height:14px> 1 <img src=./images/hexagon_symbol.png style=w idth:14p x;height:14px> 1 <img src=./images/hexagon_symbol.png style=width:14px;height:14px> 1 <img src=./images/hexagon_symbol.png style=width:14px;height:14px> 1 <img src=./images/hexagon_symbol.png style=width:14px;height:14px> 1. Because 1 can make every other element under <img src=./images/hexagon_symbol.png style=width:14px;height:14px>, we say that 1 is a <i>generator</i> under <img src=./images/hexagon_symbol.png style=width:14px;height:14px>. <br /><br /> However, 2 is not a generator under <img src=./images/hexagon_symbol.png style=width:14px;height:14px>, because 4 = 2 <img src=./images/hexagon_symbol.png style=width:14px;height:14px> 2, and 0 = 2 <img src=./images/hexagon_symbol.png style=width:14px;height:14px> 2 <img src=./images/hexagon_symbol.png style=width:14px;height:14px> 2, but there is no way to make 1, 3, or 5 using just 2.","orientation_history":[0],"rt":34382,"trial_type":"polygon-arro w-instru ctions","trial_index":0,"trial_index_global":36,"time_elapsed":331099,"internal_chunk_id":"0-0"},{"nsides":6,"question":"Now you try! Is 3 a generator under <img src=./images/hexagon_symbol.png style=width:14px;height:14px>? <br /><br /> (Remember, a generator is an element which can make every other element.)","response_type":"multi","response_choices":["Yes","No"],"correct_response":"No","response":"No","explain":false,"explanation":"","explanation_history":[],"orientation_history":[[0]],"response_history":["No"],"rt":8710,"trial_type":"polygon-arrow-question","trial_index":0,"trial_index_global":37,"time_elapsed":339811,"internal_chunk_id":"0-0.10-0"},{"nsides":6,"feedback":"Correct! 3 is not a generator under <img src=./images/hexagon_symbol.png style=width:14px;height:14px>, because 3 = 3, 0 = 3 <img src=./images/hexagon_symbol.png style=width:14px;height:14px> 3, but there is no way to make 1, 2, 4, or 5 using just 3.","orientation_history":[0],"rt":1751,"trial_type":"polygon-arrow-feedback","trial_index":0,"trial_index_global":38,"time_elapsed":341563,"internal_chunk_id":"0-0.10-0"},{"nsides":6,"question":"Is 5 a generator under <img src=./images/hexagon_symbol.png style=width:14px;height:14px>? <br /><br /> (Remember, a generator is an element which can make every other element.)","response_type":"multi","response_choices":["Yes","No"],"correct_response":"Yes","response":"No","explain":false,"explanation":"","explanation_history":[],"orientation_history":[[0]],"response_history":["No"],"rt":3031,"trial_type":"polygon-arrow-question","trial_index":0,"trial_index_global":39,"time_elapsed":344595,"internal_chunk_id":"0-0.10-0"},{"nsides":6,"feedback":"Sorry, that's incorrect. 5 is a generator under <img src=./images/hexagon_symbol.png style=width:14px;height:14px>, because 5 = 5, 4 = 5 <img src=./images/hexagon_symbol.png style=width:14px;height:14px> 5, 3 = 5 <img src=./images/hexagon_symbol.png  style=width:14px;height:14px> 5 <img src=./images/hexagon_symbol.png style=width:14px;height:14px> 5, 2 = 5 <img src=./images/hexagon_symbol.png style=width:14px;height:14px> 5 <img src=./images/hexagon_symbol.png style=width:14px;height:14px> 5 <img src=./images/hexagon_symbol.png style=width:14px;height:14px> 5, 1 = 5 <img src=./images/hexagon_symbol.png style=width:14px;height:14px> 5 <img src=./images/hexagon_symbol.png style=width:14px;height:14px> 5 <img src=./images/hexagon_symbol.png style=width:14px;height:14px> 5 <img src=./images/hexagon_symbol.png style=width:14px;height:14px> 5, and 0 = 5 <img src=./images/hexagon_symbol.png style=width:14px;height:14px> 5 <img src=./images/hexagon_symbol.png style=width:14px;height:14px> 5 <img src=./images/hexagon_symbol.png style=width:14px;height:14px> 5 <img src=./images/hexagon_symbol.png style=width:14px;height:14px> 5 <img src= ./images /hexagon_symbol.png style=width:14px;height:14px> 5, so you can make all of the numbers under <img src=./images/hexagon_symbol.png style=width:14px;height:14px> using 5","orientation_history":[0],"rt":12655,"trial_type":"polygon-arrow-feedback","trial_index":0,"trial_index_global":40,"time_elapsed":357251,"internal_chunk_id":"0-0.10-0"},{"nsides":6,"question":"Is 4 a generator under <img src=./images/hexagon_symbol.png style=width:14px;height:14px>? <br /><br /> (Remember, a generator is an element which can make every other element.)","response_type":"multi","response_choices":["Yes","No"],"correct_response":"No","response":"No","explain":false,"explanation":"","explanation_history":[],"orientation_history":[[0]],"response_history":["No"],"rt":7591,"trial_type":"polygon-arrow-question","trial_index":0,"trial_index_global":41,"time_elapsed":364843,"internal_chunk_id":"0-0.10-0"},{"nsides":6,"feedback":"Correct! 4 is not a generator under <img src=./im ages/hex agon_symbol.png style=width:14px;height:14px>, because 4 = 4, 2 = 4 <img src=./images/hexagon_symbol.png style=width:14px;height:14px> 4, and 0 = 4 <img src=./images/hexagon_symbol.png style=width:14px;height:14px> 4 <img src=./images/hexagon_symbol.png style=width:14px;height:14px> 4, but there is no way to make 1, 3, or 5 using just 4.","orientation_history":[0],"rt":1038,"trial_type":"polygon-arrow-feedback","trial_index":0,"trial_index_global":42,"time_elapsed":365883,"internal_chunk_id":"0-0.10-0"},{"nsides":6,"question":"Is 0 a generator under <img src=./images/hexagon_symbol.png style=width:14px;height:14px>? <br /><br /> (Remember, a generator is an element which can make every other element.)","response_type":"multi","response_choices":["Yes","No"],"correct_response":"No","response":"No","explain":false,"explanation":"","explanation_history":[],"orientation_history":[[0]],"response_history":["Yes","No"],"rt":4343,"trial_type":"p olygon-a rrow-question","trial_index":0,"trial_index_global":43,"time_elapsed":370227,"internal_chunk_id":"0-0.10-0"},{"nsides":6,"feedback":"Correct! 0 is not a generator under <img src=./images/hexagon_symbol.png style=width:14px;height:14px>, because 0 = 0, but there is no way to make 1, 2, 3, 4, or 5 using just 0.","orientation_history":[0],"rt":1032,"trial_type":"polygon-arrow-feedback","trial_index":0,"trial_index_global":44,"time_elapsed":371260,"internal_chunk_id":"0-0.10-0"},{"nsides":9,"instructions":"Now we are going to ask you some questions about a new operation, <img src=./images/nonagon_symbol.png style=width:14px;height:14px>, on the numbers 0, 1, 2, 3, 4, 5, 6, 7, 8. It works exactly like <img src=./images/hexagon_symbol.png style=width:14px;height:14px>, except now you use the nonagon shown at the right. <br /><br />Do you see how <img src=./images/nonagon_symbol.png style=width:14px;height:14px> works just like <img src=./images/he xagon_sy mbol.png style=width:14px;height:14px>? By labeling the points of the nonagon with the numbers from 0 to 8, we ensure that when we combine two numbers under <img src=./images/nonagon_symbol.png style=width:14px;height:14px>, we only produce numbers between 0 and 8. <br /><br />We'll give you one practice question with feedback to make sure you understand the new operation. After that, try to complete the remaining questions as accurately as possible.","orientation_history":[0],"rt":25975,"trial_type":"polygon-arrow-instructions","trial_index":0,"trial_index_global":45,"time_elapsed":397236,"internal_chunk_id":"0-0"},{"nsides":9,"question":"Practice: What is 5 <img src=./images/nonagon_symbol.png style=width:14px;height:14px> 5?","response_type":"free","response_choices":[],"correct_response":"1","response":"1","explain":false,"explanation":"","explanation_history":[],"orientation_history":[[0],[3.3656163006277167,3.3656163006277167,3.3656163006277167,3.3656163006277167,3.3656163006277167,3.3747724542366093,3.3865713167166573,3.490658503988659],[3.4733096553926424,3.4733096553926424,3.4733096553926424,3.4733096553926424,3.4733096553926424,3.4733096553926424,3.4733096553926424,3.4733096553926424,3.4733096553926424,3.4733096553926424,3.4733096553926424,3.4733096553926424,3.4733096553926424,3.4733096553926424,3.4733096553926424,3.4733096553926424,3.4733096553926424,3.4733096553926424,3.490658503988659],[4.094633254818458,4.094633254818458,4.094633254818458,4.094633254818458,4.094633254818458,4.094633254818458,4.094633254818458,4.1887902047863905],[4.8899851476681775,4.8899851476681775,4.8899851476681775,4.8899851476681775,4.8899851476681775,4.8899851476681775,4.886921905584122],[5.641941530895292,5.641941530895292,5.641941530895292,5.641941530895292,5.641941530895292,5.585053606381854],[0.04874185130993158,0.04874185130993158,0.04874185130993158,0.04874185130993158,0],[0.8818719385800352,0.8818719385800352,0.8818719385800352,0.8818719385800352,0.8818719385800352,0.8818719385800352,0.6981317007977318]],"response_history":["1"],"rt":9398,"trial_type":"polygon-arrow-question","trial_index":0,"trial_index_global":46,"time_elapsed":406635,"internal_chunk_id":"0-0.12-0"},{"nsides":9,"feedback":"Correct! 5 <img src=./images/nonagon_symbol.png style=width:14px;height:14px> 5 = 1 because 5 steps clockwise on the nonagon from 5 brings us to 1","orientation_history":[0],"rt":1120,"trial_type":"polygon-arrow-feedback","trial_index":0,"trial_index_global":47,"time_elapsed":407756,"internal_chunk_id":"0-0.12-0"},{"nsides":9,"question":"What is 3 <img src=./images/nonagon_symbol.png style=width:14px;height:14px> 3?","response_type":"free","response_choices":[],"correct_response":"6","response":"6","explain":false,"explanation":"","explanation_history":[],"orientation_history":[[0]],"response_history":["56","6"],"rt":4326,"trial_type":"polygon-arrow-question","trial_index":0,"trial_index_global":48,"time_elapsed":412084,"internal_chunk_id":"0-0.12-0"},{"nsides":9,"question":"What is 7 <img src=./images/nonagon_symbol.png style=width:14px;height:14px> 4?","response_type":"free","response_choices":[],"correct_response":"2","response":"2","explain":false,"explanation":"","explanation_history":[],"orientation_history":[[0],[4.8426004233490865,4.8426004233490865,4.8426004233490865,4.8426004233490865,4.8426004233490865,4.886921905584122]],"response_history":["2"],"rt":7879,"trial_type":"polygon-arrow-question","trial_index":0,"trial_index_global":49,"time_elapsed":419964,"internal_chunk_id":"0-0.12-0"},{"nsides":9,"question":"What is 1 <img src=./images/nonagon_symbol.png style=width:14px;height:14px> 8?","response_type":"free","response_choices":[],"correct_response":"0","response":"8","explain":false,"explanation":"","explanation_history":[],"orientation_history":[[0]],"response_history":["8"],"rt":5667,"trial_type":"polygon-arrow-question","trial_index":0,"trial_index_global":50,"time_elapsed":425633,"internal_chunk_id":"0-0.12-0"},{"nsides":9,"question":"What is 5 <img src=./images/nonagon_symbol.png style=width:14px;height:14px> 4?","response_type":"free","response_choices":[],"correct_response":"0","response":"8","explain":false,"explanation":"","explanation_history":[],"orientation_history":[[0]],"response_history":["9","8"],"rt":6498,"trial_type":"polygon-arrow-question","trial_index":0,"trial_index_global":51,"time_elapsed":432132,"internal_chunk_id":"0-0.12-0"},{"nsides":9,"question":"What is 6 <img src=./images/nonagon_symbol.png style=width:14px;height:14px> 6?","response_type":"free","response_choices":[],"correct_response":"3","response":"3","explain":false,"explanation":"","explanation_history":[],"orientation_history":[[0]],"response_history":["3"],"rt":7735,"trial_type":"polygon-arrow-question","trial_index":0,"trial_index_global":52,"time_elapsed":439868,"internal_chunk_id":"0-0.12-0"},{"nsides":9,"instructions":"On the fol lowing q uestion, and several others later in the HIT, we will ask you to explain how you got your answer. On these questions, you will be given one box for your answer to the question, and a second for your explanation. Please explain your thought process in as much detail as possible (at least one sentence, and more if you can).","orientation_history":[0],"rt":9263,"trial_type":"polygon-arrow-instructions","trial_index":0,"trial_index_global":53,"time_elapsed":449132,"internal_chunk_id":"0-0.12-0"},{"nsides":9,"question":"What is 4 <img src=./images/nonagon_symbol.png style=width:14px;height:14px> 1? Please explain in words how you got your answer.","response_type":"free","response_choices":[],"correct_response":"5","response":"5","explain":true,"explanation":"5 is one over from 4.","explanation_history":["5 is one ov","5 is one o","5 is one over from 4.","5 is one over from 4, ","5 is one over from 4,","5 is one over from 4."],"orientation_history":[[0],[2.8263779538390823,2.8263779538390823,2.8263779538390823,2.8263779538390823,2.8263779538390823,2.8263779538390823,2.8263779538390823,2.792526803190927]],"response_history":["5"],"rt":30015,"trial_type":"polygon-arrow-question","trial_index":0,"trial_index_global":54,"time_elapsed":479148,"internal_chunk_id":"0-0.12-0"},{"nsides":9,"question":"What is 8 <img src=./images/nonagon_symbol.png style=width:14px;height:14px> 4? Please explain in words how you got your answer.","response_type":"free","response_choices":[],"correct_response":"3","response":"3","explain":true,"explanation":"3 is 4 over from 8.","explanation_history":["3 is 4 over from 8."],"orientation_history":[[0]],"response_history":["3"],"rt":18918,"trial_type":"polygon-arrow-question","trial_index":0,"trial_index_global":55,"time_elapsed":498067,"internal_chunk_id":"0-0.12-0"},{"nsides":9,"question":"What is the identity under <img src=./images/nonagon_symbol.png style=width:14px;height:14px>? Please explain in words how y ou got y our answer.","response_type":"free","response_choices":[],"correct_response":"0","response":"0","explain":true,"explanation":"any number moving 0 is itself, it's own identity.","explanation_history":["anyn","any number moving 0 o","any number moving 0 is itself, it's own identiy","any number moving 0 is itself, it's own identity."],"orientation_history":[[0]],"response_history":["0"],"rt":46822,"trial_type":"polygon-arrow-question","trial_index":0,"trial_index_global":56,"time_elapsed":544889,"internal_chunk_id":"0-0.12-0"},{"nsides":9,"question":"What is the inverse of 5 under <img src=./images/nonagon_symbol.png style=width:14px;height:14px>?","response_type":"free","response_choices":[],"correct_response":"4","response":"0","explain":false,"explanation":"","explanation_history":[],"orientation_history":[[0],[3.4846165940104967,3.490658503988659]],"response_history":["0"],"rt":25939,"trial_type":"polygon-arrow-question","trial_index":0,"trial_index_global":57,"time_elapsed":570830,"internal_chunk_id":"0-0.12-0"},{"nsides":9,"question":"What is the inverse of 2 under <img src=./images/nonagon_symbol.png style=width:14px;height:14px>?","response_type":"free","response_choices":[],"correct_response":"7","response":"9","explain":false,"explanation":"","explanation_history":[],"orientation_history":[[0],[1.4525388176558172,1.3962634015954636]],"response_history":["0","0","9"],"rt":53468,"trial_type":"polygon-arrow-question","trial_index":0,"trial_index_global":58,"time_elapsed":624299,"internal_chunk_id":"0-0.12-0"},{"nsides":9,"question":"What is the inverse of 0 under <img src=./images/nonagon_symbol.png style=width:14px;height:14px>?","response_type":"free","response_choices":[],"correct_response":"0","response":"0","explain":false,"explanation":"","explanation_history":[],"orientation_history":[[0]],"response_history":["0"],"rt":3937,"trial_type":"polygon-arrow-question","trial_index":0,"trial_index_global":59,"time_elapsed":628237,"internal_chunk_id":"0-0.12-0"},{"nsides":9,"question":"What is the inverse of 3 under <img src=./images/nonagon_symbol.png style=width:14px;height:14px>? Please explain in words how you got your answer.","response_type":"free","response_choices":[],"correct_response":"6","response":"6","explain":true,"explanation":"9-3=6","explanation_history":["9-3=6.","9-3=6"],"orientation_history":[[0],[2.095592098445004,2.0943951023931953]],"response_history":["5","6"],"rt":95321,"trial_type":"polygon-arrow-question","trial_index":0,"trial_index_global":60,"time_elapsed":723559,"internal_chunk_id":"0-0.12-0"},{"nsides":9,"question":"Is 2 a generator under <img src=./images/nonagon_symbol.png style=width:14px;height:14px>? Please explain in words how you got your answer.","response_type":"multi","response_choices":["Yes","No"],"correct_response":"Yes","response":"No","explain":true,"explanation":"2 will only make even numbers not odd ones.","explanation_history":["2 will onl y make e ven or","2 will only make even o","2 will only make even ","2 will only make even numbers not odd ones."],"orientation_history":[[0]],"response_history":["No"],"rt":35687,"trial_type":"polygon-arrow-question","trial_index":0,"trial_index_global":61,"time_elapsed":759247,"internal_chunk_id":"0-0.12-0"},{"nsides":9,"question":"Is 3 a generator under <img src=./images/nonagon_symbol.png style=width:14px;height:14px>? Please explain in words how you got your answer.","response_type":"multi","response_choices":["Yes","No"],"correct_response":"No","response":"Yes","explain":true,"explanation":"a 3 will create both even and odd numbers.","explanation_history":["1 3 ","a 3 will create both even and odd numbers."],"orientation_history":[[0]],"response_history":["Yes"],"rt":46559,"trial_type":"polygon-arrow-question","trial_index":0,"trial_index_global":62,"time_elapsed":805807,"internal_chunk_id":"0-0.12-0"},{"nsides":9,"question":"Is 5 a generator under <img src=./images/n onagon_s ymbol.png style=width:14px;height:14px>? Please explain in words how you got your answer.","response_type":"multi","response_choices":["Yes","No"],"correct_response":"Yes","response":"No","explain":true,"explanation":"5 is too large to create all the numbers.","explanation_history":["too large ","5too large ","5 too large ","5 itoo large ","5 i too large ","5 itoo large ","5 is too large  ","5 is too large to create both ","5 is too large to create both","5 is too large to create bot","5 is too large to create bo","5 is too large to create b","5 is too large to create l","5 is too large to create all the numbers."],"orientation_history":[[0]],"response_history":["No"],"rt":32448,"trial_type":"polygon-arrow-question","trial_index":0,"trial_index_global":63,"time_elapsed":838256,"internal_chunk_id":"0-0.12-0"},{"nsides":9,"question":"Is 6 a generator under <img src=./images/nonagon_symbol.png style=width:14px;height:14px>? Please explain in words how you got your  answer. ","response_type":"multi","response_choices":["Yes","No"],"correct_response":"No","response":"No","explain":true,"explanation":"too large, will only create even numbers.","explanation_history":["too large, will only crea","too large, will only cre","too large, will only cr","too large, will only c","too large, will only create even numbers."],"orientation_history":[[0]],"response_history":["No"],"rt":17468,"trial_type":"polygon-arrow-question","trial_index":0,"trial_index_global":64,"time_elapsed":855726,"internal_chunk_id":"0-0.12-0"},{"nsides":"n","instructions":"Now we'd like to ask you some questions about <img src=./images/ngon_symbol.png style=width:14px;height:14px>, where n could be any positive counting number. For example, n could be 3, and the polygon a triangle, or n could be any other counting number you can think of. If you need to write the operation, you can use (n), and your answers can include n to stand in for the arbitrary value if necessary.  (You can  use the polygon at the right to think, but it doesn't necessarily correspond to the real polygon, which is why we've left most of it dashed.)","orientation_history":[0],"rt":17089,"trial_type":"polygon-arrow-instructions","trial_index":0,"trial_index_global":65,"time_elapsed":872817,"internal_chunk_id":"0-0"},{"nsides":"n","question":"What is the formula for the inverse of 1 under <img src=./images/ngon_symbol.png style=width:14px;height:14px>?","response_type":"free","response_choices":[],"correct_response":"n-1","response":"I don't know.","explain":false,"explanation":"","explanation_history":[],"orientation_history":[[0]],"response_history":["n*1","n*","I don't know.","I don't know. inverse of 1 = n","I don't know. inverse","I don't know. i","I don't know. n-1","I don't know. ","I don't know."],"rt":166840,"trial_type":"polygon-arrow-question","trial_index":0,"trial_index_global":66,"time_elapsed":1039658,"internal_chunk_id":"0-0.14-0"},{"nsides":"n","question":" What is  the formula for the inverse of an element x under <img src=./images/ngon_symbol.png style=width:14px;height:14px>? Please explain in words why your answer is correct.","response_type":"free","response_choices":[],"correct_response":"n-x","response":"If I had to guess I would say the inverse of x is n-x.","explain":true,"explanation":"If I had to guess I would say the inverse of x is n-x. ","explanation_history":["If I had to guess ","If I had to guess I would sat t","If I had to guess I would sat ","If I had to guess I would sat","If I had to guess I would say the inverse is..","If I had to guess I would say the inverse is.","If I had to guess I would say the inverse is","If I had to guess I would say the inverse i","If I had to guess I would say the inverse of x is n-x. "],"orientation_history":[[0]],"response_history":["I don't know. ","I don't know.","If I had to guess I would say the inverse of x is n-x."],"rt":138527,"trial_type":"polygon-arrow-question","trial_index":0,"trial_index_global":67,"time_elapsed":1178186,"internal_chunk_id":"0-0.14-0"},{"nsides":"n","question":"Is there a pattern to which elements are generators? How can you know if an element x is a generator under <img src=./images/ngon_symbol.png style=width:14px;height:14px> without seeing whether it can make all the elements?.","response_type":"free","response_choices":[],"correct_response":"","response":"1s. Not sure about other numbers.","explain":false,"explanation":"","explanation_history":[],"orientation_history":[[0]],"response_history":["0s and 1s. ","1s. Noe","1s. Not srue a","1s. Not srue ","1s. Not srue","1s. Not sru","1s. Not sr","1s. Not sure about other numbers."],"rt":57449,"trial_type":"polygon-arrow-question","trial_index":0,"trial_index_global":68,"time_elapsed":1235636,"internal_chunk_id":"0-0.14-0"},{"nsides":"n","question":"True or false: If x is an odd number, it must be a generator under <img src=./images/ngon_symbol.png style=width:14px ;height: 14px>.","response_type":"multi","response_choices":["True","False"],"correct_response":"False","response":"False","explain":false,"explanation":"","explanation_history":[],"orientation_history":[[0]],"response_history":["False"],"rt":8039,"trial_type":"polygon-arrow-question","trial_index":0,"trial_index_global":69,"time_elapsed":1243677,"internal_chunk_id":"0-0.14-0"},{"nsides":"n","question":"True or false: If x is an even number, it must not be a generator under <img src=./images/ngon_symbol.png style=width:14px;height:14px>.","response_type":"multi","response_choices":["True","False"],"correct_response":"False","response":"False","explain":false,"explanation":"","explanation_history":[],"orientation_history":[[0]],"response_history":["False"],"rt":3459,"trial_type":"polygon-arrow-question","trial_index":0,"trial_index_global":70,"time_elapsed":1247137,"internal_chunk_id":"0-0.14-0"},{"nsides":"n","question":"True or false: If x is not a generator under <img src =./ima ges/ngon_symbol.png style=width:14px;height:14px>, x must be a divisor of n, that is, x must divide n evenly, with no remainder.","response_type":"multi","response_choices":["True","False"],"correct_response":"False","response":"False","explain":false,"explanation":"","explanation_history":[],"orientation_history":[[0]],"response_history":["False"],"rt":31048,"trial_type":"polygon-arrow-question","trial_index":0,"trial_index_global":71,"time_elapsed":1278186,"internal_chunk_id":"0-0.14-0"},{"nsides":"n","question":"True or false: If x is not a generator under <img src=./images/ngon_symbol.png style=width:14px;height:14px>, x must be a multiple of a divisor of n. Please explain in words how you got your answer.","response_type":"multi","response_choices":["True","False"],"correct_response":"True","response":"False","explain":true,"explanation":"That doesn't make sense to me. Why would it have to be a multiple of a divisor of N?","explanation_history":["I","D","T hat does n't make sense to me. Say 6 is the ","That doesn't make sense to me. Say 6 ","That doesn't make sense to me. Say 6","That doesn't make sense to me. Say N=1-","That doesn't make sense to me. Say N=10, 5 isn't a generator, 5 is not a multiple of 2.","That doesn't make sense to me. I can't explain it but I don't read ","That doesn't make sense to me. ","That doesn't make sense to me. ","That doesn't make sense to me. I'm not ","That doesn't make sense to me. I'm","That doesn't make sense to me. ","That doesn't make sense to me. Why would it have to be a multiple of a divir","That doesn't make sense to me. Why would it have to be a multiple of a divisor of N? ","That doesn't make sense to me. Why would it have to be a multiple of a divisor of N?"],"orientation_history":[[0]],"response_history":["False","True","False"],"rt":310523,"trial_type":"polygon-arrow-question","trial_index":0,"trial_index_global":72,"time_elapsed":1588711,"internal_chunk_id":"0-0.14-0"},{"nsides":"n","question":" If an element x is a generator under <img src=./images/ngon_symbol.png style=width:14px;height:14px>, is its inverse a generator under <img src=./images/ngon_symbol.png style=width:14px;height:14px> always, sometimes, or never?","response_type":"multi","response_choices":["Always","Sometimes","Never"],"correct_response":"Always","response":"Never","explain":false,"explanation":"","explanation_history":[],"orientation_history":[[0]],"response_history":["Never"],"rt":17519,"trial_type":"polygon-arrow-question","trial_index":0,"trial_index_global":73,"time_elapsed":1606232,"internal_chunk_id":"0-0.14-0"},{"nsides":"n","question":"If an element x is a generator under <img src=./images/ngon_symbol.png style=width:14px;height:14px>, is x <img src=./images/ngon_symbol.png style=width:14px;height:14px> x a generator under <img src=./images/ngon_symbol.png style=width:14px;height:14px> always, sometimes, or never? Please explain in words how yo u got yo ur answer.","response_type":"multi","response_choices":["Always","Sometimes","Never"],"correct_response":"Sometimes","response":"Sometimes","explain":true,"explanation":"It depends on whether x is 1 or something else and whether N is even or odd.","explanation_history":["1*1=1","if N=","Id ","Id","It depends on i","It depends on whte","It depends on wht","It depends on wht","It depends on whether N and X are even/","It depends on whether N and X are even or dd. If n=7 x=1 yes, if N","It depends on whether N and X are even or dd. If n=7 x=1 yes, if n=10","It depends on whether N and X are even or dd. If n=7 x=1 yes, if n=11 x=3 no.","It depends on whether N and X are even or dd. If n= x=1 yes, if n=11 x=3 no.","It depends on whether N and X are even or dd. If n=1 x=1 yes, if n=11 x=3 no.","It depends on whether N and X are even or dd. If n=11 x=1 yes, if n=11 x=3 no.","It depends on whether x is 1 or something else and whether the ","It depends on whether x is 1 or something  else and  whether the","It depends on whether x is 1 or something else and whether th","It depends on whether x is 1 or something else and whether t","It depends on whether x is 1 or something else and whether N is ever n","It depends on whether x is 1 or something else and whether N is ever ","It depends on whether x is 1 or something else and whether N is ever","It depends on whether x is 1 or something else and whether N is even or odd."],"orientation_history":[[0]],"response_history":["Sometimes","Never","Always","Sometimes"],"rt":251319,"trial_type":"polygon-arrow-question","trial_index":0,"trial_index_global":74,"time_elapsed":1857551,"internal_chunk_id":"0-0.14-0"},{"nsides":"n","question":"If an element x is not a generator under <img src=./images/ngon_symbol.png style=width:14px;height:14px>, is x <img src=./images/ngon_symbol.png style=width:14px;height:14px> x a generator under <img src=./images/ngon_symbol.png style=width:14px;height:14px> always,  sometime s, or never?","response_type":"multi","response_choices":["Always","Sometimes","Never"],"correct_response":"Never","response":"Never","explain":false,"explanation":"","explanation_history":[],"orientation_history":[[0]],"response_history":["Never"],"rt":27316,"trial_type":"polygon-arrow-question","trial_index":0,"trial_index_global":75,"time_elapsed":1884870,"internal_chunk_id":"0-0.14-0"},{"instructions":"We would like to ask you some questions about your background. Please press Continue to continue.","rt":1979,"trial_type":"instructions","trial_index":0,"trial_index_global":76,"time_elapsed":1886850,"internal_chunk_id":"0-0.15-0"},{"question":"What is your age?","response_type":"free","response_choices":[],"correct_response":"","response":"29","explain":false,"explanation":"","explanation_history":[],"response_history":["20","29"],"rt":4537,"trial_type":"question","trial_index":0,"trial_index_global":77,"time_elapsed":1891389,"internal_chunk_id":"0-0.15-0"},{"question":"What  is your level of education?","response_type":"multi","response_choices":["Did not graduate high school","High school diploma","Some college, no degree","Associates Degree","Bachelors Degree","Some graduate school, no degree","Masters Degree","Doctorate, M.D., etc."],"correct_response":"","response":"Some college, no degree","explain":false,"explanation":"","explanation_history":[],"response_history":["Some college, no degree"],"rt":3600,"trial_type":"question","trial_index":0,"trial_index_global":78,"time_elapsed":1894992,"internal_chunk_id":"0-0.15-0"},{"question":"What is the most advanced math class you've completed? If you have multiple classes and you're not sure which one is most advanced, please list them.","response_type":"free","response_choices":[],"correct_response":"","response":"Algebra/Geometry 12/3 years ago.","explain":false,"explanation":"","explanation_history":[],"response_history":["Algebra/Geometry 10 years a","Algebra/Geometry 12 years ago.","Algebra/Ge ometry 1 2/ years ago.","Algebra/Geometry 12/3 years ago."],"rt":39048,"trial_type":"question","trial_index":0,"trial_index_global":79,"time_elapsed":1934041,"internal_chunk_id":"0-0.15-0"},{"question":"How familiar are you with the concept of modular arithmetic?","response_type":"multi","response_choices":["1 - never heard of it","2 - heard of it but didn't know what it was","3 - seen it used or explained","4 - used it but not often or recently","5 - used it, remember and understand it"],"correct_response":"1","response":"1 - never heard of it","explain":false,"explanation":"","explanation_history":[],"response_history":["1 - never heard of it"],"rt":7418,"trial_type":"question","trial_index":0,"trial_index_global":80,"time_elapsed":1941460,"internal_chunk_id":"0-0.15-0"},{"question":"How familiar are you with the concept of a mathematical group?","response_type":"multi","response_choices":["1 - never heard of it","2 - heard of it but didn't know what it was","3 - seen it used or ex plained","4 - used it but not often or recently","5 - used it, remember and understand it"],"correct_response":"1","response":"1 - never heard of it","explain":false,"explanation":"","explanation_history":[],"response_history":["1 - never heard of it"],"rt":3719,"trial_type":"question","trial_index":0,"trial_index_global":81,"time_elapsed":1945180,"internal_chunk_id":"0-0.15-0"},{"question":"Do you feel you learned something from this HIT?","response_type":"multi","response_choices":["1 - not at all","2 - somewhat","3 - definitely"],"correct_response":"1","response":"2 - somewhat","explain":false,"explanation":"","explanation_history":[],"response_history":["2 - somewhat"],"rt":5399,"trial_type":"question","trial_index":0,"trial_index_global":82,"time_elapsed":1950580,"internal_chunk_id":"0-0.15-0"},{"question":"Do you feel you understood the concepts in this HIT?","response_type":"multi","response_choices":["1 - not at all","2 - somewhat","3 - definitely"],"correct_response":"1","response":"2 - somewhat","explain":false,"explanation":"","explanation_history":[],"response_history":["2 - somewhat"],"rt":3702,"trial_type":"question","trial_index":0,"trial_index_global":83,"time_elapsed":1954283,"internal_chunk_id":"0-0.15-0"},{"question":"Did you enjoy this HIT?","response_type":"multi","response_choices":["1 - not at all","2 - somewhat","3 - definitely"],"correct_response":"1","response":"1 - not at all","explain":false,"explanation":"","explanation_history":[],"response_history":["1 - not at all"],"rt":2327,"trial_type":"question","trial_index":0,"trial_index_global":84,"time_elapsed":1956611,"internal_chunk_id":"0-0.15-0"},{"question":"What is your gender?","response_type":"multi","response_choices":["Female","Male","Other"],"correct_response":"","response":"Male","explain":false,"explanation":"","explanation_history":[],"response_history":["Male"],"rt":2729,"trial_type":"question","trial_index":0,"trial_index_global":85,"time_elapsed":1959341,"internal_chunk_id":"0- 0.15-0"},{"question":"What is/are your native language(s)? (The languages spoken in your household when you were a child.)","response_type":"free","response_choices":[],"correct_response":"","response":"English.","explain":false,"explanation":"","explanation_history":[],"response_history":["English."],"rt":5117,"trial_type":"question","trial_index":0,"trial_index_global":86,"time_elapsed":1964460,"internal_chunk_id":"0-0.15-0"},{"question":"Did you use pen and paper at any point on this HIT?","response_type":"free","response_choices":[],"correct_response":"","response":"No.","explain":false,"explanation":"","explanation_history":[],"response_history":["No."],"rt":3364,"trial_type":"question","trial_index":0,"trial_index_global":87,"time_elapsed":1967824,"internal_chunk_id":"0-0.15-0"},{"question":"Do you have any comments on this HIT?","response_type":"free","response_choices":[],"correct_response":"","response":"You know how to make a guy feel real dumb. The option to revie w the ma terial while answering questions would've been nice.","explain":false,"explanation":"","explanation_history":[],"response_history":["I fee","You really know how to make a guy feel real dumb.","You really know how to make a guy feel real( dumb.","You really know how to make a guy feel real(s dumb.","You really know how to make a guy feel real(si dumb.","You really know how to make a guy feel real(sic dumb.","You really know how to make a guy feel real(sic) dumb. It would've been nice to be b","You really know how to make a guy feel real(sic) dumb. It would've been nice to be able to go back and go ovr","You really know how to make a guy feel real(sic) dumb. It would've been nice to be able to go back and go over someo ","You really know how to make a guy feel real(sic) dumb. It would've been nice to be able to go back and go over someo","You really know how to make a guy feel real(sic) dumb. It would've been nice to be able to go back and go over some of the material while an swering  questions.","You really know how to make a guy feel real(sic) dumb. TIt would've been nice to be able to go back and go over some of the material while answering questions.","You really know how to make a guy feel real(sic) dumb. ThIt would've been nice to be able to go back and go over some of the material while answering questions.","You really know how to make a guy feel real(sic) dumb. The It would've been nice to be able to go back and go over some of the material while answering questions.","You really know how to make a guy feel real(sic) dumb. The oIt would've been nice to be able to go back and go over some of the material while answering questions.","You really know how to make a guy feel real(sic) dumb. The opIt would've been nice to be able to go back and go over some of the material while answering questions.","You really know how to make a guy feel real(sic) dumb. The optIt would've been nice to be able to go back and go over some of the material while answerin g questi ons.","You really know how to make a guy feel real(sic) dumb. The optiIt would've been nice to be able to go back and go over some of the material while answering questions.","You really know how to make a guy feel real(sic) dumb. The optionIt would've been nice to be able to go back and go over some of the material while answering questions.","You really know how to make a guy feel real(sic) dumb. The option It would've been nice to be able to go back and go over some of the material while answering questions.","You really know how to make a guy feel real(sic) dumb. The option tIt would've been nice to be able to go back and go over some of the material while answering questions.","You really know how to make a guy feel real(sic) dumb. The option toIt would've been nice to be able to go back and go over some of the material while answering questions.","You really know how to make a guy feel real(sic) dumb. The option to rIt would've been nice to be able to go back and go ov er some  of the material while answering questions.","You really know how to make a guy feel real(sic) dumb. The option to reIt would've been nice to be able to go back and go over some of the material while answering questions.","You really know how to make a guy feel real(sic) dumb. The option to reviIt would've been nice to be able to go back and go over some of the material while answering questions.","You really know how to make a guy feel real(sic) dumb. The option to revieIt would've been nice to be able to go back and go over some of the material while answering questions.","You really know how to make a guy feel real(sic) dumb. The option to reviewIt would've been nice to be able to go back and go over some of the material while answering questions.","You really know how to make a guy feel real(sic) dumb. The option to review tIt would've been nice to be able to go back and go over some of the material while answering questions.","You really know how to make a guy feel real( sic) dum b. The option to review thIt would've been nice to be able to go back and go over some of the material while answering questions.","You really know how to make a guy feel real(sic) dumb. The option to review theIt would've been nice to be able to go back and go over some of the material while answering questions.","You really know how to make a guy feel real(sic) dumb. The option to review the It would've been nice to be able to go back and go over some of the material while answering questions.","You really know how to make a guy feel real(sic) dumb. The option to review the maIt would've been nice to be able to go back and go over some of the material while answering questions.","You really know how to make a guy feel real(sic) dumb. The option to review the matIt would've been nice to be able to go back and go over some of the material while answering questions.","You really know how to make a guy feel real(sic) dumb. The option to review the materIt would've been nice to  be able  to go back and go over some of the material while answering questions.","You really know how to make a guy feel real(sic) dumb. The option to review the materiIt would've been nice to be able to go back and go over some of the material while answering questions.","You really know how to make a guy feel real(sic) dumb. The option to review the materiaIt would've been nice to be able to go back and go over some of the material while answering questions.","You really know how to make a guy feel real(sic) dumb. The option to review the materialIt would've been nice to be able to go back and go over some of the material while answering questions.","You really know how to make a guy feel real(sic) dumb. The option to review the material It would've been nice to be able to go back and go over some of the material while answering questions.","You really know how to make a guy feel real(sic) dumb. The option to review the material while answering questions.","You really know how to  make a g uy feel real(sic) dumb. The option to review the material while answering questions","You really know how to make a guy feel real(sic) dumb. The option to review the material while answering questions would ","You really know how to make a guy feel real(sic) dumb. The option to review the material while answering questions would've been nice.","You really know how to make a guy feel real(sc) dumb. The option to review the material while answering questions would've been nice.","You really know how to make a guy feel real(c) dumb. The option to review the material while answering questions would've been nice.","You really know how to make a guy feel realc) dumb. The option to review the material while answering questions would've been nice.","You really know how to make a guy feel real) dumb. The option to review the material while answering questions would've been nice.","You really know how to make a guy feel real dumb. The option to review the material while answering ques tions wo uld've been nice.","You know how to make a guy feel real dumb. The option to review the material while answering questions would've been nice."],"rt":113887,"trial_type":"question","trial_index":0,"trial_index_global":88,"time_elapsed":2081712,"internal_chunk_id":"0-0.15-0"}]