[{"nsides":6,"instructions":"Let's define a new operation <img src=./images/hexagon_symbol.png style=width:14px;height:14px>. This operation will give us a way of combining two of the numbers 0, 1, 2, 3, 4, 5 to get another one of them back. To perform <img src=./images/hexagon_symbol.png style=width:14px;height:14px>, you can either use a method based on the hexagon at right, or a method based on arithmetic.<br /><b>Hexagon method:</b> you can use the interactive diagram on the right, or perform the operation in your mind. Point the arrow at the first number on the hexagon by clicking, then click (or click and drag) to move the arrow the second number of points clockwise around the hexagon. The number the arrow arrives at is your result. (The operation is called <img src=./images/hexagon_symbol.png style=width:14px;height:14px> because it uses the hexagon, which has 6 sides.) <br ><b>Arithmetic method:</b> you start with the first number, and then add  the sec ond one to it. If the sum is smaller than 6, that's your result. If the sum is 6 or bigger, you subtract 6 to get your result. <br /><br />For example, 3 <img src=./images/hexagon_symbol.png style=width:14px;height:14px> 5 = 2, because 5 steps clockwise from 3 on the hexagon brings us to 2. Equivalently, 3 + 5 = 8, and 8 is bigger than 6, so we subtract 6, and 8 - 6 = 2. So 3 <img src=./images/hexagon_symbol.png style=width:14px;height:14px> 5 = 2.<br /><br />Similarly, 1 <img src=./images/hexagon_symbol.png style=width:14px;height:14px> 4 = 5, because 1 + 4 = 5, and 5 is less than 6 so we leave it alone. Equivalently, 4 steps clockwise from 1 on the hexagon brings us to 5. <br /><br />Click Continue when you're ready to move on.","orientation_history":[0,[1.1129626057759323,1.1129626057759323,1.1129626057759323,1.1129626057759323,1.1129626057759323,1.1129626057759323,1.1129626057759323,1.1129626057759323,1.0471975511965976],[4.2232691748731614,4.2232691748731614,4.2232691748731614,4.2232691748731614,4.2232691748731614,4.2232691748731614,4.2232691748731614,4.1887902047863905],[2.0882840677690053,2.0882840677690053,2.0882840677690053,2.0882840677690053,2.0882840677690053,2.0882840677690053,2.0882840677690053,2.0943951023931953]],"rt":98547,"trial_type":"polygon-arrow-instructions","trial_index":0,"trial_index_global":1,"time_elapsed":142878,"internal_chunk_id":"0-0"},{"nsides":6,"instructions":"Do you see how the different ways of performing <img src=./images/hexagon_symbol.png style=width:14px;height:14px> give the same result? By labeling the points of the hexagon with the numbers from 0 to 5, we ensure that when we combine two numbers using the hexagon, we only produce numbers between 0 and 5. When we use the arithmetic strategy, adding the second number to the first mimics counting around the hexagon, and subtracting 6 each time we get above 5 makes sure the results correspond to the numbers on the points of the h exagon.  <br /><br />Click Continue when you're ready to move on.","orientation_history":[0],"rt":56614,"trial_type":"polygon-arrow-instructions","trial_index":0,"trial_index_global":2,"time_elapsed":199498,"internal_chunk_id":"0-0"},{"nsides":6,"question":"Now try one on your own! What is 4 <img src=./images/hexagon_symbol.png style=width:14px;height:14px> 5? <br /><br /> (Remember, to perform <img src=./images/hexagon_symbol.png style=width:14px;height:14px>, you can either use a method based on the hexagon at right, or a method based on arithmetic.<br /><br /><b>Hexagon method:</b> you can use the interactive diagram on the right, or perform the operation in your mind. Point the arrow at the first number, then move the arrow the second number of points clockwise around the hexagon. The number the arrow arrives at is your result. <br /><br /><b>Arithmetic method:</b> you start with the first number, and then add the second one to it. If the sum is smaller than 6 , that's  your result. If the sum is 6 or bigger, you subtract 6 to get your result.)","response_type":"free","response_choices":[],"correct_response":"3","response":"3","explain":false,"explanation":"","explanation_history":[],"orientation_history":[[0],[3.8135558251800252,3.8135558251800252,3.8135558251800252,3.8135558251800252,3.8135558251800252,3.8135558251800252,3.8135558251800252,4.1887902047863905],[4.242961088940222,4.242961088940222,4.242961088940222,4.242961088940222,4.242961088940222,4.242961088940222,4.242961088940222,4.242961088940222,4.242961088940222,4.2487413713838835,4.254391028787468,4.254391028787468,4.277305029222644,4.277305029222644,4.28894957422497,4.312607882141894,4.321781936687003,4.350301572690961,4.345215146566471,4.367386803177585,4.404991507261869,4.44059682170999,4.508371000792142,4.567947402010046,4.601731759210795,4.655845543439872,4.71238898038469,4.7711448031004124,4.829497724951554,4.887061179392929,4.970641200195728,5.039487077390483,5.084097930503274,5.101345860563697,5.136583388288456,5.143789706950242,5.1507255402426475,5.1507255402426475,5.163458636373213,5.163458636373213,5.163458636373213,5.163458636373213,5.163458636373213,5.163458636373213,5.163458636373213,5.163458636373213,5.163458636373213,5.163458636373213,5.163458636373213,5.163458636373213,5.163458636373213,5.163458636373213,5.163458636373213,5.163458636373213,5.163458636373213,5.182365618801697,5.227937987843669,5.275705241876658,5.288147297907925,5.288147297907925,5.288147297907925,5.288147297907925,5.288147297907925,5.288147297907925,5.355890089177974,5.486293397067108,5.567441717510706,5.579954666143838,5.626483645060151,5.626483645060151,5.626483645060151,5.626483645060151,5.626483645060151,5.626483645060151,5.626483645060151,5.626483645060151,5.626483645060151,5.626483645060151,5.6808979610446215,5.811407795998836,5.961434752782944,6.038206644052722,6.247486194500262,0.05258306161094173,0.05258306161094173,0.05258306161094173,0.05258306161094173,0.05258306161094173,0.05258306161094173,0.05258306161094173,0.05258306161094173,0.05258306161094173,0.05258306161094173,0.05258306161094173,0.05258306161094173,0.05258306161094173,0.05258306161094173,0.05258306161094173,0.05258306161094173,0.05258306161094173,0.05258306161094173,0.05258306161094173,0.05258306161094173,0.05258306161094173,0.05258306161094173,0.05258306161094173,0.05258306161094173,0.05258306161094173,0.05258306161094173,0.05258306161094173,0.05258306161094173,0.05258306161094173,0.05258306161094173,0.05258306161094173,0.05258306161094173,0.1221951706913551,0.28309578529949553,0.386875717731028,0.4928363969936007,0.60554466360497,0.724250000748147,0.7349359893805923,0.7551044034786731,0.7853981633974483,0.7853981633974483,0.7853981633974483,0.7951065962315571,0.8145161449044871,0.8419416003422656,0.9861950706745702,0.9964914966201948,1.0303768265243125,1.0366137518895122,1.0531472174181222,1.0963964440029892,1.1018296190225747,1.1177303334151663,1.1177303334151663,1.1177303334151663,1.1177303334151663,1.1177303334151663,1.1177303334151663,1.1228542326252298,1.1278711396865744,1.1490090669240796,1.1490090669240796,1.1490090669240796,1.1490090669240796,1.1490090669240796,1.1490090669240796,1.1490090669240796,1.1490090669240796,1.1490090669240796,1.1490090669240796,1.1490090669240796,1.1490090669240796,1.1490090669240796,1.1490090669240796,1.1490090669240796,1.1597317794050321,1.2106031823770664,1.2732346020570906,1.3449846452515413,1.4308716562207788,1.5120405040791738,1.5707963267948966,1.6162196062164735,1.6464094700317264,1.6764619088947523,1.718956347526728,1.7335237014352776,1.8052120025187073,1.8471236017699617,1.8703283158648196,1.8794471938717616,1.8925468811915387,1.9311542973196896,1.9809236673363875,2.0050406475916978,2.0169018757383004,2.0461393089613917,2.0576955586061656,2.097942270381306,2.1156602422464403,2.1444629949630576,2.155240226504248,2.155240226504248,2.1658659505004376,2.1658659505004376,2.1658659505004376,2.1939956567289625,2.2494588175432093,2.2591551042103455,2.295399934317556,2.321725389192837,2.321725389192837,2.3305590816706676,2.3305590816706676,2.338954818997815,2.338954818997815,2.338954818997815,2.338954818997815,2.338954818997815,2.338954818997815,2.338954818997815,2.338954818997815,2.338954818997815,2.338954818997815,2.4301335278502854,2.450255724820331,2.4817442273008705,2.8152338368830305,2.8291010938552743,2.843093722003614,2.889496672921719,2.921343930199104,2.964367268640074,3.026165993222868,3.141592653589793,3.18211100606814,3.1955941539657617,3.2224967527450237,3.249282524422614,3.2626198733989984,3.2626198733989984,3.2626198733989984,3.2626198733989984,3.2626198733989984,3.2626198733989984,3.2626198733989984,3.2626198733989984,3.2626198733989984,3.289160724903788,3.4381384626594937,3.467562592229439,3.5758369743865943,3.864011154554297,3.9269908169872414,3.9888586628516216,4.049185987678596,4.107609427571509,4.124386376837123,4.141051500551063,4.163839577934162,4.174014467038459,4.196158309772942,4.212108552159838,4.212108552159838,4.212108552159838,4.212108552159838,4.212108552159838,4.212108552159838,4.212108552159838,4.212108552159838,4.212108552159838,4.212108552159838,4.212108552159838,4.212108552159838,4.212108552159838,4.212108552159838,4.212108552159838,4.212108552159838,4.212108552159838,4.212108552159838,4.212108552159838,4.212108552159838,4.212108552159838,4.212108552159838,4.212108552159838,4.212108552159838,4.212108552159838,4.212108552159838,4.212108552159838,4.212108552159838,4.212108552159838,4.212108552159838,4.212108552159838,4.212108552159838,4.212108552159838,4.212108552159838,4.212108552159838,4.212108552159838,4.212108552159838,4.212108552159838,4.212108552159838,4.212108552159838,4.212108552159838,4.212108552159838,4.212108552159838,4.212108552159838,4.212108552159838,4.212108552159838,4.212108552159838,4.212108552159838,4.212108552159838,4.212108552159838,4.212108552159838,4.212108552159838,4.212108552159838,4.212108552159838,4.212108552159838,4.212108552159838,4.212108552159838,4.212108552159838,4.212108552159838,4.212108552159838,4.212108552159838,4.212108552159838,4.212108552159838,4.212108552159838,4.212108552159838,4.2382705498791875,4.347862977977755,4.418519645352222,4.522400692465974,4.648374002550346,4.789160871654468,4.90978454023457,4.969097310818075,5.01527384875966,5.026620879469028,5.1017057022178305,5.123453527774554,5.16545497376442,5.196866909421713,5.212669408609542,5.23878134461111,5.248824437989421,5.2587490048336685,5.2587490048336685,5.2587490048336685,5.2587490048336685,5.2587490048336685,5.2587490048336685,5.2587490048336685,5.2587490048336685,5.2587490048336685,5.2587490048336685,5.2587490048336685,5.2587490048336685,5.2587490048336685,5.2587490048336685,5.2587490048336685,5.2587490048336685,5.2587490048336685,5.2587490048336685,5.2587490048336685,5.2587490048336685,5.2587490048336685,5.2587490048336685,5.2587490048336685,5.2587490048336685,5.2587490048336685,5.2587490048336685,5.2587490048336685,5.2587490048336685,5.2587490048336685,5.2587490048336685,5.2587490048336685,5.2587490048336685,5.2587490048336685,5.2587490048336685,5.2587490048336685,5.2587490048336685,5.2587490048336685,5.2587490048336685,5.2587490048336685,5.2587490048336685,5.2587490048336685,5.2587490048336685,5.2587490048336685,5.2587490048336685,5.2587490048336685,5.2587490048336685,5.2587490048336685,5.2587490048336685,5.2587490048336685,5.2587490048336685,5.2587490048336685,5.2587490048336685,5.2587490048336685,5.2587490048336685,5.2587490048336685,5.2587490048336685,5.2587490048336685,5.2587490048336685,5.2587490048336685,5.2587490048336685,5.2587490048336685,5.2587490048336685,5.2587490048336685,5.2587490048336685,5.2587490048336685,5.2587490048336685,5.2587490048336685,5.2587490048336685,5.2587490048336685,5.2587490048336685,5.2587490048336685,5.2587490048336685,5.2587490048336685,5.2587490048336685,5.2587490048336685,5.2587490048336685,5.2587490048336685,5.2587490048336685,5.2587490048336685,5.2587490048336685,5.2587490048336685,5.2587490048336685,5.2587490048336685,5.2587490048336685,5.2587490048336685,5.2587490048336685,5.2587490048336685,5.2587490048336685,5.2587490048336685,5.2587490048336685,5.2587490048336685,5.2587490048336685,5.2587490048336685,5.2587490048336685,5.2587490048336685,5.2587490048336685,5.2587490048336685,5.2587490048336685,5.2587490048336685,5.2587490048336685,5.2587490048336685,5.2587490048336685,5.2587490048336685,5.2587490048336685,5.2587490048336685,5.2587490048336685,5.2587490048336685,5.2587490048336685,5.2587490048336685,5.2587490048336685,5.2587490048336685,5.2587490048336685,5.2587490048336685,5.2587490048336685,5.2587490048336685,5.2587490048336685,5.2587490048336685,5.2587490048336685,5.2587490048336685,5.2587490048336685,5.2587490048336685,5.2587490048336685,5.2587490048336685,5.2587490048336685,5.2587490048336685,5.2587490048336685,5.2587490048336685,5.2587490048336685,5.2587490048336685,5.2587490048336685,5.2587490048336685,5.2587490048336685,5.2587490048336685,5.2587490048336685,5.2587490048336685,5.2587490048336685,5.2587490048336685,5.2587490048336685,5.2587490048336685,5.2587490048336685,5.2587490048336685,5.2587490048336685,5.2587490048336685,5.2587490048336685,5.2587490048336685,5.2587490048336685,5.2587490048336685,5.2587490048336685,5.2587490048336685,5.2587490048336685,5.2587490048336685,5.2587490048336685,5.2587490048336685,5.2587490048336685,5.2587490048336685,5.2587490048336685,5.2587490048336685,5.2587490048336685,5.2587490048336685,5.2587490048336685,5.2587490048336685,5.2587490048336685,5.2587490048336685,5.2587490048336685,5.2587490048336685,5.2587490048336685,5.2587490048336685,5.2587490048336685,5.2587490048336685,5.2587490048336685,5.2587490048336685,5.2587490048336685,5.2587490048336685,5.2587490048336685,5.2587490048336685,5.2587490048336685,5.2587490048336685,5.2587490048336685,5.2587490048336685,5.2587490048336685,5.2587490048336685,5.2587490048336685,5.2587490048336685,5.2587490048336685,5.2587490048336685,5.2587490048336685,5.2587490048336685,5.2587490048336685,5.2587490048336685,5.2587490048336685,5.2587490048336685,5.2587490048336685,5.2587490048336685,5.2587490048336685,5.2587490048336685,5.2587490048336685,5.2587490048336685,5.2587490048336685,5.2587490048336685,5.2587490048336685,5.2587490048336685,5.2587490048336685,5.2587490048336685,5.2587490048336685,5.2587490048336685,5.2587490048336685,5.2587490048336685,5.2587490048336685,5.2587490048336685,5.2587490048336685,5.2587490048336685,5.2587490048336685,5.2587490048336685,5.2587490048336685,5.2587490048336685,5.2587490048336685,5.2587490048336685,5.2587490048336685,5.2587490048336685,5.2587490048336685,5.2587490048336685,5.2587490048336685,5.2587490048336685,5.2587490048336685,5.2587490048336685,5.2587490048336685,5.2587490048336685,5.2587490048336685,5.2587490048336685,5.2587490048336685,5.2587490048336685,5.2587490048336685,5.2587490048336685,5.2587490048336685,5.2587490048336685,5.2587490048336685,5.2587490048336685,5.2587490048336685,5.2587490048336685,5.2587490048336685,5.2587490048336685,5.2587490048336685,5.2587490048336685,5.2587490048336685,5.2587490048336685,5.2587490048336685,5.2587490048336685,5.2587490048336685,5.2587490048336685,5.2587490048336685,5.2587490048336685,5.2587490048336685,5.2587490048336685,5.2587490048336685,5.2587490048336685,5.2587490048336685,5.2587490048336685,5.2587490048336685,5.2587490048336685,5.2587490048336685,5.2587490048336685,5.2587490048336685,5.2587490048336685,5.2587490048336685,5.2587490048336685,5.2587490048336685,5.2587490048336685,5.2587490048336685,5.2587490048336685,5.2587490048336685,5.2587490048336685,5.2587490048336685,5.2587490048336685,5.2587490048336685,5.2587490048336685,5.2587490048336685,5.2587490048336685,5.2587490048336685,5.2587490048336685,5.2587490048336685,5.2587490048336685,5.2587490048336685,5.2587490048336685,5.2587490048336685,5.2587490048336685,5.2587490048336685,5.2587490048336685,5.2587490048336685,5.2587490048336685,5.2587490048336685,5.2587490048336685,5.2587490048336685,5.2587490048336685,5.2587490048336685,5.2587490048336685,5.2587490048336685,5.2587490048336685,5.2587490048336685,5.2587490048336685,5.2587490048336685,5.2587490048336685,5.2587490048336685,5.2587490048336685,5.2587490048336685,5.2587490048336685,5.129287050794583,5.0430678689611685,4.942608567661534,4.89079947973573,4.777869005308155,4.679613835980614,4.5981346524232505,4.547240302970063,4.459313328220087,4.4065101089798375,4.363617976800783,4.341497691572028,4.325513262653661,4.318938342455754,4.318938342455754,4.318938342455754,4.318938342455754,4.318938342455754,4.318938342455754,4.2716381326052675,4.241222716071579,4.241222716071579,4.241222716071579,4.241222716071579,4.241222716071579,4.241222716071579,4.241222716071579,4.241222716071579,4.225489748573421,4.201900658467914,4.171969480114106,4.148305259335032,4.148305259335032,4.148305259335032,4.148305259335032,4.148305259335032,4.148305259335032,4.148305259335032,4.148305259335032,4.148305259335032,4.148305259335032,4.148305259335032,4.148305259335032,4.148305259335032,4.148305259335032,4.148305259335032,4.148305259335032,4.148305259335032,4.148305259335032,4.148305259335032,4.148305259335032,4.148305259335032,4.148305259335032,4.148305259335032,4.148305259335032,4.148305259335032,4.148305259335032,4.148305259335032,4.148305259335032,4.148305259335032,4.148305259335032,4.148305259335032,4.148305259335032,4.148305259335032,4.148305259335032,4.148305259335032,4.148305259335032,4.148305259335032,4.148305259335032,4.148305259335032,4.148305259335032,4.148305259335032,4.148305259335032,4.148305259335032,4.148305259335032,4.148305259335032,4.148305259335032,4.148305259335032,4.148305259335032,4.148305259335032,4.148305259335032,4.148305259335032,4.148305259335032,4.148305259335032,4.148305259335032,4.148305259335032,4.148305259335032,4.148305259335032,4.148305259335032,4.148305259335032,4.148305259335032,4.148305259335032,4.148305259335032,4.148305259335032,4.148305259335032,4.148305259335032,4.148305259335032,4.148305259335032,4.148305259335032,4.148305259335032,4.148305259335032,4.148305259335032,4.148305259335032,4.148305259335032,4.148305259335032,4.148305259335032,4.148305259335032,4.148305259335032,4.148305259335032,4.148305259335032,4.148305259335032,4.148305259335032,4.148305259335032,4.148305259335032,4.148305259335032,4.148305259335032,4.148305259335032,4.148305259335032,4.148305259335032,4.148305259335032,4.148305259335032,4.148305259335032,4.148305259335032,4.148305259335032,4.148305259335032,4.148305259335032,4.148305259335032,4.148305259335032,4.148305259335032,4.148305259335032,4.148305259335032,4.148305259335032,4.148305259335032,4.148305259335032,4.148305259335032,4.148305259335032,4.148305259335032,4.148305259335032,4.148305259335032,4.148305259335032,4.148305259335032,4.148305259335032,4.148305259335032,4.148305259335032,4.148305259335032,4.148305259335032,4.148305259335032,4.148305259335032,4.148305259335032,4.148305259335032,4.148305259335032,4.148305259335032,4.148305259335032,4.148305259335032,4.148305259335032,4.148305259335032,4.148305259335032,4.148305259335032,4.148305259335032,4.148305259335032,4.148305259335032,4.148305259335032,4.148305259335032,4.148305259335032,4.148305259335032,4.148305259335032,4.148305259335032,4.148305259335032,4.148305259335032,4.148305259335032,4.148305259335032,4.148305259335032,4.148305259335032,4.148305259335032,4.148305259335032,4.148305259335032,4.148305259335032,4.148305259335032,4.148305259335032,4.148305259335032,4.148305259335032,4.148305259335032,4.148305259335032,4.148305259335032,4.148305259335032,4.148305259335032,4.148305259335032,4.148305259335032,4.148305259335032,4.148305259335032,4.148305259335032,4.148305259335032,4.148305259335032,4.148305259335032,4.148305259335032,4.148305259335032,4.148305259335032,4.148305259335032,4.148305259335032,4.148305259335032,4.148305259335032,4.148305259335032,4.148305259335032,4.148305259335032,4.148305259335032,4.148305259335032,4.148305259335032,4.148305259335032,4.148305259335032,4.148305259335032,4.148305259335032,4.148305259335032,4.148305259335032,4.148305259335032,4.148305259335032,4.148305259335032,4.148305259335032,4.148305259335032,4.148305259335032,4.148305259335032,4.148305259335032,4.148305259335032,4.148305259335032,4.148305259335032,4.148305259335032,4.148305259335032,4.148305259335032,4.148305259335032,4.148305259335032,4.148305259335032,4.148305259335032,4.148305259335032,4.148305259335032,4.148305259335032,4.148305259335032,4.148305259335032,4.148305259335032,4.148305259335032,4.148305259335032,4.148305259335032,4.148305259335032,4.148305259335032,4.148305259335032,4.148305259335032,4.148305259335032,4.148305259335032,4.148305259335032,4.148305259335032,4.148305259335032,4.148305259335032,4.148305259335032,4.148305259335032,4.148305259335032,4.148305259335032,4.148305259335032,4.148305259335032,4.148305259335032,4.148305259335032,4.148305259335032,4.148305259335032,4.148305259335032,4.148305259335032,4.148305259335032,4.148305259335032,4.148305259335032,4.148305259335032,4.148305259335032,4.148305259335032,4.148305259335032,4.148305259335032,4.148305259335032,4.148305259335032,4.148305259335032,4.148305259335032,4.148305259335032,4.148305259335032,4.148305259335032,4.148305259335032,4.148305259335032,4.148305259335032,4.148305259335032,4.148305259335032,4.148305259335032,4.148305259335032,4.148305259335032,4.148305259335032,4.148305259335032,4.148305259335032,4.148305259335032,4.148305259335032,4.148305259335032,4.148305259335032,4.148305259335032,4.148305259335032,4.148305259335032,4.148305259335032,4.148305259335032,4.148305259335032,4.148305259335032,4.148305259335032,4.148305259335032,4.148305259335032,4.148305259335032,4.148305259335032,4.148305259335032,4.148305259335032,4.148305259335032,4.148305259335032,4.148305259335032,4.148305259335032,4.148305259335032,4.148305259335032,4.148305259335032,4.148305259335032,4.148305259335032,4.148305259335032,4.148305259335032,4.148305259335032,4.148305259335032,4.148305259335032,4.148305259335032,4.148305259335032,4.148305259335032,4.148305259335032,4.148305259335032,4.148305259335032,4.148305259335032,4.148305259335032,4.148305259335032,4.148305259335032,4.148305259335032,4.148305259335032,4.148305259335032,4.148305259335032,4.148305259335032,4.148305259335032,4.148305259335032,4.148305259335032,4.148305259335032,4.148305259335032,4.148305259335032,4.148305259335032,4.148305259335032,4.148305259335032,4.148305259335032,4.148305259335032,4.148305259335032,4.148305259335032,4.148305259335032,4.148305259335032,4.148305259335032,4.148305259335032,4.148305259335032,4.148305259335032,4.148305259335032,4.148305259335032,4.148305259335032,4.148305259335032,4.148305259335032,4.148305259335032,4.148305259335032,4.148305259335032,4.148305259335032,4.148305259335032,4.148305259335032,4.148305259335032,4.148305259335032,4.148305259335032,4.148305259335032,4.148305259335032,4.148305259335032,4.148305259335032,4.148305259335032,4.148305259335032,4.148305259335032,4.148305259335032,4.148305259335032,4.148305259335032,4.148305259335032,4.148305259335032,4.148305259335032,4.148305259335032,4.148305259335032,4.148305259335032,4.148305259335032,4.148305259335032,4.148305259335032,4.148305259335032,4.148305259335032,4.148305259335032,4.148305259335032,4.148305259335032,4.148305259335032,4.148305259335032,4.148305259335032,4.148305259335032,4.148305259335032,4.148305259335032,4.148305259335032,4.148305259335032,4.148305259335032,4.148305259335032,4.148305259335032,4.148305259335032,4.148305259335032,4.148305259335032,4.148305259335032,4.148305259335032,4.148305259335032,4.148305259335032,4.148305259335032,4.148305259335032,4.148305259335032,4.148305259335032,4.148305259335032,4.148305259335032,4.148305259335032,4.148305259335032,4.148305259335032,4.148305259335032,4.148305259335032,4.148305259335032,4.148305259335032,4.148305259335032,4.148305259335032,4.148305259335032,4.148305259335032,4.148305259335032,4.148305259335032,4.148305259335032,4.148305259335032,4.148305259335032,4.148305259335032,4.148305259335032,4.148305259335032,4.148305259335032,4.148305259335032,4.148305259335032,4.148305259335032,4.148305259335032,4.148305259335032,4.148305259335032,4.148305259335032,4.148305259335032,4.148305259335032,4.148305259335032,4.148305259335032,4.148305259335032,4.148305259335032,4.148305259335032,4.148305259335032,4.148305259335032,4.148305259335032,4.148305259335032,4.148305259335032,4.148305259335032,4.148305259335032,4.148305259335032,4.148305259335032,4.148305259335032,4.148305259335032,4.148305259335032,4.148305259335032,4.148305259335032,4.148305259335032,4.148305259335032,4.148305259335032,4.148305259335032,4.148305259335032,4.148305259335032,4.148305259335032,4.148305259335032,4.148305259335032,4.148305259335032,4.148305259335032,4.148305259335032,4.148305259335032,4.148305259335032,4.148305259335032,4.148305259335032,4.148305259335032,4.148305259335032,4.148305259335032,4.148305259335032,4.148305259335032,4.148305259335032,4.148305259335032,4.148305259335032,4.148305259335032,4.148305259335032,4.148305259335032,4.148305259335032,4.148305259335032,4.148305259335032,4.148305259335032,4.148305259335032,4.148305259335032,4.148305259335032,4.148305259335032,4.148305259335032,4.148305259335032,4.148305259335032,4.148305259335032,4.148305259335032,4.148305259335032,4.148305259335032,4.148305259335032,4.148305259335032,4.148305259335032,4.148305259335032,4.148305259335032,4.148305259335032,4.148305259335032,4.148305259335032,4.148305259335032,4.148305259335032,4.148305259335032,4.148305259335032,4.148305259335032,4.148305259335032,4.148305259335032,4.148305259335032,4.148305259335032,4.148305259335032,4.148305259335032,4.148305259335032,4.148305259335032,4.148305259335032,4.148305259335032,4.148305259335032,4.148305259335032,4.148305259335032,4.148305259335032,4.148305259335032,4.148305259335032,4.148305259335032,4.148305259335032,4.148305259335032,4.148305259335032,4.148305259335032,4.148305259335032,4.148305259335032,4.148305259335032,4.148305259335032,4.148305259335032,4.148305259335032,4.148305259335032,4.148305259335032,4.148305259335032,4.148305259335032,4.148305259335032,4.148305259335032,4.148305259335032,4.148305259335032,4.148305259335032,4.148305259335032,4.148305259335032,4.148305259335032,4.148305259335032,4.148305259335032,4.148305259335032,4.148305259335032,4.148305259335032,4.148305259335032,4.148305259335032,4.148305259335032,4.148305259335032,4.148305259335032,4.148305259335032,4.148305259335032,4.148305259335032,4.148305259335032,4.148305259335032,4.148305259335032,4.148305259335032,4.148305259335032,4.148305259335032,4.148305259335032,4.148305259335032,4.148305259335032,4.148305259335032,4.148305259335032,4.148305259335032,4.148305259335032,4.148305259335032,4.148305259335032,4.148305259335032,4.148305259335032,4.148305259335032,4.148305259335032,4.148305259335032,4.148305259335032,4.148305259335032,4.148305259335032,4.18680518683308,4.201900658467914,4.225489748573421,4.256615224407984,4.288720058507174,4.328571357096121,4.345215146566471,4.351552197351599,4.3906384259880475,4.41261291028471,4.41261291028471,4.417658875175313,4.42254249047307,4.42254249047307,4.42254249047307,4.42254249047307,4.42254249047307,4.42254249047307,4.42254249047307,4.42254249047307,4.42254249047307,4.42254249047307,4.42254249047307,4.42254249047307,4.42254249047307,4.42254249047307,4.42254249047307,4.42254249047307,4.42254249047307,4.42254249047307,4.42254249047307,4.42254249047307,4.42254249047307,4.42254249047307,4.42254249047307,4.42254249047307,4.42254249047307,4.42254249047307,4.42254249047307,4.42254249047307,4.42254249047307,4.42254249047307,4.42254249047307,4.42254249047307,4.42254249047307,4.42254249047307,4.42254249047307,4.368170297402222,4.2642440053089,4.203659156069136,4.124386376837123,4.124386376837123,4.124386376837123,4.124386376837123,4.124386376837123,4.124386376837123,4.124386376837123,4.124386376837123,4.124386376837123,4.124386376837123,4.124386376837123,4.124386376837123,4.124386376837123,4.124386376837123,4.124386376837123,4.124386376837123,4.124386376837123,4.124386376837123,4.124386376837123,4.124386376837123,4.124386376837123,4.124386376837123,4.124386376837123,4.124386376837123,4.124386376837123,4.124386376837123,4.124386376837123,4.124386376837123,4.124386376837123,4.124386376837123,4.124386376837123,4.124386376837123,4.124386376837123,4.124386376837123,4.124386376837123,4.124386376837123,4.124386376837123,4.124386376837123,4.124386376837123,4.144284247910262,4.2585449788631795,4.423413570392123,4.578067538431721,4.7911729413738335,4.881490206386067,4.9786410295356145,5.0078298175284095,5.040508875399995,5.046334052229584,5.119644828459537,5.119644828459537,5.153139828164112,5.1687374489417985,5.196866909421713,5.210505690385004,5.222361040086103,5.222361040086103,5.227937987843669,5.227937987843669,5.233298761232906,5.24554468589232,5.24554468589232,5.24554468589232,5.24554468589232,5.24554468589232,5.24554468589232,5.24554468589232,5.24554468589232,5.24554468589232,5.24554468589232,5.24554468589232,5.24554468589232,5.24554468589232,5.24554468589232,5.24554468589232,5.24554468589232,5.24554468589232,5.24554468589232,5.24554468589232,5.24554468589232,5.24554468589232,5.24554468589232,5.24554468589232,5.24554468589232,5.24554468589232,5.24554468589232,5.24554468589232,5.24554468589232,5.24554468589232,5.24554468589232,5.24554468589232,5.24554468589232,5.24554468589232,5.24554468589232,5.24554468589232,5.24554468589232,5.24554468589232,5.24554468589232,5.24554468589232,4.263128867772809,4.263128867772809,4.092139494401868,4.02471772434596,3.993558980763065,3.9647087694541057,3.9647087694541057,3.9647087694541057,3.9647087694541057,3.9647087694541057,3.9647087694541057,3.9647087694541057,3.9647087694541057,3.9647087694541057,3.9647087694541057,3.991122931988673,4.025767409054904,4.051345811534003,4.127787724264364,4.190297366556402,4.222431654130961,4.238537643889929,4.2487413713838835,4.268443255296693,4.278435610990793,4.278435610990793,4.278435610990793,4.278435610990793,4.278435610990793,4.278435610990793,4.278435610990793,4.278435610990793,4.278435610990793,4.278435610990793,4.278435610990793,4.278435610990793,4.278435610990793,4.278435610990793,4.278435610990793,4.278435610990793,4.278435610990793,4.278435610990793,4.278435610990793,4.278435610990793,4.278435610990793,4.278435610990793,4.278435610990793,4.278435610990793,4.278435610990793,4.278435610990793,4.278435610990793,4.278435610990793,4.278435610990793,4.278435610990793,4.278435610990793,4.273736165002804,4.273736165002804,4.273736165002804,4.264046298708076,4.243560070599646,4.243560070599646,4.233278686324298,4.233278686324298,4.233278686324298,4.233278686324298,4.233278686324298,4.233278686324298,4.233278686324298,4.233278686324298,4.233278686324298,4.233278686324298,4.233278686324298,4.233278686324298,4.233278686324298,4.233278686324298,4.233278686324298,4.233278686324298,4.233278686324298,4.233278686324298,4.233278686324298,4.233278686324298,4.233278686324298,4.233278686324298,4.233278686324298,4.233278686324298,4.233278686324298,4.233278686324298,4.233278686324298,4.233278686324298,4.233278686324298,4.233278686324298,4.233278686324298,4.233278686324298,4.233278686324298,4.233278686324298,4.233278686324298,4.233278686324298,4.233278686324298,4.233278686324298,4.233278686324298,4.233278686324298,4.233278686324298,4.233278686324298,4.233278686324298,4.233278686324298,4.233278686324298,4.233278686324298,4.233278686324298,4.233278686324298,4.233278686324298,4.233278686324298,4.233278686324298,4.233278686324298,4.233278686324298,4.233278686324298,4.233278686324298,4.233278686324298,4.233278686324298,4.233278686324298,4.233278686324298,4.233278686324298,4.233278686324298,4.233278686324298,4.233278686324298,4.233278686324298,4.233278686324298,4.233278686324298,4.233278686324298,4.233278686324298,4.233278686324298,4.233278686324298,4.233278686324298,4.233278686324298,4.233278686324298,4.233278686324298,4.233278686324298,4.233278686324298,4.233278686324298,4.233278686324298,4.233278686324298,4.233278686324298,4.233278686324298,4.233278686324298,4.233278686324298,4.233278686324298,4.233278686324298,4.233278686324298,4.233278686324298,4.233278686324298,4.233278686324298,4.233278686324298,4.233278686324298,4.233278686324298,4.233278686324298,4.233278686324298,4.233278686324298,4.233278686324298,4.233278686324298,4.233278686324298,4.233278686324298,4.37023309530151,4.420932185906823,4.470823273289364,4.509343763131225,4.5351635954349705,4.5496616057443084,4.578859931292818,4.608289042275091,4.651856960602583,4.71238898038469,4.790355614216232,4.836743974931451,4.894948833515596,4.90978454023457,4.921411923190954,4.988716255359755,5.002475912705718,5.016123466227276,5.0252902082650746,5.034139534781332,5.0426863352139435,5.092895357497055,5.092895357497055,5.088349934255995,5.088349934255995,5.079562814202909,5.079562814202909,5.079562814202909,5.079562814202909,5.079562814202909,5.079562814202909,5.079562814202909,5.079562814202909,5.0820732691799915,5.109807064269264,5.130613309963919,5.1510417957665755,5.156334705472687,5.1662329819062,5.1662329819062,5.1662329819062,5.1662329819062,5.1662329819062,5.1662329819062,5.1662329819062,5.1662329819062,5.1662329819062,5.1662329819062,5.1662329819062,5.1662329819062,5.1662329819062,5.1662329819062,5.1662329819062,5.1662329819062,5.1662329819062,5.1662329819062,5.1662329819062,5.1662329819062,5.1662329819062,5.1662329819062,5.1662329819062,5.1662329819062,5.1662329819062,5.1662329819062,5.1662329819062,5.1662329819062,5.1662329819062,5.1662329819062,5.1662329819062,5.1662329819062,5.1662329819062,5.1662329819062,5.1662329819062,5.1662329819062,5.1662329819062,5.1662329819062,5.1662329819062,5.1662329819062,5.1662329819062,5.1662329819062,5.2587490048336685,5.434807481349193,5.6126637491990365,5.702787119785712,5.733332124503001,5.733332124503001,5.733332124503001,5.733332124503001,5.733332124503001,5.733332124503001,5.733332124503001,5.733332124503001,5.733332124503001,5.733332124503001,5.733332124503001,5.733332124503001,5.733332124503001,5.733332124503001,5.733332124503001,5.733332124503001,5.733332124503001,5.733332124503001,5.733332124503001,5.733332124503001,5.733332124503001,5.733332124503001,5.733332124503001,5.733332124503001,5.733332124503001,5.733332124503001,5.733332124503001,6.152357911105529,0.012499349019361672,0.13021144296439635,0.291456794477867,0.3749917271333685,0.3932794050538968,0.3932794050538968,0.3932794050538968,0.3932794050538968,0.3932794050538968,0.3932794050538968,0.3932794050538968,0.3932794050538968,0.372987721800061,0.372987721800061,0.35756585157643084,0.34788839127999527,0.32175055439664213,0.31171744624926645,0.2812322019182951,0.25289406509559753,0.23171684119045066,0.22347660114063306,0.21264492235777155,0.21264492235777155,0.21264492235777155,0.21264492235777155,0.21264492235777155,0.21264492235777155,0.21264492235777155,0.21264492235777155,0.21264492235777155,0.21264492235777155,0.1908311027212619,0.1908311027212619,0.1798534997924781,0.16883190201112064,0.157768737595954,0.14666649379719288,0.13552771398550068,0.12435499454676147,0.11315098159048453,0.10308160852270021,0.10308160852270021,0.10308160852270021,0.11575921772081066,0.244978663126864,0.3021452235394375,0.4234394061597191,0.7086262721276702,0.7936624380570995,0.8253768505207383,0.8404605587711186,0.8633647972289905,0.8858342754462991,0.892677019045851,0.892677019045851,0.9272952180016122,0.9453112865556675,0.9732398738097319,0.9732398738097319,0.982793723247329,0.982793723247329,0.982793723247329,1.0590574844795386,1.1016842913096028,1.123721785906708,1.157667494516495,1.1808784628640443,1.2571756745781983,1.5033313022729917,1.6107750139181867,1.806820005420794,1.9032226321789938,1.9879658044446997,2.0344439357957027,2.073217596819527,2.0981872483283897,2.114441622328102,2.122451309323443,2.1353657204629966,2.1353657204629966,2.1353657204629966,2.1353657204629966,2.148355445806911,2.1667143323111975,2.1799597924556693,2.1799597924556693,2.1799597924556693,2.185459278717062,2.185459278717062,2.185459278717062,2.1988843980312853,2.2283245716323448,2.245537269018449,2.2724215464485784,2.2927875382255127,2.330989744865403,2.3918936028716686,2.450255724820331,2.479377152333621,2.500808929412285,2.545808105966734,2.613518205163434,2.6584669887724592,2.697809980840152,2.730875690475121,2.7583085058441075,2.8056250476636624,2.819842099193151,2.871439453878388,2.9325697107835285,2.964367268640074,2.9812172096138427,3.0118901164338814,3.0404892818534948,3.0712861894711687,3.169363290183214,3.2371907722536335,3.344251322737269,3.4468157873837146,3.583385819107237,3.626627375442329,3.7939235549786847,3.8899707011133113,4.0252647702432505,4.064996840644761,4.124386376837123,4.189738207589851,4.244539715437012,4.2941646508054605,4.333557643581782,4.368170297402222,4.3906384259880475,4.41261291028471,4.440048726396281,4.465291676359973,4.484286352104747,4.49277485520809,4.511592073107568,4.520104108577096,4.520104108577096,4.520104108577096,4.520104108577096,4.520104108577096,4.520104108577096,4.528644449645567,4.528644449645567,4.528644449645567,4.528644449645567,4.528644449645567,4.528644449645567,4.528644449645567,4.535680124314654,4.691983649698152,4.836743974931451,5.198011073682158,5.2837264602183165,5.310358031338464,5.327051932306855,5.346411700048112,5.346411700048112,5.346411700048112,5.346411700048112,5.346411700048112,5.346411700048112,5.346411700048112,5.346411700048112,5.346411700048112,5.346411700048112,5.346411700048112,5.276258339165389,5.176036589385496,5.038544792628143,4.90978454023457,4.795530212273131,4.796932735897688,4.781245469685734,4.7640670648671195,4.7640670648671195,4.7640670648671195,4.7640670648671195,4.7640670648671195,4.6945337352451375,4.641081515599399,4.424333533334064,4.318938342455754,4.302951770858547,4.287183961405072,4.256316984035079,4.256316984035079,4.256316984035079,4.256316984035079,4.256316984035079,4.256316984035079,4.256316984035079,4.193242866138167,4.174553453691261,4.156895245119147,4.132386206177008,4.128307925361883,4.128307925361883,4.128307925361883,4.128307925361883,4.128307925361883,4.128307925361883,4.128307925361883,4.343055322711065,4.463678991291166,4.682095220465914,5.1017057022178305,5.1017057022178305,5.176036589385496,5.218463943681031,5.2837264602183165,5.332638466367511,5.3348606849317655,5.3348606849317655,5.3348606849317655,5.3348606849317655,5.3348606849317655,5.3348606849317655,5.3348606849317655,5.235987755982988]],"response_history":["3"],"rt":56770,"trial_type":"polygon-arrow-question","trial_index":0,"trial_index_global":3,"time_elapsed":256274,"internal_chunk_id":"0-0.3-0"},{"nsides":6,"feedback":"Correct! 4 <img src=./images/hexagon_symbol.png style=width:14px;height:14px> 5 = 3 because 5 steps clockwise on the hexagon from 4 brings us to 3. Equiv alently,  4 + 5 = 9 and 9 - 6 = 3.","orientation_history":[0],"rt":9278,"trial_type":"polygon-arrow-feedback","trial_index":0,"trial_index_global":4,"time_elapsed":265557,"internal_chunk_id":"0-0.3-0"},{"nsides":6,"question":"What is 3 <img src=./images/hexagon_symbol.png style=width:14px;height:14px> 2? Try to solve this problem using the hexagon. <br /><br /> (Remember, to perform <img src=./images/hexagon_symbol.png style=width:14px;height:14px> on the hexagon, you can use the interactive diagram on the right, or perform the operation in your mind. Point the arrow at the first number on the hexagon, and then move the arrow the second number of points clockwise around the hexagon.)","response_type":"free","response_choices":[],"correct_response":"5","response":"5","explain":false,"explanation":"","explanation_history":[],"orientation_history":[[0],[0,0,-0.002846292123924954,-0.0059043865663843675,-0.011841551748716483,-0.027177772590445848,-0.038350492029184835,-6.179638744604607,-5.904009306222476,-5.4773818130956,-4.6088424178097105,-4.4470049865712875,-4.355308830311424,-4.287091863413068,-4.145194808808904,-3.9288040516274227,-3.7917088808838044,-3.6823507351916076,-3.6260486945623818,-3.5656065328043542,-3.5478148160301313,-3.5313146634447463,-3.4910933903598127,-3.477807458854687,-3.477807458854687,-3.4538070144771673,-3.4538070144771673,-3.4482854199090482,-3.4429378772998973,-3.4377565765156586,-3.3623050013547235,-3.354930503772157,-3.336545022600993,-3.333331075907731,-3.3271786595790864,-3.3100845037808777,-3.293378137426194,-3.293378137426194,-3.293378137426194,-3.274894851961734,-3.261111993477373,-3.245542317450017,-3.231844544077151,-3.231844544077151,-3.2167854415670956,-3.18865234742516,-3.1751888232792234,-3.1617056753816017,-3.107674631889927,-3.107674631889927,-3.107674631889927,-3.107674631889927,-3.107674631889927,-3.107674631889927,-3.107674631889927,-3.107674631889927,-3.107674631889927,-3.107674631889927,-3.107674631889927,-3.107674631889927,-3.107674631889927,-3.107674631889927,-3.107674631889927,-3.107674631889927,-3.107674631889927,-3.107674631889927,-3.107674631889927,-3.107674631889927,-3.107674631889927,-3.107674631889927,-3.107674631889927,-3.107674631889927,-3.107674631889927,-3.107674631889927,-3.107674631889927,-3.107674631889927,-3.107674631889927,-3.107674631889927,-3.107674631889927,-3.107674631889927,-3.107674631889927,-3.107674631889927,-3.107674631889927,-3.107674631889927,-3.107674631889927,-3.107674631889927,-3.107674631889927,-3.107674631889927,-3.107674631889927,-3.107674631889927,-3.107674631889927,-3.107674631889927,-3.107674631889927,-3.107674631889927,-3.107674631889927,-3.107674631889927,-3.107674631889927,-3.107674631889927,-3.107674631889927,-3.107674631889927,-3.107674631889927,-3.107674631889927,-3.107674631889927,-3.107674631889927,-3.107674631889927,-3.107674631889927,-3.107674631889927,-3.107674631889927,-3.107674631889927,-3.107674631889927,-3.107674631889927,-3.107674631889927,-3.107674631889927,-3.107674631889927,-3.107674631889927,-3.107674631889927,-3.107674631889927,-3.107674631889927,-3.107674631889927,-3.0089845079060007,-2.8192361610730057,-2.6218406012231252,-2.4808308578324123,-2.335789159505807,-2.2205130335348553,-2.1423618327949594,-2.095618151645634,-2.0574895005006955,-2.0201734974670407,-1.972642149559631,-1.9381611679836777,-1.9212822849210207,-1.9046504187870248,-1.888269184348637,-1.876190111381029,-1.8517362198184628,-1.7890003186165595,-1.7242921852462452,-1.6447049474355389,-1.5774114452956232,-1.523370546921094,-1.4829259715864538,-1.4293637762991533,-1.389628255482524,-1.3374526465289618,-1.2702830208103055,-1.1869978626131283,-1.133492925698465,-1.0695037159130223,-1.058179729268792,-1.0359396830493308,-1.0142449740961244,-1.0142449740961244,-1.0142449740961244,-1.0142449740961244,-1.0142449740961244,-1.0142449740961244,-1.0142449740961244,-1.0142449740961244,-1.0142449740961244,-1.0142449740961244,-0.8881754948521863,-0.6653241802197485,-0.5200141695840461,-0.39924553144856567,-0.29686094883528824,-0.2312846410716487,-0.1849900585032298,-0.1849900585032298,-0.1849900585032298,-0.1849900585032298,-0.1849900585032298,-0.1849900585032298,-0.1849900585032298,-0.1849900585032298,-0.16907482719460987,-0.09746677251067837,-0.04360964714780646,0.007905981667176043,-6.23839456732033,-6.226651125980273,-6.226651125980273,-6.226651125980273,-6.226651125980273,-6.226651125980273,-6.226651125980273,-6.226651125980273,-6.226651125980273,-6.226651125980273,-6.177620583873342,-6.104124714306647,-5.879702910956041,-5.717552820955773,-5.613784417496547,-5.571443047723586,-5.55271070392394,-5.524076817138931,-5.495898215163609,-5.4773818130956,-5.4503613639083355,-5.423861544636285,-5.423861544636285,-5.41551396723122,-5.41551396723122,-5.41551396723122,-5.41551396723122,-5.3803424271136,-5.304803851863393,-5.304803851863393,-5.254720872459235,-5.202933226194762,-5.093212448703,-5.013734204094794,-4.9090949644330575,-4.837995907409427,-4.7930870214344505,-4.734814582366879,-4.649152717029424,-4.5245518712276285,-4.404407818917704,-4.325728089267375,-4.2788548174197505,-4.2449091088099635,-4.222871614212858,-4.201315591510081,-4.190719384826569,-4.163909201271792,-4.137191422560257,-4.11709504842806,-4.090909895200403,-4.084181653584191,-4.074481409551078,-4.064912987109134,-4.055475433910201,-4.046167730224582,-4.046167730224582,-4.046167730224582,-4.046167730224582,-4.046167730224582,-4.046167730224582,-4.046167730224582,-4.046167730224582,-4.046167730224582,-4.046167730224582,-4.046167730224582,-4.046167730224582,-4.046167730224582,-4.046167730224582,-4.046167730224582,-4.046167730224582,-4.046167730224582,-4.046167730224582,-4.062338467051996,-4.07173416371533,-4.0784275041862355,-4.0784275041862355,-4.0784275041862355,-4.0784275041862355,-4.0784275041862355,-4.0784275041862355,-4.0784275041862355,-4.0784275041862355,-4.0784275041862355,-4.0784275041862355,-4.0784275041862355,-4.113658163417735,-4.161425762668705,-4.171402816206492,-4.171402816206492,-4.171402816206492,-4.171402816206492,-4.171402816206492,-4.171402816206492,-4.171402816206492,-4.171402816206492,-4.171402816206492,-4.213261805702386,-4.257313434548907,-4.257313434548907,-4.257313434548907,-4.257313434548907,-4.257313434548907,-4.257313434548907,-4.257313434548907,-4.257313434548907,-4.257313434548907,-4.257313434548907,-4.257313434548907,-4.257313434548907,-4.257313434548907,-4.257313434548907,-4.257313434548907,-4.257313434548907,-4.257313434548907,-4.257313434548907,-4.257313434548907,-4.257313434548907,-4.257313434548907,-4.257313434548907,-4.257313434548907,-4.257313434548907,-4.257313434548907,-4.257313434548907,-4.257313434548907,-4.257313434548907,-4.257313434548907,-4.257313434548907,-4.257313434548907,-4.257313434548907,-4.257313434548907,-4.257313434548907,-4.257313434548907,-4.257313434548907,-4.257313434548907,-4.257313434548907,-4.257313434548907,-4.257313434548907,-4.257313434548907,-4.257313434548907,-4.257313434548907,-4.257313434548907,-4.257313434548907,-4.257313434548907,-4.257313434548907,-4.257313434548907,-4.257313434548907,-4.257313434548907,-4.257313434548907,-4.257313434548907,-4.257313434548907,-4.257313434548907,-4.257313434548907,-4.257313434548907,-4.257313434548907,-4.257313434548907,-4.257313434548907,-4.257313434548907,-4.257313434548907,-4.257313434548907,-4.257313434548907,-4.257313434548907,-4.257313434548907,-4.257313434548907,-4.257313434548907,-4.257313434548907,-4.257313434548907,-4.257313434548907,-4.257313434548907,-4.257313434548907,-4.257313434548907,-4.257313434548907,-4.257313434548907,-4.257313434548907,-4.257313434548907,-4.257313434548907,-4.257313434548907,-4.257313434548907,-4.257313434548907,-4.257313434548907,-4.257313434548907,-4.257313434548907,-4.257313434548907,-4.257313434548907,-4.257313434548907,-4.257313434548907,-4.257313434548907,-4.257313434548907,-4.257313434548907,-4.257313434548907,-4.257313434548907,-4.257313434548907,-4.257313434548907,-4.257313434548907,-4.257313434548907,-4.257313434548907,-4.257313434548907,-4.257313434548907,-4.257313434548907,-4.257313434548907,-4.257313434548907,-4.257313434548907,-4.257313434548907,-4.257313434548907,-4.257313434548907,-4.257313434548907,-4.257313434548907,-4.257313434548907,-4.257313434548907,-4.257313434548907,-4.257313434548907,-4.257313434548907,-4.257313434548907,-4.257313434548907,-4.257313434548907,-4.257313434548907,-4.257313434548907,-4.257313434548907,-4.257313434548907,-4.257313434548907,-4.257313434548907,-4.257313434548907,-4.257313434548907,-4.257313434548907,-4.257313434548907,-4.257313434548907,-4.257313434548907,-4.257313434548907,-4.257313434548907,-4.257313434548907,-4.257313434548907,-4.257313434548907,-4.257313434548907,-4.257313434548907,-4.257313434548907,-4.257313434548907,-4.257313434548907,-4.257313434548907,-4.257313434548907,2.0943951023931953]],"response_history":["5"],"rt":18092,"trial_type":"polygon-arrow-question","trial_index":0,"trial_index_global":5,"time_elapsed":283653,"internal_chunk_id":"0-0.3-0"},{"nsides":6,"feedback":"Correct! 3 <img src=./images/hexagon_symbol.png style=width:14px;height:14px> 2 = 5 because 2 steps clockwise on the hexagon from 3 brings us to 5. Equivalently, 3 + 2 = 5 and 5 is less than 6.","orientation_history":[0],"rt":2936,"trial_type":"polygon-arrow-feedback","trial_index":0,"trial_index_global":6,"time_elapsed":286595,"internal_chunk_id":"0-0.3-0"},{"nsides":6,"question":"What is 1 <img src=./images/hexagon_symbol.png style=width:14px;height:14px> 5? Try to solve this probem using the arithmetic technique. <br /><br /> (Remember, to perform <img src=./images/hexagon_symbol.png style=width:14px;height:14px> by arithmetic, you start with the first number, and then add the second one to it. If the sum is smaller than 6, that's your result. If the sum is 6 or bigger, you subtract 6 to get your result.)","response_type":"free","response_choices":[],"correct_response":"0","response":"6","explain":false,"explanation":"","explanation_history":[],"orientation_history":[[0]],"response_history":["6"],"rt":12635,"trial_type":"polygon-arrow-question","trial_index":0,"trial_index_global":7,"time_elapsed":299233,"internal_chunk_id":"0-0.3-0"},{"nsides":6,"feedback":"Sorry, that was incorrect. 1 <img src=./images/hexagon_symbol.png style=width:14px;height:14px> 5 = 0 because 1 + 5 = 6 and 6 - 6 = 0.  Equivalently, 5 steps clockwise on the hexagon from 1 brings us to 0.","orientation_history":[0],"rt":3597,"trial_type":"polygon-arrow-feedback","trial_index":0,"trial_index_global":8,"time_elapsed":302834,"internal_chunk_id":"0-0.3-0"},{"nsides":6,"question":"What is 1 <img src=./images/hexagon_symbol.png style=width:14px;height:14px> 1? Try to solve this problem using the hexagon. <br /><br /> (Remember, to perform <img src=./images/hexagon_symbol.png style=width:14px;height:14px> on the hexagon, you can u se the i nteractive diagram on the right, or perform the operation in your mind. Point the arrow at the first number on the hexagon, and then move the arrow the second number of points clockwise around the hexagon.)","response_type":"free","response_choices":[],"correct_response":"2","response":"2","explain":false,"explanation":"","explanation_history":[],"orientation_history":[[0]],"response_history":["2"],"rt":3462,"trial_type":"polygon-arrow-question","trial_index":0,"trial_index_global":9,"time_elapsed":306299,"internal_chunk_id":"0-0.3-0"},{"nsides":6,"feedback":"Correct! 1 <img src=./images/hexagon_symbol.png style=width:14px;height:14px> 1 = 2 because 1 step clockwise on the hexagon from 1 brings us to 2. Equivalently, 1 + 1 = 2 and 2 is less than 6.","orientation_history":[0],"rt":1523,"trial_type":"polygon-arrow-feedback","trial_index":0,"trial_index_global":10,"time_elapsed":307825,"internal_chunk_id":"0-0.3-0"},{"nsides":6,"question":"What is 3 <img src=./images/ hexagon_ symbol.png style=width:14px;height:14px> 0? Try to solve this problem using the arithmetic technique. <br /><br /> (Remember, to perform <img src=./images/hexagon_symbol.png style=width:14px;height:14px> using arithmetic, you start with the first number, and then add the second one to it. If the sum is smaller than 6, that's your result. If the sum is 6 or bigger, you subtract 6 to get your result.)","response_type":"free","response_choices":[],"correct_response":"3","response":"3","explain":false,"explanation":"","explanation_history":[],"orientation_history":[[0]],"response_history":["3"],"rt":4673,"trial_type":"polygon-arrow-question","trial_index":0,"trial_index_global":11,"time_elapsed":312501,"internal_chunk_id":"0-0.3-0"},{"nsides":6,"feedback":"Correct! 3 <img src=./images/hexagon_symbol.png style=width:14px;height:14px> 0 = 3 because 3 + 0 = 3 and 3 - 6 = 3.  Equivalently, 0 steps clockwise on the hexagon from 3 brings us to 3.","orientation_history":[0],"rt":820,"trial_type":"polygon-arrow-feedback","trial_index":0,"trial_index_global":12,"time_elapsed":313325,"internal_chunk_id":"0-0.3-0"},{"nsides":6,"question":"What is 4 <img src=./images/hexagon_symbol.png style=width:14px;height:14px> 4? Try to solve this problem using the hexagon. <br /><br /> (Remember, to perform <img src=./images/hexagon_symbol.png style=width:14px;height:14px> on the hexagon, you can use the interactive diagram on the right, or perform the operation in your mind. Point the arrow at the first number on the hexagon, and then move the arrow the second number of points clockwise around the hexagon.)","response_type":"free","response_choices":[],"correct_response":"2","response":"2","explain":false,"explanation":"","explanation_history":[],"orientation_history":[[0]],"response_history":["2"],"rt":4391,"trial_type":"polygon-arrow-question","trial_index":0,"trial_index_global":13,"time_elapsed":317719,"internal_chunk_id":"0-0.3-0"},{"nsides":6,"feedback":"Correct! 4 <img src=./images/hexagon_symbol.png style=width:14px;height:14px> 4 = 2 because 4 steps clockwise on the hexagon from 4 brings us to 2. Equivalently, 4 + 4 = 8 and 8 - 6 = 2.","orientation_history":[0],"rt":1384,"trial_type":"polygon-arrow-feedback","trial_index":0,"trial_index_global":14,"time_elapsed":319107,"internal_chunk_id":"0-0.3-0"},{"nsides":6,"question":"What is 1 <img src=./images/hexagon_symbol.png style=width:14px;height:14px> 3? Try to solve this problem using the arithmetic technique. <br /><br /> (Remember, to perform <img src=./images/hexagon_symbol.png style=width:14px;height:14px> by arithmetic, you start with the first number, and then add the second one to it. If the sum is smaller than 6, that's your result. If the sum is 6 or bigger, you subtract 6 to get your result.)","response_type":"free","response_choices":[],"correct_response":"4","response":"4","explain":false,"explanation":"","explanation_history":[],"orientation_history":[[0]],"response_history":["4"],"rt":5805,"trial_type":"polygon-arrow-question","trial_index":0,"trial_index_global":15,"time_elapsed":324915,"internal_chunk_id":"0-0.3-0"},{"nsides":6,"feedback":"Correct! 1 <img src=./images/hexagon_symbol.png style=width:14px;height:14px> 3 = 4 because 1 + 3 = 4 and 4 - 6 = 4.  Equivalently, 3 steps clockwise on the hexagon from 1 brings us to 4.","orientation_history":[0],"rt":914,"trial_type":"polygon-arrow-feedback","trial_index":0,"trial_index_global":16,"time_elapsed":325833,"internal_chunk_id":"0-0.3-0"},{"nsides":6,"question":"What is 4 <img src=./images/hexagon_symbol.png style=width:14px;height:14px> 3? <br /><br /> (Remember, to perform <img src=./images/hexagon_symbol.png style=width:14px;height:14px>, you can either use a method based on the hexagon at right, or a method based on arithmetic.<br /><br /><b>Hexagon method:</b> you can use the interactive diagram on the right, or perform t he opera tion in your mind. Point the arrow at the first number, then move the arrow the second number of points clockwise around the hexagon. The number the arrow arrives at is your result. <br /><br /><b>Arithmetic method:</b> you start with the first number, and then add the second one to it. If the sum is smaller than 6, that's your result. If the sum is 6 or bigger, you subtract 6 to get your result.)","response_type":"free","response_choices":[],"correct_response":"1","response":"1","explain":false,"explanation":"","explanation_history":[],"orientation_history":[[0]],"response_history":["1"],"rt":12161,"trial_type":"polygon-arrow-question","trial_index":0,"trial_index_global":17,"time_elapsed":337996,"internal_chunk_id":"0-0.3-0"},{"nsides":6,"feedback":"Correct! 4 <img src=./images/hexagon_symbol.png style=width:14px;height:14px> 3 = 1 because 3 steps clockwise on the hexagon from 4 brings us to 1. Equivalently, 4 + 3 = 7 and 7 - 6 = 1.","orientation_history":[0],"rt":937,"trial_type":"polygon-arrow-feedback","trial_index":0,"trial_index_global":18,"time_elapsed":338938,"internal_chunk_id":"0-0.3-0"},{"nsides":6,"question":"What is 0 <img src=./images/hexagon_symbol.png style=width:14px;height:14px> 5? <br /><br /> (Remember, to perform <img src=./images/hexagon_symbol.png style=width:14px;height:14px>, you can either use a method based on the hexagon at right, or a method based on arithmetic.<br /><br /><b>Hexagon method:</b> you can use the interactive diagram on the right, or perform the operation in your mind. Point the arrow at the first number, then move the arrow the second number of points clockwise around the hexagon. The number the arrow arrives at is your result. <br /><br /><b>Arithmetic method:</b> you start with the first number, and then add the second one to it. If the sum is smaller than 6, that's your result. If the sum is 6 or bigger, you subtract 6 to get your result.)","response_type":"free","response_choices":[],"correct_response":"5","response":"5","explain":false,"explanation":"","explanation_history":[],"orientation_history":[[0]],"response_history":["5"],"rt":3433,"trial_type":"polygon-arrow-question","trial_index":0,"trial_index_global":19,"time_elapsed":342374,"internal_chunk_id":"0-0.3-0"},{"nsides":6,"feedback":"Correct! 0 <img src=./images/hexagon_symbol.png style=width:14px;height:14px> 5 = 5 because 5 steps clockwise on the hexagon from 0 brings us to 5. Equivalently, 0 + 5 = 5 and 5 is less than 6.","orientation_history":[0],"rt":1265,"trial_type":"polygon-arrow-feedback","trial_index":0,"trial_index_global":20,"time_elapsed":343643,"internal_chunk_id":"0-0.3-0"},{"nsides":6,"question":"What is 2 <img src=./images/hexagon_symbol.png style=width:14px;height:14px> 5? <br /><br /> (Remember, to perform <img src=./images/hexagon_symbol.png style=width:14px;height:14px>, you can either use a method based on the hexagon at right, or a method based on arithm etic.<br  /><br /><b>Hexagon method:</b> you can use the interactive diagram on the right, or perform the operation in your mind. Point the arrow at the first number, then move the arrow the second number of points clockwise around the hexagon. The number the arrow arrives at is your result. <br /><br /><b>Arithmetic method:</b> you start with the first number, and then add the second one to it. If the sum is smaller than 6, that's your result. If the sum is 6 or bigger, you subtract 6 to get your result.)","response_type":"free","response_choices":[],"correct_response":"1","response":"1","explain":false,"explanation":"","explanation_history":[],"orientation_history":[[0]],"response_history":["1"],"rt":3380,"trial_type":"polygon-arrow-question","trial_index":0,"trial_index_global":21,"time_elapsed":347024,"internal_chunk_id":"0-0.3-0"},{"nsides":6,"feedback":"Correct! 2 <img src=./images/hexagon_symbol.png style=width:14px;height:14px> 5 = 1 because 5 steps clockwise on the h exagon f rom 2 brings us to 1. Equivalently, 2 + 5 = 7 and 7 - 6 = 1.","orientation_history":[0],"rt":900,"trial_type":"polygon-arrow-feedback","trial_index":0,"trial_index_global":22,"time_elapsed":347926,"internal_chunk_id":"0-0.3-0"},{"nsides":6,"instructions":"Now we're going to discuss a couple special properties of this new operation, <img src=./images/hexagon_symbol.png style=width:14px;height:14px> that we've learned. First, notice that the number 0 behaves in a special way under <img src=./images/hexagon_symbol.png style=width:14px;height:14px>. Whenever we combine 0 with anything else, we get that same thing back. We'll say that 0 is the <i>identity</i> under <img src=./images/hexagon_symbol.png style=width:14px;height:14px>, because when you combine it with something it gives you that identical thing back.","orientation_history":[0],"rt":12913,"trial_type":"polygon-arrow-instructions","trial_index":0,"trial_index_global":23,"time_elapsed":360852,"internal_chunk_id":"0-0"},{"nsides":6,"instructions":"Now that we know 0 is the identity under <img src=./images/hexagon_symbol.png style=width:14px;height:14px>, we're going to make a new definition. We'll say that the <i>inverse</i> of a number is the element that you combine with it to produce the identity. For example, 5 <img src=./images/hexagon_symbol.png style=width:14px;height:14px> 1 = 0, so we say 1 is the inverse of 5 under <img src=./images/hexagon_symbol.png style=width:14px;height:14px>, (remember 0 is the identity under <img src=./images/hexagon_symbol.png style=width:14px;height:14px>). Similarly, 3 is its own inverse under <img src=./images/hexagon_symbol.png style=width:14px;height:14px>, because 3 <img src=./images/hexagon_symbol.png style=width:14px;height:14px> 3 = 0.","orientation_history":[0],"rt":31707,"trial_type":"polygon-arrow-instructions","trial_index":0,"trial_index_global":24,"time_elapsed":392563,"internal_chunk_id":"0-0"},{"nsides":6,"question":"Now you try! What is the inverse of 4 under <img src=./images/hexagon_symbol.png style=width:14px;height:14px>? <br /><br /> (Remember, the inverse of an element is the thing which you combine with it to produce the identity.)","response_type":"free","response_choices":[],"correct_response":"2","response":"2","explain":false,"explanation":"","explanation_history":[],"orientation_history":[[0]],"response_history":["2"],"rt":8174,"trial_type":"polygon-arrow-question","trial_index":0,"trial_index_global":25,"time_elapsed":400742,"internal_chunk_id":"0-0.7-0"},{"nsides":6,"feedback":"Correct! The inverse of 4 under <img src=./images/hexagon_symbol.png style=width:14px;height:14px> is 2 because 4 <img src=./images/hexagon_symbol.png style=width:14px;height:14px> 2 = 0, and 0 is the identity under <img src=./images/hexagon_symbol.png style=width:14px;height:14px>.","orientation_history":[0],"rt":1761,"trial_type":"p olygon-a rrow-feedback","trial_index":0,"trial_index_global":26,"time_elapsed":402507,"internal_chunk_id":"0-0.7-0"},{"nsides":6,"question":"What is the inverse of 1 under <img src=./images/hexagon_symbol.png style=width:14px;height:14px>? <br /><br /> (Remember, the inverse of an element is the thing which you combine with it to produce the identity.)","response_type":"free","response_choices":[],"correct_response":"5","response":"5","explain":false,"explanation":"","explanation_history":[],"orientation_history":[[0]],"response_history":["5"],"rt":2733,"trial_type":"polygon-arrow-question","trial_index":0,"trial_index_global":27,"time_elapsed":405242,"internal_chunk_id":"0-0.7-0"},{"nsides":6,"feedback":"Correct! The inverse of 1 under <img src=./images/hexagon_symbol.png style=width:14px;height:14px> is 5 because 1 <img src=./images/hexagon_symbol.png style=width:14px;height:14px> 5 = 0, and 0 is the identity under <img src=./images/hexagon_symbol.png st yle=wi dth:14px;height:14px>.","orientation_history":[0],"rt":821,"trial_type":"polygon-arrow-feedback","trial_index":0,"trial_index_global":28,"time_elapsed":406066,"internal_chunk_id":"0-0.7-0"},{"nsides":6,"question":"What is the inverse of 3 under <img src=./images/hexagon_symbol.png style=width:14px;height:14px>? <br /><br /> (Remember, the inverse of an element is the thing which you combine with it to produce the identity.)","response_type":"free","response_choices":[],"correct_response":"3","response":"3","explain":false,"explanation":"","explanation_history":[],"orientation_history":[[0]],"response_history":["3"],"rt":2101,"trial_type":"polygon-arrow-question","trial_index":0,"trial_index_global":29,"time_elapsed":408169,"internal_chunk_id":"0-0.7-0"},{"nsides":6,"feedback":"Correct! The inverse of 3 under <img src=./images/hexagon_symbol.png style=width:14px;height:14px> is 3 because 3 <img src=./images/hexagon_symbol.png style=width:14px;height:14 px> 3  = 0, and 0 is the identity under <img src=./images/hexagon_symbol.png style=width:14px;height:14px>.","orientation_history":[0],"rt":677,"trial_type":"polygon-arrow-feedback","trial_index":0,"trial_index_global":30,"time_elapsed":408848,"internal_chunk_id":"0-0.7-0"},{"nsides":6,"question":"What is the inverse of 2 under <img src=./images/hexagon_symbol.png style=width:14px;height:14px>? <br /><br /> (Remember, the inverse of an element is the thing which you combine with it to produce the identity.)","response_type":"free","response_choices":[],"correct_response":"4","response":"4","explain":false,"explanation":"","explanation_history":[],"orientation_history":[[0]],"response_history":["4"],"rt":1959,"trial_type":"polygon-arrow-question","trial_index":0,"trial_index_global":31,"time_elapsed":410808,"internal_chunk_id":"0-0.7-0"},{"nsides":6,"feedback":"Correct! The inverse of 2 under <img src=./images/hexagon_symbol.png style=width:14px;height:14px>  is 4 bec ause 2 <img src=./images/hexagon_symbol.png style=width:14px;height:14px> 4 = 0, and 0 is the identity under <img src=./images/hexagon_symbol.png style=width:14px;height:14px>.","orientation_history":[0],"rt":791,"trial_type":"polygon-arrow-feedback","trial_index":0,"trial_index_global":32,"time_elapsed":411601,"internal_chunk_id":"0-0.7-0"},{"nsides":6,"question":"What is the inverse of 0 under <img src=./images/hexagon_symbol.png style=width:14px;height:14px>? <br /><br /> (Remember, the inverse of an element is the thing which you combine with it to produce the identity.)","response_type":"free","response_choices":[],"correct_response":"0","response":"6","explain":false,"explanation":"","explanation_history":[],"orientation_history":[[0]],"response_history":["6"],"rt":5253,"trial_type":"polygon-arrow-question","trial_index":0,"trial_index_global":33,"time_elapsed":416856,"internal_chunk_id":"0-0.7-0"},{"nsides":6,"feedback":"Sorry, that was incorre ct. The  inverse of 0 under <img src=./images/hexagon_symbol.png style=width:14px;height:14px> is 0 because 0 <img src=./images/hexagon_symbol.png style=width:14px;height:14px> 0 = 0, and 0 is the identity under <img src=./images/hexagon_symbol.png style=width:14px;height:14px>.","orientation_history":[0],"rt":2221,"trial_type":"polygon-arrow-feedback","trial_index":0,"trial_index_global":34,"time_elapsed":419079,"internal_chunk_id":"0-0.7-0"},{"nsides":6,"instructions":"It is also possible to successively apply <img src=./images/hexagon_symbol.png style=width:14px;height:14px>, and the operation can simply be performed starting with the left-most pair. For example, 2 <img src=./images/hexagon_symbol.png style=width:14px;height:14px> 3 <img src=./images/hexagon_symbol.png style=width:14px;height:14px> 4 = 5 <img src=./images/hexagon_symbol.png style=width:14px;height:14px> 4 = 3.","orientation_history":[0],"rt":22234,"trial_type":"polyg on-arrow-instructions","trial_index":0,"trial_index_global":35,"time_elapsed":441316,"internal_chunk_id":"0-0"},{"nsides":6,"instructions":"We have one last definition to learn today, using the successive operations we just learned. Let's start with an example. Under our operation <img src=./images/hexagon_symbol.png style=width:14px;height:14px> we can make every other number using just 1: 2 = 1 <img src=./images/hexagon_symbol.png style=width:14px;height:14px> 1, 3 = 1 <img src=./images/hexagon_symbol.png style=width:14px;height:14px> 1 <img src=./images/hexagon_symbol.png style=width:14px;height:14px> 1, 4 = 1 <img src=./images/hexagon_symbol.png style=width:14px;height:14px> 1 <img src=./images/hexagon_symbol.png style=width:14px;height:14px> 1 <img src=./images/hexagon_symbol.png style=width:14px;height:14px> 1, 5 = 1 <img src=./images/hexagon_symbol.png style=width:14px;height:14px> 1 <img src=./images/h exagon_s ymbol.png style=width:14px;height:14px> 1 <img src=./images/hexagon_symbol.png style=width:14px;height:14px> 1 <img src=./images/hexagon_symbol.png style=width:14px;height:14px> 1, and 0 = 1 <img src=./images/hexagon_symbol.png style=width:14px;height:14px> 1 <img src=./images/hexagon_symbol.png style=width:14px;height:14px> 1 <img src=./images/hexagon_symbol.png style=width:14px;height:14px> 1 <img src=./images/hexagon_symbol.png style=width:14px;height:14px> 1 <img src=./images/hexagon_symbol.png style=width:14px;height:14px> 1. Because 1 can make every other element under <img src=./images/hexagon_symbol.png style=width:14px;height:14px>, we say that 1 is a <i>generator</i> under <img src=./images/hexagon_symbol.png style=width:14px;height:14px>. <br /><br /> However, 2 is not a generator under <img src=./images/hexagon_symbol.png style=width:14px;height:14px>, because 4 = 2 <img src=. /images/ hexagon_symbol.png style=width:14px;height:14px> 2, and 0 = 2 <img src=./images/hexagon_symbol.png style=width:14px;height:14px> 2 <img src=./images/hexagon_symbol.png style=width:14px;height:14px> 2, but there is no way to make 1, 3, or 5 using just 2.","orientation_history":[0],"rt":176987,"trial_type":"polygon-arrow-instructions","trial_index":0,"trial_index_global":36,"time_elapsed":618309,"internal_chunk_id":"0-0"},{"nsides":6,"question":"Now you try! Is 3 a generator under <img src=./images/hexagon_symbol.png style=width:14px;height:14px>? <br /><br /> (Remember, a generator is an element which can make every other element.)","response_type":"multi","response_choices":["Yes","No"],"correct_response":"No","response":"No","explain":false,"explanation":"","explanation_history":[],"orientation_history":[[0]],"response_history":["No"],"rt":6683,"trial_type":"polygon-arrow-question","trial_index":0,"trial_index_global":37,"time_elapsed":624998,"internal_chunk_id":"0-0.10-0"},{"nsides":6,"feedback":"Correct! 3 is not a generator under <img src=./images/hexagon_symbol.png style=width:14px;height:14px>, because 3 = 3, 0 = 3 <img src=./images/hexagon_symbol.png style=width:14px;height:14px> 3, but there is no way to make 1, 2, 4, or 5 using just 3.","orientation_history":[0],"rt":2071,"trial_type":"polygon-arrow-feedback","trial_index":0,"trial_index_global":38,"time_elapsed":627073,"internal_chunk_id":"0-0.10-0"},{"nsides":6,"question":"Is 5 a generator under <img src=./images/hexagon_symbol.png style=width:14px;height:14px>? <br /><br /> (Remember, a generator is an element which can make every other element.)","response_type":"multi","response_choices":["Yes","No"],"correct_response":"Yes","response":"No","explain":false,"explanation":"","explanation_history":[],"orientation_history":[[0]],"response_history":["No"],"rt":1961,"trial_type":"polygon-arrow-question","trial_index":0,"trial_index_global":39,"time_elapsed":629036,"internal_chunk_id":"0-0.10-0"},{"nsides":6,"feedback":"Sorry, that's incorrect. 5 is a generator under <img src=./images/hexagon_symbol.png style=width:14px;height:14px>, because 5 = 5, 4 = 5 <img src=./images/hexagon_symbol.png style=width:14px;height:14px> 5, 3 = 5 <img src=./images/hexagon_symbol.png style=width:14px;height:14px> 5 <img src=./images/hexagon_symbol.png style=width:14px;height:14px> 5, 2 = 5 <img src=./images/hexagon_symbol.png style=width:14px;height:14px> 5 <img src=./images/hexagon_symbol.png style=width:14px;height:14px> 5 <img src=./images/hexagon_symbol.png style=width:14px;height:14px> 5, 1 = 5 <img src=./images/hexagon_symbol.png style=width:14px;height:14px> 5 <img src=./images/hexagon_symbol.png style=width:14px;height:14px> 5 <img src=./images/hexagon_symbol.png style=width:14px;height:14px> 5 <img src=./images/hexagon_symbol.png style=width:14p x;height :14px> 5, and 0 = 5 <img src=./images/hexagon_symbol.png style=width:14px;height:14px> 5 <img src=./images/hexagon_symbol.png style=width:14px;height:14px> 5 <img src=./images/hexagon_symbol.png style=width:14px;height:14px> 5 <img src=./images/hexagon_symbol.png style=width:14px;height:14px> 5 <img src=./images/hexagon_symbol.png style=width:14px;height:14px> 5, so you can make all of the numbers under <img src=./images/hexagon_symbol.png style=width:14px;height:14px> using 5","orientation_history":[0],"rt":8278,"trial_type":"polygon-arrow-feedback","trial_index":0,"trial_index_global":40,"time_elapsed":637319,"internal_chunk_id":"0-0.10-0"},{"nsides":6,"question":"Is 4 a generator under <img src=./images/hexagon_symbol.png style=width:14px;height:14px>? <br /><br /> (Remember, a generator is an element which can make every other element.)","response_type":"multi","response_choices":["Yes","No"],"correct_response":"N o","response":"No","explain":false,"explanation":"","explanation_history":[],"orientation_history":[[0]],"response_history":["No"],"rt":4882,"trial_type":"polygon-arrow-question","trial_index":0,"trial_index_global":41,"time_elapsed":642205,"internal_chunk_id":"0-0.10-0"},{"nsides":6,"feedback":"Correct! 4 is not a generator under <img src=./images/hexagon_symbol.png style=width:14px;height:14px>, because 4 = 4, 2 = 4 <img src=./images/hexagon_symbol.png style=width:14px;height:14px> 4, and 0 = 4 <img src=./images/hexagon_symbol.png style=width:14px;height:14px> 4 <img src=./images/hexagon_symbol.png style=width:14px;height:14px> 4, but there is no way to make 1, 3, or 5 using just 4.","orientation_history":[0],"rt":956,"trial_type":"polygon-arrow-feedback","trial_index":0,"trial_index_global":42,"time_elapsed":643165,"internal_chunk_id":"0-0.10-0"},{"nsides":6,"question":"Is 0 a generator under <img src=./images/hexagon_symbol.png style=width:1 4px;heig ht:14px>? <br /><br /> (Remember, a generator is an element which can make every other element.)","response_type":"multi","response_choices":["Yes","No"],"correct_response":"No","response":"Yes","explain":false,"explanation":"","explanation_history":[],"orientation_history":[[0]],"response_history":["Yes"],"rt":4703,"trial_type":"polygon-arrow-question","trial_index":0,"trial_index_global":43,"time_elapsed":647869,"internal_chunk_id":"0-0.10-0"},{"nsides":6,"feedback":"Sorry, that's incorrect. 0 is not a generator under <img src=./images/hexagon_symbol.png style=width:14px;height:14px>, because 0 = 0, but there is no way to make 1, 2, 3, 4, or 5 using just 0.","orientation_history":[0],"rt":1113,"trial_type":"polygon-arrow-feedback","trial_index":0,"trial_index_global":44,"time_elapsed":648985,"internal_chunk_id":"0-0.10-0"},{"nsides":9,"instructions":"Now we are going to ask you some questions about a new operation, <img src=./images/nonagon_symbol.png style=width:1 4px;height:14px>, on the numbers 0, 1, 2, 3, 4, 5, 6, 7, 8. It works exactly like <img src=./images/hexagon_symbol.png style=width:14px;height:14px>, except now you use the nonagon shown at the right. Equivalently, after adding the two numbers you subtract 9 if your result is 9 or greater.<br /><br />Do you see how the different ways of performing <img src=./images/nonagon_symbol.png style=width:14px;height:14px> give the same result, just like with <img src=./images/hexagon_symbol.png style=width:14px;height:14px>? By labeling the points of the nonagon with the numbers from 0 to 8, we ensure that when we combine two numbers under <img src=./images/nonagon_symbol.png style=width:14px;height:14px>, we only produce numbers between 0 and 8. When we use the arithmetic strategy, adding the second number to the first mimics counting around the nonagon, and subtracting 9 each time we get above 8 makes sure the results correspond to the numbers on t he point s of the nonagon.<br /><br />We'll give you one practice question with feedback to make sure you understand the new operation. After that, try to complete the remaining questions as accurately as possible.","orientation_history":[0],"rt":23908,"trial_type":"polygon-arrow-instructions","trial_index":0,"trial_index_global":45,"time_elapsed":672896,"internal_chunk_id":"0-0"},{"nsides":9,"question":"Practice: What is 5 <img src=./images/nonagon_symbol.png style=width:14px;height:14px> 5?","response_type":"free","response_choices":[],"correct_response":"1","response":"1","explain":false,"explanation":"","explanation_history":[],"orientation_history":[[0]],"response_history":["1"],"rt":5002,"trial_type":"polygon-arrow-question","trial_index":0,"trial_index_global":46,"time_elapsed":677902,"internal_chunk_id":"0-0.12-0"},{"nsides":9,"feedback":"Correct! 5 <img src=./images/nonagon_symbol.png style=width:14px;height:14px> 5 = 1 because 5 steps clockwise on the nonago n from 5  brings us to 1. Equivalently, 5 + 5 = 10 and 10 - 9 = 1.","orientation_history":[0],"rt":1618,"trial_type":"polygon-arrow-feedback","trial_index":0,"trial_index_global":47,"time_elapsed":679524,"internal_chunk_id":"0-0.12-0"},{"nsides":9,"question":"What is 3 <img src=./images/nonagon_symbol.png style=width:14px;height:14px> 3?","response_type":"free","response_choices":[],"correct_response":"6","response":"6","explain":false,"explanation":"","explanation_history":[],"orientation_history":[[0]],"response_history":["6"],"rt":3413,"trial_type":"polygon-arrow-question","trial_index":0,"trial_index_global":48,"time_elapsed":682941,"internal_chunk_id":"0-0.12-0"},{"nsides":9,"question":"What is 7 <img src=./images/nonagon_symbol.png style=width:14px;height:14px> 4?","response_type":"free","response_choices":[],"correct_response":"2","response":"2","explain":false,"explanation":"","explanation_history":[],"orientation_history":[[0]],"response_history":["2"],"rt":4294,"trial_type":"polygon-arrow-question","trial_index":0,"trial_index_global":49,"time_elapsed":687239,"internal_chunk_id":"0-0.12-0"},{"nsides":9,"question":"What is 1 <img src=./images/nonagon_symbol.png style=width:14px;height:14px> 8?","response_type":"free","response_choices":[],"correct_response":"0","response":"0","explain":false,"explanation":"","explanation_history":[],"orientation_history":[[0]],"response_history":["0"],"rt":3185,"trial_type":"polygon-arrow-question","trial_index":0,"trial_index_global":50,"time_elapsed":690429,"internal_chunk_id":"0-0.12-0"},{"nsides":9,"question":"What is 5 <img src=./images/nonagon_symbol.png style=width:14px;height:14px> 4?","response_type":"free","response_choices":[],"correct_response":"0","response":"0","explain":false,"explanation":"","explanation_history":[],"orientation_history":[[0]],"response_history":["0"],"rt":3956,"trial_type":"polygon-arrow-question","trial_index":0,"trial_index_global":51,"time_elapsed":694387,"internal_chunk_id":"0-0.12-0"},{"nsides":9,"question":"What is 6 <img src=./images/nonagon_symbol.png style=width:14px;height:14px> 6?","response_type":"free","response_choices":[],"correct_response":"3","response":"3","explain":false,"explanation":"","explanation_history":[],"orientation_history":[[0]],"response_history":["3"],"rt":3258,"trial_type":"polygon-arrow-question","trial_index":0,"trial_index_global":52,"time_elapsed":697648,"internal_chunk_id":"0-0.12-0"},{"nsides":9,"instructions":"On the following question, and several others later in the HIT, we will ask you to explain how you got your answer. On these questions, you will be given one box for your answer to the question, and a second for your explanation. Please explain your thought process in as much detail as possible (at least one sentence, and more if you can).","orientation_history":[0],"rt":24606,"trial_type":"polygon-arrow-instructions","trial_index":0,"trial_index_global":53,"time_elapsed":722256,"internal_chunk_id":"0-0.12-0"},{"nsides":9,"question":"What is 4 <img src=./images/nonagon_symbol.png style=width:14px;height:14px> 1? Please explain in words how you got your answer.","response_type":"free","response_choices":[],"correct_response":"5","response":"5","explain":true,"explanation":"I added the numbers together, and since it came out to less than 9 I knew that was the answer. ","explanation_history":["I added the numbers together, and since it came out to less thn","I added the numbers together, and since it came out to less than 9 I knew that tha","I added the numbers together, and since it came out to less than 9 I knew that th","I added the numbers together, and since it came out to less than 9 I knew that t","I added the numbers together, and since it came out to less than 9 I knew that was the answere","I added the numbers together, and since it came out to less than 9 I knew that was the answer. "],"orientation_history":[[0]],"response_history":["5"],"rt":30194,"trial_type":"polygon-arrow-question","trial_index":0,"trial_index_global":54,"time_elapsed":752455,"internal_chunk_id":"0-0.12-0"},{"nsides":9,"question":"What is 8 <img src=./images/nonagon_symbol.png style=width:14px;height:14px> 4? Please explain in words how you got your answer.","response_type":"free","response_choices":[],"correct_response":"3","response":"3","explain":true,"explanation":"I added the two numbers, and came to 12. Since 12 is greater than 9 I subtracted 9 from 12 to get 3.","explanation_history":["3","I added the two numbers, and sin","I added the two numbers, and si","I added the two numbers, and s","I added the two numbers, and s","I added the two numbers, and came to 12. Since 12 is great ","I added the two numbers, and came to 12. Since 12 is greater than 9 I subs","I added the two numbers, and came to 12. Since 12 is greater than 9 I subtrace","I added the two numbers, and came to 12. Since 12 is greater than 9 I subtracted 9 from 12 to ge t 3."],"orientation_history":[[0]],"response_history":["3"],"rt":40122,"trial_type":"polygon-arrow-question","trial_index":0,"trial_index_global":55,"time_elapsed":792582,"internal_chunk_id":"0-0.12-0"},{"nsides":9,"question":"What is the identity under <img src=./images/nonagon_symbol.png style=width:14px;height:14px>? Please explain in words how you got your answer.","response_type":"free","response_choices":[],"correct_response":"0","response":"0","explain":true,"explanation":"Combining zero with any other number always gives the same number back. ","explanation_history":["Wh","W","Combining zero with any other number always give ","Combining zero with any other number always gives the same number as the asn","Combining zero with any other number always gives the same number as ","Combining zero with any other number always gives the same number as","Combining zero with any other number always gives the same number a","Combining zero with any other number always gives the  same nu mber back, ","Combining zero with any other number always gives the same number back,","Combining zero with any other number always gives the same number back. "],"orientation_history":[[0]],"response_history":["0"],"rt":65695,"trial_type":"polygon-arrow-question","trial_index":0,"trial_index_global":56,"time_elapsed":858282,"internal_chunk_id":"0-0.12-0"},{"nsides":9,"question":"What is the inverse of 5 under <img src=./images/nonagon_symbol.png style=width:14px;height:14px>?","response_type":"free","response_choices":[],"correct_response":"4","response":"4","explain":false,"explanation":"","explanation_history":[],"orientation_history":[[0]],"response_history":["4"],"rt":88354,"trial_type":"polygon-arrow-question","trial_index":0,"trial_index_global":57,"time_elapsed":946643,"internal_chunk_id":"0-0.12-0"},{"nsides":9,"question":"What is the inverse of 2 under <img src=./images/nonagon_symbol.png style=width:14px;height:14px>?","response_type":"free","response_choices":[],"correct_response":"7","response":"7","explain":false,"explanation":"","explanation_history":[],"orientation_history":[[0]],"response_history":["7"],"rt":4911,"trial_type":"polygon-arrow-question","trial_index":0,"trial_index_global":58,"time_elapsed":951560,"internal_chunk_id":"0-0.12-0"},{"nsides":9,"question":"What is the inverse of 0 under <img src=./images/nonagon_symbol.png style=width:14px;height:14px>?","response_type":"free","response_choices":[],"correct_response":"0","response":"9","explain":false,"explanation":"","explanation_history":[],"orientation_history":[[0]],"response_history":["9"],"rt":4003,"trial_type":"polygon-arrow-question","trial_index":0,"trial_index_global":59,"time_elapsed":955567,"internal_chunk_id":"0-0.12-0"},{"nsides":9,"question":"What is the inverse of 3 under <img src=./images/nonagon_symbol.png style=width:14px;height:14px>? Please explain in words how you got your answer.","response_type":"free","response_choices":[],"correct_response":"6","response":"6","explain":true,"explanation":"Since 0 is the identity number, that's what I'm looking for. So with 3 I can tell that adding 6 will force me to minus 9 and reach 0.","explanation_history":["Since 0 is the identity number, I know that 3 added to nin","Since 0 is the identity number, I know that 3 added to ni","Since 0 is the identity number, I know that 3 added to n","Since 0 is the identity number, I know that 3 added to 9 will ","Since 0 is the identity number, I know that 3 added to 9 will","Since 0 is the identity number, I know that 3 added to 9 wil","Since 0 is the identity number, I know that 3 added to 9 will give me 0 ","Since 0 is the identity number, I know that 3 added to 9 will give me 0","Since 0 is the identity number, I know ","Since 0 is the identity number, that's what I'm looking for. So I ","Since 0 is the identity number, that's what I'm looking for. So I","Since 0 is the identity number, that's what I'm looking for. So wi th 3 I c an tell that adding 6 un","Since 0 is the identity number, that's what I'm looking for. So with 3 I can tell that adding 6 u","Since 0 is the identity number, that's what I'm looking for. So with 3 I can tell that adding 6 will force me to minus 9 and reach 0."],"orientation_history":[[0]],"response_history":["6"],"rt":59807,"trial_type":"polygon-arrow-question","trial_index":0,"trial_index_global":60,"time_elapsed":1015379,"internal_chunk_id":"0-0.12-0"},{"nsides":9,"question":"Is 2 a generator under <img src=./images/nonagon_symbol.png style=width:14px;height:14px>? Please explain in words how you got your answer.","response_type":"multi","response_choices":["Yes","No"],"correct_response":"Yes","response":"No","explain":true,"explanation":"Two cannot be a generator because there is no way to reach zero in successive operations. ","explanation_history":["Usin","2 ","2","Two cannot be a generator because there is no way to reach 9","Two cannot be a generator because  there is  no way to reach zero in sus","Two cannot be a generator because there is no way to reach zero in succesive operations. ","Two cannot be a generator because there is no way to reach zero in successive operations. "],"orientation_history":[[0]],"response_history":["No"],"rt":275160,"trial_type":"polygon-arrow-question","trial_index":0,"trial_index_global":61,"time_elapsed":1290545,"internal_chunk_id":"0-0.12-0"},{"nsides":9,"question":"Is 3 a generator under <img src=./images/nonagon_symbol.png style=width:14px;height:14px>? Please explain in words how you got your answer.","response_type":"multi","response_choices":["Yes","No"],"correct_response":"No","response":"No","explain":true,"explanation":"There are multiple numbers that cannot be reached using successive operations and the number 3.","explanation_history":["There are multiple nubme","There are multiple nubm","There are multiple nubm","There are multiple nub","There are multiple numbers tha","There are multipl e number s th","There are multiple numbers t","There are multiple numbers that cannot be reached using successive operations and the number 3."],"orientation_history":[[0]],"response_history":["No"],"rt":48140,"trial_type":"polygon-arrow-question","trial_index":0,"trial_index_global":62,"time_elapsed":1338691,"internal_chunk_id":"0-0.12-0"},{"nsides":9,"question":"Is 5 a generator under <img src=./images/nonagon_symbol.png style=width:14px;height:14px>? Please explain in words how you got your answer.","response_type":"multi","response_choices":["Yes","No"],"correct_response":"Yes","response":"No","explain":true,"explanation":"Using the operation on 5 successively does not generate all the numbers under 9.","explanation_history":["Multiplying 5","Using the operation on 5 successil","Using the operation on 5 successib","Using the operation on 5 successively skips a ","Using the operation on 5 successively skips a","Using the operation on 5 successively skips ","Using the opera tion on  5 successively does not ger","Using the operation on 5 successively does not generate all the numbers under 9."],"orientation_history":[[0]],"response_history":["No"],"rt":103729,"trial_type":"polygon-arrow-question","trial_index":0,"trial_index_global":63,"time_elapsed":1442426,"internal_chunk_id":"0-0.12-0"},{"nsides":9,"question":"Is 6 a generator under <img src=./images/nonagon_symbol.png style=width:14px;height:14px>? Please explain in words how you got your answer.","response_type":"multi","response_choices":["Yes","No"],"correct_response":"No","response":"No","explain":true,"explanation":"Performing successive operations on 6 under the nine operation doesn't create every answer under 9.","explanation_history":["Pers","Performing successive operations on 6 under the nince","Performing successive operations on 6 under the ninc","Performing successive operations on 6 under the nine po","Performing successive operations on 6 under the nine p","Performing successiv e operat ions on 6 under the nine operation doesn't create every answer under 9."],"orientation_history":[[0]],"response_history":["No"],"rt":68174,"trial_type":"polygon-arrow-question","trial_index":0,"trial_index_global":64,"time_elapsed":1510606,"internal_chunk_id":"0-0.12-0"},{"nsides":"n","instructions":"Now we'd like to ask you some questions about <img src=./images/ngon_symbol.png style=width:14px;height:14px>, where n could be any postive counting number. For example, n could be 3, and the polygon a triangle, or n could be any other counting number you can think of, in which case the corresponding polygon would have n sides. Just as before, you can use either the polygon or arithmetic methods. If you need to write the operation, you can use (n), and your answers can include n to stand in for the arbitrary value if necessary. (You can use the polygon at the right to think, but it doesn't necessarily correspond to the real polygon, which is why we've left most of it  dashed. )","orientation_history":[0],"rt":101679,"trial_type":"polygon-arrow-instructions","trial_index":0,"trial_index_global":65,"time_elapsed":1612291,"internal_chunk_id":"0-0"},{"nsides":"n","question":"What is the formula for the inverse of 1 under <img src=./images/ngon_symbol.png style=width:14px;height:14px>?","response_type":"free","response_choices":[],"correct_response":"n-1","response":"(n)-1","explain":false,"explanation":"","explanation_history":[],"orientation_history":[[0]],"response_history":["9n","9","(n)-1"],"rt":149801,"trial_type":"polygon-arrow-question","trial_index":0,"trial_index_global":66,"time_elapsed":1762097,"internal_chunk_id":"0-0.14-0"},{"nsides":"n","question":"What is the formula for the inverse of an element x under <img src=./images/ngon_symbol.png style=width:14px;height:14px>? Please explain in words how you got your answer.","response_type":"free","response_choices":[],"correct_response":"n-x","response":"n-x","explain":true,"explanation":"Whatever n is, subtracting x from it will give you the inverse number. ","explanation_history":["Whatever n is, subr","Whatever n is, subtracting x from it will give t","Whatever n is, subtracting x from it will give you the inverse un","Whatever n is, subtracting x from it will give you the inverse u","Whatever n is, subtracting x from it will give you the inverse number. "],"orientation_history":[[0]],"response_history":["x=","x","x =","x ","x+ =0","x+y=n","n-3","n-x"],"rt":232934,"trial_type":"polygon-arrow-question","trial_index":0,"trial_index_global":67,"time_elapsed":1995037,"internal_chunk_id":"0-0.14-0"},{"nsides":"n","question":"Is there a pattern to which elements are generators? How can you know if an element x is a generator under <img src=./images/ngon_symbol.png style=width:14px;height:14px> without seeing whether it can make all the elements?.","response_type":"free","response_choices":[],"correct_response":"","response":"I'm sure there is a patt ern, but  I personally don't know what it is and can't think of what it would be. ","explain":false,"explanation":"","explanation_history":[],"orientation_history":[[0]],"response_history":["I'm sure there is a pattern, but I personally don't know what it is and can't think of what i ","I'm sure there is a pattern, but I personally don't know what it is and can't think of what it would m","I'm sure there is a pattern, but I personally don't know what it is and can't think of what it would ","I'm sure there is a pattern, but I personally don't know what it is and can't think of what it wouldb","I'm sure there is a pattern, but I personally don't know what it is and can't think of what it would be. "],"rt":93221,"trial_type":"polygon-arrow-question","trial_index":0,"trial_index_global":68,"time_elapsed":2088263,"internal_chunk_id":"0-0.14-0"},{"nsides":"n","question":"True or false: If x is an odd number, it must be a generator under <img src=./images/ngon_symbol.png style=width: 14px;hei ght:14px>.","response_type":"multi","response_choices":["True","False"],"correct_response":"False","response":"False","explain":false,"explanation":"","explanation_history":[],"orientation_history":[[0]],"response_history":["False"],"rt":7802,"trial_type":"polygon-arrow-question","trial_index":0,"trial_index_global":69,"time_elapsed":2096070,"internal_chunk_id":"0-0.14-0"},{"nsides":"n","question":"True or false: If x is an even number, it must not be a generator under <img src=./images/ngon_symbol.png style=width:14px;height:14px>.","response_type":"multi","response_choices":["True","False"],"correct_response":"False","response":"False","explain":false,"explanation":"","explanation_history":[],"orientation_history":[[0]],"response_history":["True","False"],"rt":9036,"trial_type":"polygon-arrow-question","trial_index":0,"trial_index_global":70,"time_elapsed":2105111,"internal_chunk_id":"0-0.14-0"},{"nsides":"n","question":"True or false: If x is not a generator und er <img  src=./images/ngon_symbol.png style=width:14px;height:14px>, x must be a divisor of n, that is, x must divide n evenly, with no remainder.","response_type":"multi","response_choices":["True","False"],"correct_response":"False","response":"True","explain":false,"explanation":"","explanation_history":[],"orientation_history":[[0]],"response_history":["True"],"rt":12462,"trial_type":"polygon-arrow-question","trial_index":0,"trial_index_global":71,"time_elapsed":2117578,"internal_chunk_id":"0-0.14-0"},{"nsides":"n","question":"True or false: If x is not a generator under <img src=./images/ngon_symbol.png style=width:14px;height:14px>, x must be a multiple of a divisor of n. Please explain in words how you got your answer.","response_type":"multi","response_choices":["True","False"],"correct_response":"True","response":"False","explain":true,"explanation":"If x is not a generator, then it doesn't have to be a multiple of a divisor of n. I'm not exactly sure of my a nswer he re, but I think there are many reasons why X might not be a generator besides it being a multiple of a divisor of n. ","explanation_history":["If a divi","A dis","A divisor of n ","If x is not a generator, then it doesn't have to be a multiple of a dii","If x is not a generator, then it doesn't have to be a multiple of a divisor of n. It can be ","If x is not a generator, then it doesn't have to be a multiple of a divisor of n. It can be ","If x is not a generator, then it doesn't have to be a multiple of a divisor of n. It can have nothing to do with ","If x is not a generator, then it doesn't have to be a multiple of a divisor of n. It ","If x is not a generator, then it doesn't have to be a multiple of a divisor of n. It","If x is not a generator, then it doesn't have to be a multiple of a divisor of n. I","If x is not a generator, then it doesn't have to be a multiple of a divisor of n. I'm not se","If x is not a generator, then it doesn't have to be a multiple of a divi sor of n . I'm not s","If x is not a generator, then it doesn't have to be a multiple of a divisor of n. I'm not exactul","If x is not a generator, then it doesn't have to be a multiple of a divisor of n. I'm not exactu","If x is not a generator, then it doesn't have to be a multiple of a divisor of n. I'm not exactly sure of my answer her, ","If x is not a generator, then it doesn't have to be a multiple of a divisor of n. I'm not exactly sure of my answer her,","If x is not a generator, then it doesn't have to be a multiple of a divisor of n. I'm not exactly sure of my answer her","If x is not a generator, then it doesn't have to be a multiple of a divisor of n. I'm not exactly sure of my answer here, but I t","If x is not a generator, then it doesn't have to be a multiple of a divisor of n. I'm not exactly sure of my answer here, but I think there are many reasons why X c","If x is not a generator, then it doesn't have to be a multiple of a divisor of n. I'm not exactly sure of my  answer  here, but I think there are many reasons why X might not be a gner","If x is not a generator, then it doesn't have to be a multiple of a divisor of n. I'm not exactly sure of my answer here, but I think there are many reasons why X might not be a gne","If x is not a generator, then it doesn't have to be a multiple of a divisor of n. I'm not exactly sure of my answer here, but I think there are many reasons why X might not be a gn","If x is not a generator, then it doesn't have to be a multiple of a divisor of n. I'm not exactly sure of my answer here, but I think there are many reasons why X might not be a generator ve","If x is not a generator, then it doesn't have to be a multiple of a divisor of n. I'm not exactly sure of my answer here, but I think there are many reasons why X might not be a generator v","If x is not a generator, then it doesn't have to be a multiple of a divisor of n. I'm not exactly sure of my answer here, but I think there are many reasons why X might  not be  a generator besic","If x is not a generator, then it doesn't have to be a multiple of a divisor of n. I'm not exactly sure of my answer here, but I think there are many reasons why X might not be a generator besides it being a multiple of a n","If x is not a generator, then it doesn't have to be a multiple of a divisor of n. I'm not exactly sure of my answer here, but I think there are many reasons why X might not be a generator besides it being a multiple of a divio","If x is not a generator, then it doesn't have to be a multiple of a divisor of n. I'm not exactly sure of my answer here, but I think there are many reasons why X might not be a generator besides it being a multiple of a divisor of n. "],"orientation_history":[[0]],"response_history":["False"],"rt":261915,"trial_type":"polygon-arrow-question","trial_index":0,"trial_index_global":72,"time_elapsed":2379498,"internal_chunk_id":"0-0.14-0"},{"nsides":"n","question":"If an element x is a generator under <img src=. /images/ ngon_symbol.png style=width:14px;height:14px>, is its inverse a generator under <img src=./images/ngon_symbol.png style=width:14px;height:14px> always, sometimes, or never?","response_type":"multi","response_choices":["Always","Sometimes","Never"],"correct_response":"Always","response":"Never","explain":false,"explanation":"","explanation_history":[],"orientation_history":[[0]],"response_history":["Never"],"rt":15620,"trial_type":"polygon-arrow-question","trial_index":0,"trial_index_global":73,"time_elapsed":2395124,"internal_chunk_id":"0-0.14-0"},{"nsides":"n","question":"if an element x is a generator under <img src=./images/ngon_symbol.png style=width:14px;height:14px>, is x <img src=./images/ngon_symbol.png style=width:14px;height:14px> x a generator under <img src=./images/ngon_symbol.png style=width:14px;height:14px> always, sometimes, or never? Please explain in words how you got your answer.","response_type":"multi","response_choices":[" Always","Sometimes","Never"],"correct_response":"Sometimes","response":"Sometimes","explain":true,"explanation":"Odd numbers doubled end up even, but I'm still not sure if an even number can be a generator. If it can than the answer should be sometimes.","explanation_history":["A number can be a genea","A number can be a generoat","A number can be a generoa","A number can be a genero","A number can be a generatro","A number can be a generatr","A number can be a generator and also ha