[{"nsides":6,"instructions":"Let's define a new operation <img src=./images/hexagon_symbol.png style=width:14px;height:14px>. This operation will give us a way of combining two of the numbers 0, 1, 2, 3, 4, 5 to get another one of them back. Consider the hexagon at the right, where I've labeled each point with one of the numbers. To perform <img src=./images/hexagon_symbol.png style=width:14px;height:14px>, you can use the interactive diagram on the right, or perform the operation in your mind. Point the arrow at the first number on the hexagon by clicking, then click (or click and drag) to move the arrow the second number of points clockwise around the hexagon. The number the arrow arrives at is your result. (The operation is called <img src=./images/hexagon_symbol.png style=width:14px;height:14px> because it uses the hexagon, which has 6 sides.) <br /><br />For example, 3 <img src=./images/hexagon_symbol.png style=width:14px;height:14px> 5 =  2, becau se 5 steps clockwise from 3 on the hexagon brings us to 2. So 3 <img src=./images/hexagon_symbol.png style=width:14px;height:14px> 5 = 2.<br /><br />Similarly, 1 <img src=./images/hexagon_symbol.png style=width:14px;height:14px> 4 = 5, because 4 steps clockwise from 1 brings us to 5. <br /><br />Click Continue when you're ready to move on.","orientation_history":[0,[1.0379524391755077,1.0379524391755077,1.0379524391755077,1.0379524391755077,1.0379524391755077,1.0379524391755077,1.0379524391755077,1.0379524391755077,1.0379524391755077,1.0379524391755077,1.0471975511965976],[2.0746233052361864,2.0746233052361864,2.0746233052361864,2.0746233052361864,2.0746233052361864,2.0746233052361864,2.0746233052361864,2.0943951023931953],[3.153220036546177,3.153220036546177,3.153220036546177,3.153220036546177,3.153220036546177,3.153220036546177,3.153220036546177,3.153220036546177,3.153220036546177,3.141592653589793],[4.171969480114106,4.171969480114106,4.171969480114106,4.171969480114106,4.171969480114106,4.171969480114106,4.171969480114106,4.171969480114106,4.1887902047863905],[5.231535094631212,5.231535094631212,5.231535094631212,5.231535094631212,5.231535094631212,5.231535094631212,5.231535094631212,5.231535094631212,5.231535094631212,5.235987755982988],[6.249864311301339,6.249864311301339,6.249864311301339,6.249864311301339,6.249864311301339,6.249864311301339,6.249864311301339,6.249864311301339,6.283185307179586],[3.164844276400256,3.141592653589793],[4.194607121772004,4.194607121772004,4.194607121772004,4.194607121772004,4.194607121772004,4.194607121772004,4.194607121772004,4.194607121772004,4.194607121772004,4.1887902047863905],[5.185514978515358,5.185514978515358,5.185514978515358,5.185514978515358,5.185514978515358,5.185514978515358,5.185514978515358,5.235987755982988],[6.149835053008034,6.149835053008034,6.149835053008034,6.149835053008034,6.149835053008034,6.149835053008034,6.283185307179586],[1.0931309444321473,1.0931309444321473,1.0931309444321473,1.0931309444321473,1.0471975511965976],[2.24076782982542,2.24076782982542,2.24076782982542,2.24076782982542,2.24076782982542,2.24076782982542,2.24076782982542,2.24076782982542,2.24076782982542,2.0943951023931953],[0.970255195415889,0.970255195415889,0.970255195415889,0.970255195415889,0.970255195415889,0.970255195415889,0.970255195415889,1.0471975511965976],[5.180731390572991,5.180731390572991,5.180731390572991,5.180731390572991,5.180731390572991,5.180731390572991,5.180731390572991,5.180731390572991,5.235987755982988]],"rt":39447,"trial_type":"polygon-arrow-instructions","trial_index":0,"trial_index_global":1,"time_elapsed":116152,"internal_chunk_id":"0-0"},{"nsides":6,"instructions":"Do you see how <img src=./images/hexagon_symbol.png style=width:14px;height:14px> works? By labeling the points of the hexagon with the numbers from 0 to 5, we ensure that when we combine two numbers under <img src=./images/hexagon_symbol.png style=width:14px;height:14px>,  we only  produce numbers between 0 and 5.<br /><br />Click Continue when you are ready to move on.","orientation_history":[0],"rt":8046,"trial_type":"polygon-arrow-instructions","trial_index":0,"trial_index_global":2,"time_elapsed":124207,"internal_chunk_id":"0-0"},{"nsides":6,"question":"Now try one on your own! What is 4 <img src=./images/hexagon_symbol.png style=width:14px;height:14px> 5? <br /><br /> (Remember, to perform <img src=./images/hexagon_symbol.png style=width:14px;height:14px>, you can use the interactive diagram on the right, or perform the operation in your mind. Point the arrow at the first number on the hexagon, then move the arrow the second number of points clockwise around the hexagon. The number the arrow arrives at is your result.)","response_type":"free","response_choices":[],"correct_response":"3","response":"3","explain":false,"explanation":"","explanation_history":[],"orientation_history":[[0],[4.178680788745428,4.178680788745428,4.178680788745428,4.178680788745428,4.178680788745428,4.178680788745428,4.178680788745428,4.1887902047863905],[5.245232868004079,5.245232868004079,5.245232868004079,5.245232868004079,5.245232868004079,5.245232868004079,5.246983303825685,5.235987755982988],[0.19933730498232394,0.19933730498232394,0.19933730498232394,0.19933730498232394,0.19933730498232394,0.19933730498232394,0.21320451938945428,0],[0.9544993893988253,0.9544993893988253,0.9609903253476285,0.9609903253476285,0.9609903253476285,0.9609903253476285,0.9609903253476285,0.9953716762596116,1.0471975511965976],[2.280581346955515,2.280581346955515,2.280581346955515,2.280581346955515,2.280581346955515,2.280581346955515,2.280581346955515,2.0943951023931953],[3.1198569467480004,3.1198569467480004,3.1198569467480004,3.1198569467480004,3.1198569467480004,3.1198569467480004,3.1198569467480004,3.141592653589793]],"response_history":["3"],"rt":15268,"trial_type":"polygon-arrow-question","trial_index":0,"trial_index_global":3,"time_elapsed":139481,"internal_chunk_id":"0-0.3-0"},{"nsides":6,"feedback":"Correct! 4 <img src=./images/hexagon_symbol.png style=width:14px;height:14px> 5 = 3 because 5 steps clockwise on the hexagon from 4 brings us to 3","orientation_history":[0],"rt":1697,"trial_type":"polygon-arrow-feedback","trial_index":0,"trial_index_global":4,"time_elapsed":141183,"internal_chunk_id":"0-0.3-0"},{"nsides":6,"question":"What is 3 <img src=./images/hexagon_symbol.png style=width:14px;height:14px> 2? <br /><br /> (Remember, to perform <img src=./images/hexagon_symbol.png style=width:14px;height:14px>, you can use the interactive diagram on the right, or perform the operation in your mind. Point the arrow at the first number on the hexagon, then move the arrow the second number of points clockwise around the hexagon. The number the arrow arrives at is your result.)","response_type":"free","response_choices":[],"correct_response":"5","response":"5","explain":false,"explanation":"","explanation_history":[],"orientation_history":[[0],[3.30674133100442,3.30674133100442,3.30674133100442,3.30674133100442,3.30674133100442,3.30674133100442,3.141592653589793],[4.20421636254936,4.20421636254936,4.20421636254936,4.20421636254936,4.20421636254936,4.20421636254936,4.1887902047863905],[5.216015276508786,5.216015276508786,5.216015276508786,5.216015276508786,5.216015276508786,5.180151792492607,5.235987755982988]],"response_history":["5"],"rt":6526,"trial_type":"polygon-arrow-question","trial_index":0,"trial_index_global":5,"time_elapsed":147710,"internal_chunk_id":"0-0.3-0"},{"nsides":6,"feedback":"Correct! 3 <img src=./images/hexagon_symbol.png style=width:14px;height:14px> 2 = 5 because 2 steps clockwise on the hexagon from 3 brings us to 5","orientation_history":[0],"rt":1110,"trial_type":"polygon-arrow-feedback","trial_index":0,"trial_index_global":6,"time_elapsed":148822,"internal_chunk_id":"0-0.3-0"},{"nsides":6,"question":"What is 1 <img src=./images/hexagon_symb ol.png  style=width:14px;height:14px> 5? <br /><br /> (Remember, to perform <img src=./images/hexagon_symbol.png style=width:14px;height:14px>, you can use the interactive diagram on the right, or perform the operation in your mind. Point the arrow at the first number on the hexagon, then move the arrow the second number of points clockwise around the hexagon. The number the arrow arrives at is your result.)","response_type":"free","response_choices":[],"correct_response":"0","response":"0","explain":false,"explanation":"","explanation_history":[],"orientation_history":[[0],[1.087670661977563,1.087670661977563,1.087670661977563,1.087670661977563,1.087670661977563,1.087670661977563,1.0471975511965976],[2.155240226504248,2.155240226504248,2.155240226504248,2.155240226504248,2.1836165289601377,2.0943951023931953],[3.2718040965541895,3.2718040965541895,3.2718040965541895,3.2718040965541895,3.2718040965541895,3.141592653589793],[4.116979104905957,4.116979104905957,4.116979104905957,4.116979104905957,4.116979104905957,4.116979104905957,4.1887902047863905],[5.318626644571722,5.318626644571722,5.318626644571722,5.318626644571722,5.318626644571722,5.318626644571722,5.235987755982988],[0.4953112310764203,0.4953112310764203,0.5001610537476824,0.5001610537476824,0.49681080150337076,0.49319565690269984,0]],"response_history":["0"],"rt":8072,"trial_type":"polygon-arrow-question","trial_index":0,"trial_index_global":7,"time_elapsed":156895,"internal_chunk_id":"0-0.3-0"},{"nsides":6,"feedback":"Correct! 1 <img src=./images/hexagon_symbol.png style=width:14px;height:14px> 5 = 0 because 5 steps clockwise on the hexagon from 1 brings us to 0","orientation_history":[0],"rt":1029,"trial_type":"polygon-arrow-feedback","trial_index":0,"trial_index_global":8,"time_elapsed":157926,"internal_chunk_id":"0-0.3-0"},{"nsides":6,"question":"What is 1 <img src=./images/hexagon_symbol.png style=width:14px;height:14px> 1? <br /><br /> (Remember, to perform <img src =./ima ges/hexagon_symbol.png style=width:14px;height:14px>, you can use the interactive diagram on the right, or perform the operation in your mind. Point the arrow at the first number on the hexagon, then move the arrow the second number of points clockwise around the hexagon. The number the arrow arrives at is your result.)","response_type":"free","response_choices":[],"correct_response":"2","response":"2","explain":false,"explanation":"","explanation_history":[],"orientation_history":[[0],[0.9760370693115438,0.9760370693115438,0.9760370693115438,0.9760370693115438,0.9760370693115438,0.9760370693115438,1.0471975511965976],[2.1870932641909677,2.1870932641909677,2.1870932641909677,2.1920408373249574,2.185045884776163,2.0943951023931953]],"response_history":["2"],"rt":5582,"trial_type":"polygon-arrow-question","trial_index":0,"trial_index_global":9,"time_elapsed":163510,"internal_chunk_id":"0-0.3-0"},{"nsides":6,"feedback":"Correct! 1 <img src=./images/hexagon_symbol.png  style= width:14px;height:14px> 1 = 2 because 1 step clockwise on the hexagon from 1 brings us to 2","orientation_history":[0],"rt":1174,"trial_type":"polygon-arrow-feedback","trial_index":0,"trial_index_global":10,"time_elapsed":164685,"internal_chunk_id":"0-0.3-0"},{"nsides":6,"question":"What is 3 <img src=./images/hexagon_symbol.png style=width:14px;height:14px> 0? <br /><br /> (Remember, to perform <img src=./images/hexagon_symbol.png style=width:14px;height:14px>, you can use the interactive diagram on the right, or perform the operation in your mind. Point the arrow at the first number on the hexagon, then move the arrow the second number of points clockwise around the hexagon. The number the arrow arrives at is your result.)","response_type":"free","response_choices":[],"correct_response":"3","response":"3","explain":false,"explanation":"","explanation_history":[],"orientation_history":[[0],[3.108271657711546,3.108271657711546,3.108271657711546,3.108271657711546,3.108271657711546,3.108271657711546,3.141592653589793]],"response_history":["3"],"rt":4414,"trial_type":"polygon-arrow-question","trial_index":0,"trial_index_global":11,"time_elapsed":169101,"internal_chunk_id":"0-0.3-0"},{"nsides":6,"feedback":"Correct! 3 <img src=./images/hexagon_symbol.png style=width:14px;height:14px> 0 = 3 because 0 steps clockwise on the hexagon from 3 brings us to 3","orientation_history":[0],"rt":1124,"trial_type":"polygon-arrow-feedback","trial_index":0,"trial_index_global":12,"time_elapsed":170226,"internal_chunk_id":"0-0.3-0"},{"nsides":6,"question":"What is 4 <img src=./images/hexagon_symbol.png style=width:14px;height:14px> 4? <br /><br /> (Remember, to perform <img src=./images/hexagon_symbol.png style=width:14px;height:14px>, you can use the interactive diagram on the right, or perform the operation in your mind. Point the arrow at the first number on the hexagon, then move the arrow the second number of points clockwise  around t he hexagon. The number the arrow arrives at is your result.)","response_type":"free","response_choices":[],"correct_response":"2","response":"2","explain":false,"explanation":"","explanation_history":[],"orientation_history":[[0],[4.217777819200903,4.217777819200903,4.217777819200903,4.217777819200903,4.209114549129957,4.204326156136973,4.1887902047863905],[2.122451309323443,2.122451309323443,2.122451309323443,2.122451309323443,2.1316971340472683,2.1316971340472683,2.1316971340472683,2.1316971340472683,2.0943951023931953]],"response_history":["2"],"rt":5239,"trial_type":"polygon-arrow-question","trial_index":0,"trial_index_global":13,"time_elapsed":175467,"internal_chunk_id":"0-0.3-0"},{"nsides":6,"feedback":"Correct! 4 <img src=./images/hexagon_symbol.png style=width:14px;height:14px> 4 = 2 because 4 steps clockwise on the hexagon from 4 brings us to 2","orientation_history":[0],"rt":1054,"trial_type":"polygon-arrow-feedback","trial_index":0,"trial_index_global":14,"time_elapsed":176523,"internal_chunk_id":"0-0.3-0"},{"nsides":6,"question":"What is 1 <img src=./images/hexagon_symbol.png style=width:14px;height:14px> 3? <br /><br /> (Remember, to perform <img src=./images/hexagon_symbol.png style=width:14px;height:14px>, you can use the interactive diagram on the right, or perform the operation in your mind. Point the arrow at the first number on the hexagon, then move the arrow the second number of points clockwise around the hexagon. The number the arrow arrives at is your result.)","response_type":"free","response_choices":[],"correct_response":"4","response":"4","explain":false,"explanation":"","explanation_history":[],"orientation_history":[[0],[1.1659045405098132,1.1659045405098132,1.1659045405098132,1.1659045405098132,1.1659045405098132,1.1659045405098132,1.0471975511965976],[4.026659469478403,4.026659469478403,4.026659469478403,4.026659469478403,4.026659469478403,4.1887902047863905]],"response_history":["4"],"rt":6702,"trial_type":"polygon-arrow-question","trial_index":0,"trial_index_global":15,"time_elapsed":183226,"internal_chunk_id":"0-0.3-0"},{"nsides":6,"feedback":"Correct! 1 <img src=./images/hexagon_symbol.png style=width:14px;height:14px> 3 = 4 because 3 steps clockwise on the hexagon from 1 brings us to 4","orientation_history":[0],"rt":1047,"trial_type":"polygon-arrow-feedback","trial_index":0,"trial_index_global":16,"time_elapsed":184274,"internal_chunk_id":"0-0.3-0"},{"nsides":6,"question":"What is 4 <img src=./images/hexagon_symbol.png style=width:14px;height:14px> 3? <br /><br /> (Remember, to perform <img src=./images/hexagon_symbol.png style=width:14px;height:14px>, you can use the interactive diagram on the right, or perform the operation in your mind. Point the arrow at the first number on the hexagon, then move the arrow the second number of points clockwise around the hexagon. The number the arrow arrives at is your result.)","response_type":"free","response_choices":[],"correct_response":"1","response":"1","explain":false,"explanation":"","explanation_history":[],"orientation_history":[[0],[3.788984793329722,3.788984793329722,3.788984793329722,3.788984793329722,3.788984793329722,3.788984793329722,4.1887902047863905],[1.1659045405098132,1.1659045405098132,1.1659045405098132,1.1659045405098132,1.1659045405098132,1.1659045405098132,1.0471975511965976]],"response_history":["1"],"rt":5110,"trial_type":"polygon-arrow-question","trial_index":0,"trial_index_global":17,"time_elapsed":189385,"internal_chunk_id":"0-0.3-0"},{"nsides":6,"feedback":"Correct! 4 <img src=./images/hexagon_symbol.png style=width:14px;height:14px> 3 = 1 because 3 steps clockwise on the hexagon from 4 brings us to 1","orientation_history":[0],"rt":832,"trial_type":"polygon-arrow-feedback","trial_index":0,"trial_index_global":18,"time_elapsed":190218,"internal_chunk_id":"0-0.3-0"},{"nsides":6,"question":"What is 0 <img src=./images/hexagon_symbol.png style= width: 14px;height:14px> 5? <br /><br /> (Remember, to perform <img src=./images/hexagon_symbol.png style=width:14px;height:14px>, you can use the interactive diagram on the right, or perform the operation in your mind. Point the arrow at the first number on the hexagon, then move the arrow the second number of points clockwise around the hexagon. The number the arrow arrives at is your result.)","response_type":"free","response_choices":[],"correct_response":"5","response":"5","explain":false,"explanation":"","explanation_history":[],"orientation_history":[[0],[5.2656833057069825,5.2656833057069825,5.2656833057069825,5.2656833057069825,5.2656833057069825,5.235987755982988]],"response_history":["5"],"rt":5046,"trial_type":"polygon-arrow-question","trial_index":0,"trial_index_global":19,"time_elapsed":195266,"internal_chunk_id":"0-0.3-0"},{"nsides":6,"feedback":"Correct! 0 <img src=./images/hexagon_symbol.png style=width:14px;height:14px> 5 = 5 because 5 steps cloc kwise on  the hexagon from 0 brings us to 5","orientation_history":[0],"rt":919,"trial_type":"polygon-arrow-feedback","trial_index":0,"trial_index_global":20,"time_elapsed":196186,"internal_chunk_id":"0-0.3-0"},{"nsides":6,"question":"What is 2 <img src=./images/hexagon_symbol.png style=width:14px;height:14px> 5? <br /><br /> (Remember, to perform <img src=./images/hexagon_symbol.png style=width:14px;height:14px>, you can use the interactive diagram on the right, or perform the operation in your mind. Point the arrow at the first number on the hexagon, then move the arrow the second number of points clockwise around the hexagon. The number the arrow arrives at is your result.)","response_type":"free","response_choices":[],"correct_response":"1","response":"1","explain":false,"explanation":"","explanation_history":[],"orientation_history":[[0],[2.084859892684524,2.084859892684524,2.084859892684524,2.084859892684524,2.084859892684524,2.084859892684524,2.0943951023931953]],"response_history":["1"],"rt":3665,"trial_type":"polygon-arrow-question","trial_index":0,"trial_index_global":21,"time_elapsed":199853,"internal_chunk_id":"0-0.3-0"},{"nsides":6,"feedback":"Correct! 2 <img src=./images/hexagon_symbol.png style=width:14px;height:14px> 5 = 1 because 5 steps clockwise on the hexagon from 2 brings us to 1","orientation_history":[0],"rt":945,"trial_type":"polygon-arrow-feedback","trial_index":0,"trial_index_global":22,"time_elapsed":200799,"internal_chunk_id":"0-0.3-0"},{"nsides":6,"instructions":"Now we're going to discuss a couple special properties of this new operation, <img src=./images/hexagon_symbol.png style=width:14px;height:14px> that we've learned. First, notice that the number 0 behaves in a special way under <img src=./images/hexagon_symbol.png style=width:14px;height:14px>. Whenever we combine 0 with anything else, we get that same thing back. We'll say that 0 is the <i>identity</i> under <img src=./images/hexag on_symbo l.png style=width:14px;height:14px>, because when you combine it with something it gives you that identical thing back.","orientation_history":[0],"rt":29277,"trial_type":"polygon-arrow-instructions","trial_index":0,"trial_index_global":23,"time_elapsed":230090,"internal_chunk_id":"0-0"},{"nsides":6,"instructions":"Now that we know 0 is the identity under <img src=./images/hexagon_symbol.png style=width:14px;height:14px>, we're going to make a new definition. We'll say that the <i>inverse</i> of a number is the element that you combine with it to produce the identity under our operation. For example, 5 <img src=./images/hexagon_symbol.png style=width:14px;height:14px> 1 = 0, so we say 1 is the inverse of 5 under <img src=./images/hexagon_symbol.png style=width:14px;height:14px>, (remember 0 is the identity under <img src=./images/hexagon_symbol.png style=width:14px;height:14px>). Similarly, 3 is its own inverse under <img src=./images/ hexagon_ symbol.png style=width:14px;height:14px>, because 3 <img src=./images/hexagon_symbol.png style=width:14px;height:14px> 3 = 0.","orientation_history":[0],"rt":19386,"trial_type":"polygon-arrow-instructions","trial_index":0,"trial_index_global":24,"time_elapsed":249478,"internal_chunk_id":"0-0"},{"nsides":6,"question":"Now you try! What is the inverse of 4 under <img src=./images/hexagon_symbol.png style=width:14px;height:14px>? <br /><br /> (Remember, the inverse of an element is the thing which you combine with it to produce the identity.)","response_type":"free","response_choices":[],"correct_response":"2","response":"2","explain":false,"explanation":"","explanation_history":[],"orientation_history":[[0]],"response_history":["2"],"rt":3892,"trial_type":"polygon-arrow-question","trial_index":0,"trial_index_global":25,"time_elapsed":253373,"internal_chunk_id":"0-0.7-0"},{"nsides":6,"feedback":"Correct! The inverse of 4 under <img src=./images/hexagon_s ymbol.pn g style=width:14px;height:14px> is 2 because 4 <img src=./images/hexagon_symbol.png style=width:14px;height:14px> 2 = 0, and 0 is the identity under <img src=./images/hexagon_symbol.png style=width:14px;height:14px>.","orientation_history":[0],"rt":830,"trial_type":"polygon-arrow-feedback","trial_index":0,"trial_index_global":26,"time_elapsed":254204,"internal_chunk_id":"0-0.7-0"},{"nsides":6,"question":"What is the inverse of 1 under <img src=./images/hexagon_symbol.png style=width:14px;height:14px>? <br /><br /> (Remember, the inverse of an element is the thing which you combine with it to produce the identity.)","response_type":"free","response_choices":[],"correct_response":"5","response":"5","explain":false,"explanation":"","explanation_history":[],"orientation_history":[[0]],"response_history":["5"],"rt":3238,"trial_type":"polygon-arrow-question","trial_index":0,"trial_index_global":27,"time_elapsed":257444,"internal_chunk_id":"0-0.7-0"},{"nsides":6,"feedback":"Correct! The inverse of 1 under <img src=./images/hexagon_symbol.png style=width:14px;height:14px> is 5 because 1 <img src=./images/hexagon_symbol.png style=width:14px;height:14px> 5 = 0, and 0 is the identity under <img src=./images/hexagon_symbol.png style=width:14px;height:14px>.","orientation_history":[0],"rt":751,"trial_type":"polygon-arrow-feedback","trial_index":0,"trial_index_global":28,"time_elapsed":258197,"internal_chunk_id":"0-0.7-0"},{"nsides":6,"question":"What is the inverse of 3 under <img src=./images/hexagon_symbol.png style=width:14px;height:14px>? <br /><br /> (Remember, the inverse of an element is the thing which you combine with it to produce the identity.)","response_type":"free","response_choices":[],"correct_response":"3","response":"3","explain":false,"explanation":"","explanation_history":[],"orientation_history":[[0]],"response_history":["3"],"rt":5246,"trial_type":"polygon-arrow-question","trial_index":0,"trial_index_global":29,"time_elapsed":263445,"internal_chunk_id":"0-0.7-0"},{"nsides":6,"feedback":"Correct! The inverse of 3 under <img src=./images/hexagon_symbol.png style=width:14px;height:14px> is 3 because 3 <img src=./images/hexagon_symbol.png style=width:14px;height:14px> 3 = 0, and 0 is the identity under <img src=./images/hexagon_symbol.png style=width:14px;height:14px>.","orientation_history":[0],"rt":791,"trial_type":"polygon-arrow-feedback","trial_index":0,"trial_index_global":30,"time_elapsed":264237,"internal_chunk_id":"0-0.7-0"},{"nsides":6,"question":"What is the inverse of 2 under <img src=./images/hexagon_symbol.png style=width:14px;height:14px>? <br /><br /> (Remember, the inverse of an element is the thing which you combine with it to produce the identity.)","response_type":"free","response_choices":[],"correct_response":"4","response":"4","explain":false,"explanation":"","explanation_history":[],"orientation_history":[[0]],"response_history":["4"],"rt":2614,"trial_type":"polygon-arrow-question","trial_index":0,"trial_index_global":31,"time_elapsed":266852,"internal_chunk_id":"0-0.7-0"},{"nsides":6,"feedback":"Correct! The inverse of 2 under <img src=./images/hexagon_symbol.png style=width:14px;height:14px> is 4 because 2 <img src=./images/hexagon_symbol.png style=width:14px;height:14px> 4 = 0, and 0 is the identity under <img src=./images/hexagon_symbol.png style=width:14px;height:14px>.","orientation_history":[0],"rt":615,"trial_type":"polygon-arrow-feedback","trial_index":0,"trial_index_global":32,"time_elapsed":267469,"internal_chunk_id":"0-0.7-0"},{"nsides":6,"question":"What is the inverse of 0 under <img src=./images/hexagon_symbol.png style=width:14px;height:14px>? <br /><br /> (Remember, the inverse of an element is the thing which you combine with it to produce the identity.)","response_type":"free","response_choices":[],"correct_response":"0","response":"0","explain":false,"explanation":"","explanation_history":[],"orientation_history":[[0]],"response_history":["0"],"rt":4503,"trial_type":"polygon-arrow-question","trial_index":0,"trial_index_global":33,"time_elapsed":271973,"internal_chunk_id":"0-0.7-0"},{"nsides":6,"feedback":"Correct! The inverse of 0 under <img src=./images/hexagon_symbol.png style=width:14px;height:14px> is 0 because 0 <img src=./images/hexagon_symbol.png style=width:14px;height:14px> 0 = 0, and 0 is the identity under <img src=./images/hexagon_symbol.png style=width:14px;height:14px>.","orientation_history":[0],"rt":1165,"trial_type":"polygon-arrow-feedback","trial_index":0,"trial_index_global":34,"time_elapsed":273140,"internal_chunk_id":"0-0.7-0"},{"instructions":"It is also possible to successively apply <img src=./images/hexagon_symbol.png style=width:14px;height:14px>, and the operation can simply be performed starting with the left-most pair. For example, 2 <img src=./images/ hexagon_ symbol.png style=width:14px;height:14px> 3 <img src=./images/hexagon_symbol.png style=width:14px;height:14px> 4 = 5 <img src=./images/hexagon_symbol.png style=width:14px;height:14px> 4 = 3.","rt":21083,"trial_type":"instructions","trial_index":0,"trial_index_global":35,"time_elapsed":294225,"internal_chunk_id":"0-0"},{"nsides":6,"instructions":"We have one last definition to learn today, using the successive operations we just learned. Let's start with an example. Under our operation <img src=./images/hexagon_symbol.png style=width:14px;height:14px> we can make every other number using just 1: 2 = 1 <img src=./images/hexagon_symbol.png style=width:14px;height:14px> 1, 3 = 1 <img src=./images/hexagon_symbol.png style=width:14px;height:14px> 1 <img src=./images/hexagon_symbol.png style=width:14px;height:14px> 1, 4 = 1 <img src=./images/hexagon_symbol.png style=width:14px;height:14px> 1 <img src=./images/hexagon_sy mbol.png  style=width:14px;height:14px> 1 <img src=./images/hexagon_symbol.png style=width:14px;height:14px> 1, 5 = 1 <img src=./images/hexagon_symbol.png style=width:14px;height:14px> 1 <img src=./images/hexagon_symbol.png style=width:14px;height:14px> 1 <img src=./images/hexagon_symbol.png style=width:14px;height:14px> 1 <img src=./images/hexagon_symbol.png style=width:14px;height:14px> 1, and 0 = 1 <img src=./images/hexagon_symbol.png style=width:14px;height:14px> 1 <img src=./images/hexagon_symbol.png style=width:14px;height:14px> 1 <img src=./images/hexagon_symbol.png style=width:14px;height:14px> 1 <img src=./images/hexagon_symbol.png style=width:14px;height:14px> 1 <img src=./images/hexagon_symbol.png style=width:14px;height:14px> 1. Because 1 can make every other element under <img src=./images/hexagon_symbol.png style=width:14px;height:14px>, we say that 1 is a <i>generator</i> unde r <img s rc=./images/hexagon_symbol.png style=width:14px;height:14px>. <br /><br /> However, 2 is not a generator under <img src=./images/hexagon_symbol.png style=width:14px;height:14px>, because 4 = 2 <img src=./images/hexagon_symbol.png style=width:14px;height:14px> 2, and 0 = 2 <img src=./images/hexagon_symbol.png style=width:14px;height:14px> 2 <img src=./images/hexagon_symbol.png style=width:14px;height:14px> 2, but there is no way to make 1, 3, or 5 using just 2.","orientation_history":[0],"rt":42494,"trial_type":"polygon-arrow-instructions","trial_index":0,"trial_index_global":36,"time_elapsed":336721,"internal_chunk_id":"0-0"},{"nsides":6,"question":"Now you try! Is 3 a generator under <img src=./images/hexagon_symbol.png style=width:14px;height:14px>? <br /><br /> (Remember, a generator is an element which can make every other element.)","response_type":"multi","response_choices":["Yes","No"],"correct_response":"No","response":"No","explain":false,"explanation":"","explanation_history":[],"orientation_history":[[0]],"response_history":["No"],"rt":12517,"trial_type":"polygon-arrow-question","trial_index":0,"trial_index_global":37,"time_elapsed":349240,"internal_chunk_id":"0-0.10-0"},{"nsides":6,"feedback":"Correct! 3 is not a generator under <img src=./images/hexagon_symbol.png style=width:14px;height:14px>, because 3 = 3, 0 = 3 <img src=./images/hexagon_symbol.png style=width:14px;height:14px> 3, but there is no way to make 1, 2, 4, or 5 using just 3.","orientation_history":[0],"rt":885,"trial_type":"polygon-arrow-feedback","trial_index":0,"trial_index_global":38,"time_elapsed":350127,"internal_chunk_id":"0-0.10-0"},{"nsides":6,"question":"Is 5 a generator under <img src=./images/hexagon_symbol.png style=width:14px;height:14px>? <br /><br /> (Remember, a generator is an element which can make every other element.)","response_type":"multi","response_choices":["Yes","No"],"correct_response":"Yes","response":"No","explain":false,"explanation":"","explanation_history":[],"orientation_history":[[0]],"response_history":["No"],"rt":2060,"trial_type":"polygon-arrow-question","trial_index":0,"trial_index_global":39,"time_elapsed":352188,"internal_chunk_id":"0-0.10-0"},{"nsides":6,"feedback":"Sorry, that's incorrect. 5 is a generator under <img src=./images/hexagon_symbol.png style=width:14px;height:14px>, because 5 = 5, 4 = 5 <img src=./images/hexagon_symbol.png style=width:14px;height:14px> 5, 3 = 5 <img src=./images/hexagon_symbol.png style=width:14px;height:14px> 5 <img src=./images/hexagon_symbol.png style=width:14px;height:14px> 5, 2 = 5 <img src=./images/hexagon_symbol.png style=width:14px;height:14px> 5 <img src=./images/hexagon_symbol.png style=width:14px;height:14px> 5 <img src=./images/hexagon_symbol.png style=width:14px;height:14px> 5, 1 = 5 <img src=./images/hexagon_symbol.png style=width:14px;h eight:14 px> 5 <img src=./images/hexagon_symbol.png style=width:14px;height:14px> 5 <img src=./images/hexagon_symbol.png style=width:14px;height:14px> 5 <img src=./images/hexagon_symbol.png style=width:14px;height:14px> 5, and 0 = 5 <img src=./images/hexagon_symbol.png style=width:14px;height:14px> 5 <img src=./images/hexagon_symbol.png style=width:14px;height:14px> 5 <img src=./images/hexagon_symbol.png style=width:14px;height:14px> 5 <img src=./images/hexagon_symbol.png style=width:14px;height:14px> 5 <img src=./images/hexagon_symbol.png style=width:14px;height:14px> 5, so you can make all of the numbers under <img src=./images/hexagon_symbol.png style=width:14px;height:14px> using 5","orientation_history":[0],"rt":3127,"trial_type":"polygon-arrow-feedback","trial_index":0,"trial_index_global":40,"time_elapsed":355316,"internal_chunk_id":"0-0.10-0"},{"nsides":6,"question":"Is 4 a generator under <img src=./ images/h exagon_symbol.png style=width:14px;height:14px>? <br /><br /> (Remember, a generator is an element which can make every other element.)","response_type":"multi","response_choices":["Yes","No"],"correct_response":"No","response":"No","explain":false,"explanation":"","explanation_history":[],"orientation_history":[[0]],"response_history":["No"],"rt":3670,"trial_type":"polygon-arrow-question","trial_index":0,"trial_index_global":41,"time_elapsed":358988,"internal_chunk_id":"0-0.10-0"},{"nsides":6,"feedback":"Correct! 4 is not a generator under <img src=./images/hexagon_symbol.png style=width:14px;height:14px>, because 4 = 4, 2 = 4 <img src=./images/hexagon_symbol.png style=width:14px;height:14px> 4, and 0 = 4 <img src=./images/hexagon_symbol.png style=width:14px;height:14px> 4 <img src=./images/hexagon_symbol.png style=width:14px;height:14px> 4, but there is no way to make 1, 3, or 5 using just 4.","orientation_history":[0],"rt":1271,"trial_type":" polygon-arrow-feedback","trial_index":0,"trial_index_global":42,"time_elapsed":360260,"internal_chunk_id":"0-0.10-0"},{"nsides":6,"question":"Is 0 a generator under <img src=./images/hexagon_symbol.png style=width:14px;height:14px>? <br /><br /> (Remember, a generator is an element which can make every other element.)","response_type":"multi","response_choices":["Yes","No"],"correct_response":"No","response":"No","explain":false,"explanation":"","explanation_history":[],"orientation_history":[[0]],"response_history":["No"],"rt":4879,"trial_type":"polygon-arrow-question","trial_index":0,"trial_index_global":43,"time_elapsed":365140,"internal_chunk_id":"0-0.10-0"},{"nsides":6,"feedback":"Correct! 0 is not a generator under <img src=./images/hexagon_symbol.png style=width:14px;height:14px>, because 0 = 0, but there is no way to make 1, 2, 3, 4, or 5 using just 0.","orientation_history":[0],"rt":1199,"trial_type":"polygon-arrow-feedback","trial_index":0,"trial_index_global":44,"time_elapsed":366340,"internal_chunk_id":"0-0.10-0"},{"nsides":9,"instructions":"Now we are going to ask you some questions about a new operation, <img src=./images/nonagon_symbol.png style=width:14px;height:14px>, on the numbers 0, 1, 2, 3, 4, 5, 6, 7, 8. It works exactly like <img src=./images/hexagon_symbol.png style=width:14px;height:14px>, except now you use the nonagon shown at the right. <br /><br />Do you see how <img src=./images/nonagon_symbol.png style=width:14px;height:14px> works just like <img src=./images/hexagon_symbol.png style=width:14px;height:14px>? By labeling the points of the nonagon with the numbers from 0 to 8, we ensure that when we combine two numbers under <img src=./images/nonagon_symbol.png style=width:14px;height:14px>, we only produce numbers between 0 and 8. <br /><br />We'll give you one practice question with feedback to make sure you understand the new operation. After that, try to complete t he remai ning questions as accurately as possible.","orientation_history":[0],"rt":14542,"trial_type":"polygon-arrow-instructions","trial_index":0,"trial_index_global":45,"time_elapsed":380884,"internal_chunk_id":"0-0"},{"nsides":9,"question":"Practice: What is 5 <img src=./images/nonagon_symbol.png style=width:14px;height:14px> 5?","response_type":"free","response_choices":[],"correct_response":"1","response":"1","explain":false,"explanation":"","explanation_history":[],"orientation_history":[[0],[3.522099030702158,3.522099030702158,3.522099030702158,3.522099030702158,3.522099030702158,3.522099030702158,3.490658503988659]],"response_history":["1"],"rt":8518,"trial_type":"polygon-arrow-question","trial_index":0,"trial_index_global":46,"time_elapsed":389404,"internal_chunk_id":"0-0.12-0"},{"nsides":9,"feedback":"Correct! 5 <img src=./images/nonagon_symbol.png style=width:14px;height:14px> 5 = 1 because 5 steps clockwise on the nonagon from 5 brings us to 1","orientation_history":[0],"rt":2280,"trial_type":"polygon-arrow-feedback","trial_index":0,"trial_index_global":47,"time_elapsed":391685,"internal_chunk_id":"0-0.12-0"},{"nsides":9,"question":"What is 3 <img src=./images/nonagon_symbol.png style=width:14px;height:14px> 3?","response_type":"free","response_choices":[],"correct_response":"6","response":"6","explain":false,"explanation":"","explanation_history":[],"orientation_history":[[0],[2.072060591666479,2.072060591666479,2.072060591666479,2.072060591666479,2.072060591666479,2.072060591666479,2.072060591666479,2.0943951023931953]],"response_history":["6"],"rt":7445,"trial_type":"polygon-arrow-question","trial_index":0,"trial_index_global":48,"time_elapsed":399131,"internal_chunk_id":"0-0.12-0"},{"nsides":9,"question":"What is 7 <img src=./images/nonagon_symbol.png style=width:14px;height:14px> 4?","response_type":"free","response_choices":[],"correct_response":"2","response":"2","explain":false,"explanation":"","explanation_history":[],"orientation_history":[[0],[4.90754740750136,4.90754740750136,4.90754740750136,4.90754740750136,4.90754740750136,4.90754740750136,4.886921905584122]],"response_history":["2"],"rt":8071,"trial_type":"polygon-arrow-question","trial_index":0,"trial_index_global":49,"time_elapsed":407203,"internal_chunk_id":"0-0.12-0"},{"nsides":9,"question":"What is 1 <img src=./images/nonagon_symbol.png style=width:14px;height:14px> 8?","response_type":"free","response_choices":[],"correct_response":"0","response":"0","explain":false,"explanation":"","explanation_history":[],"orientation_history":[[0],[0.6573891047242514,0.6573891047242514,0.6573891047242514,0.6573891047242514,0.6573891047242514,0.6573891047242514,0.6573891047242514,0.6981317007977318]],"response_history":["0"],"rt":8787,"trial_type":"polygon-arrow-question","trial_index":0,"trial_index_global":50,"time_elapsed":415991,"internal_chunk_id":"0-0.12-0"},{"nsides":9,"question":"What is 5 <img src=./images/nonagon_symbo l.png  style=width:14px;height:14px> 4?","response_type":"free","response_choices":[],"correct_response":"0","response":"0","explain":false,"explanation":"","explanation_history":[],"orientation_history":[[0]],"response_history":["0"],"rt":6998,"trial_type":"polygon-arrow-question","trial_index":0,"trial_index_global":51,"time_elapsed":422991,"internal_chunk_id":"0-0.12-0"},{"nsides":9,"question":"What is 6 <img src=./images/nonagon_symbol.png style=width:14px;height:14px> 6?","response_type":"free","response_choices":[],"correct_response":"3","response":"3","explain":false,"explanation":"","explanation_history":[],"orientation_history":[[0],[4.339834721929826,4.339834721929826,4.339834721929826,4.339834721929826,4.339834721929826,4.339834721929826,4.1887902047863905]],"response_history":["3"],"rt":6095,"trial_type":"polygon-arrow-question","trial_index":0,"trial_index_global":52,"time_elapsed":429087,"internal_chunk_id":"0-0.12-0"},{"nsides":9,"instructions":"On the fo llowing  question, and several others later in the HIT, we will ask you to explain how you got your answer. On these questions, you will be given one box for your answer to the question, and a second for your explanation. Please explain your thought process in as much detail as possible (at least one sentence, and more if you can).","orientation_history":[0],"rt":6582,"trial_type":"polygon-arrow-instructions","trial_index":0,"trial_index_global":53,"time_elapsed":435670,"internal_chunk_id":"0-0.12-0"},{"nsides":9,"question":"What is 4 <img src=./images/nonagon_symbol.png style=width:14px;height:14px> 1? Please explain in words how you got your answer.","response_type":"free","response_choices":[],"correct_response":"5","response":"5","explain":true,"explanation":"By starting at 4, we move one space clockwise to 5, leaving our answer.","explanation_history":["By starting a ","By starting at 4, we move one spav","By starting at 4, we move one space clockwise to 5, leaving a "," By start ing at 4, we move one space clockwise to 5, leaving a","By starting at 4, we move one space clockwise to 5, leaving out","By starting at 4, we move one space clockwise to 5, leaving our answer."],"orientation_history":[[0],[2.9325697107835285,2.9325697107835285,2.9325697107835285,2.9325697107835285,2.9325697107835285,2.9325697107835285,2.9325697107835285,2.792526803190927]],"response_history":["5"],"rt":32927,"trial_type":"polygon-arrow-question","trial_index":0,"trial_index_global":54,"time_elapsed":468598,"internal_chunk_id":"0-0.12-0"},{"nsides":9,"question":"What is 8 <img src=./images/nonagon_symbol.png style=width:14px;height:14px> 4? Please explain in words how you got your answer.","response_type":"free","response_choices":[],"correct_response":"3","response":"3","explain":true,"explanation":"By starting at 8, we move four spaces clockwise to 5, leaving 3.","explanation_history":["By starting at 4, we move one space clockwise to 5, leaving our answer.","By st arting a t , we move one space clockwise to 5, leaving our answer.","By starting at , we move f space clockwise to 5, leaving our answer.","By starting at , we move fou space clockwise to 5, leaving our answer.","By starting at , we move four space clockwise to 5, leaving our answer.","By starting at , we move four spaces clockwise to 5, leaving our answer.","By starting at , we move four spaces clockwise to 5, leaving 3.","By starting at 8, we move four spaces clockwise to 5, leaving 3."],"orientation_history":[[0],[5.574559035051916,5.574559035051916,5.574559035051916,5.574559035051916,5.574559035051916,5.585053606381854]],"response_history":["3"],"rt":33642,"trial_type":"polygon-arrow-question","trial_index":0,"trial_index_global":55,"time_elapsed":502242,"internal_chunk_id":"0-0.12-0"},{"nsides":9,"question":"What is the identity under <img src=./images/nonagon_symbol.png style=width:14px;height:14px>? Please explain in words how you got your answer.","response_type":"fre e","response_choices":[],"correct_response":"0","response":"o","explain":true,"explanation":"Zero is the identity for any function under this form of math","explanation_history":["Zero is the identity for any fuck","Zero is the identity for any fuc","Zero is the identity for any function under this form of math"],"orientation_history":[[0]],"response_history":["o","o"],"rt":29421,"trial_type":"polygon-arrow-question","trial_index":0,"trial_index_global":56,"time_elapsed":531666,"internal_chunk_id":"0-0.12-0"},{"nsides":9,"question":"What is the inverse of 5 under <img src=./images/nonagon_symbol.png style=width:14px;height:14px>?","response_type":"free","response_choices":[],"correct_response":"4","response":"4","explain":false,"explanation":"","explanation_history":[],"orientation_history":[[0],[3.5845178406981155,3.5845178406981155,3.5845178406981155,3.5845178406981155,3.5845178406981155,3.5845178406981155,3.490658503988659]],"response_history":["4"],"rt":15506,"trial_type":"polyg on-arrow-question","trial_index":0,"trial_index_global":57,"time_elapsed":547174,"internal_chunk_id":"0-0.12-0"},{"nsides":9,"question":"What is the inverse of 2 under <img src=./images/nonagon_symbol.png style=width:14px;height:14px>?","response_type":"free","response_choices":[],"correct_response":"7","response":"7","explain":false,"explanation":"","explanation_history":[],"orientation_history":[[0],[1.4273440634912378,1.4273440634912378,1.4273440634912378,1.4273440634912378,1.4273440634912378,1.4273440634912378,1.3962634015954636]],"response_history":["7"],"rt":10709,"trial_type":"polygon-arrow-question","trial_index":0,"trial_index_global":58,"time_elapsed":557885,"internal_chunk_id":"0-0.12-0"},{"nsides":9,"question":"What is the inverse of 0 under <img src=./images/nonagon_symbol.png style=width:14px;height:14px>?","response_type":"free","response_choices":[],"correct_response":"0","response":"0","explain":false,"explanation":"","explanation_history":[],"orientation_history":[[0]],"response_history":["0"],"rt":2606,"trial_type":"polygon-arrow-question","trial_index":0,"trial_index_global":59,"time_elapsed":560493,"internal_chunk_id":"0-0.12-0"},{"nsides":9,"question":"What is the inverse of 3 under <img src=./images/nonagon_symbol.png style=width:14px;height:14px>? Please explain in words how you got your answer.","response_type":"free","response_choices":[],"correct_response":"6","response":"6","explain":true,"explanation":"We need the inverse to reach 0, which is our identity. So we move 6 spaces clockwise.","explanation_history":["We need the inverse to reach o","We need the inverse to reach 0, which is our in","We need the inverse to reach 0, which is our identity. So we move 6 spaces clockwise."],"orientation_history":[[0],[2.260832443289936,2.260832443289936,2.260832443289936,2.260832443289936,2.260832443289936,2.260832443289936,2.0943951023931953]],"response_history":["6"],"rt":32300,"trial_type":"polygon-arrow-ques tion","trial_index":0,"trial_index_global":60,"time_elapsed":592794,"internal_chunk_id":"0-0.12-0"},{"nsides":9,"question":"Is 2 a generator under <img src=./images/nonagon_symbol.png style=width:14px;height:14px>? Please explain in words how you got your answer.","response_type":"multi","response_choices":["Yes","No"],"correct_response":"Yes","response":"Yes","explain":true,"explanation":"Because 2 can be used as many times as necessary to reach every number on the nonagon.","explanation_history":["Because 2 can be used as am","Because 2 can be used as a","Because 2 can be used as many times as necessary to reach every number on the nonagon."],"orientation_history":[[0],[1.5034824510021914,1.5034824510021914,1.5034824510021914,1.5034824510021914,1.5034824510021914,1.5034824510021914,1.5034824510021914,1.3962634015954636],[2.72118730238705,2.72118730238705,2.72118730238705,2.72118730238705,2.72118730238705,2.72118730238705,2.72118730238705,2.792526803190927],[4.052379937328758,4.052379937328758,4.052379937328758,4.052379937328758,4.052379937328758,4.052379937328758,4.052379937328758,4.052379937328758,4.052379937328758,4.1887902047863905],[5.455795036560769,5.455795036560769,5.455795036560769,5.455795036560769,5.455795036560769,5.455795036560769,5.455795036560769,5.585053606381854],[0.6279812906708575,0.6279812906708575,0.6279812906708575,0.6279812906708575,0.6279812906708575,0.6279812906708575,0.6279812906708575,0.6279812906708575,0.6279812906708575,0.6981317007977318],[2.0788591510426135,2.0788591510426135,2.0788591510426135,2.0788591510426135,2.0788591510426135,2.0788591510426135,2.0788591510426135,2.0943951023931953],[3.3534202010712106,3.3534202010712106,3.3534202010712106,3.3534202010712106,3.3534202010712106,3.3534202010712106,3.3534202010712106,3.3534202010712106,3.490658503988659],[4.684227413396798,4.684227413396798,4.684227413396798,4.684227413396798,4.684227413396798,4.684227413396798,4.886921905584122]],"response_history":["Yes"],"rt":34099,"trial_type":"polygon-arrow-question","trial_index":0,"trial_index_global":61,"time_elapsed":626897,"internal_chunk_id":"0-0.12-0"},{"nsides":9,"question":"Is 3 a generator under <img src=./images/nonagon_symbol.png style=width:14px;height:14px>? Please explain in words how you got your answer.","response_type":"multi","response_choices":["Yes","No"],"correct_response":"No","response":"No","explain":true,"explanation":"3 will, no matter how many times used, be able to reach every number on the nonagon.","explanation_history":["3 will not gen","3 will not ge","3 will not g","3 will not ","3 will not","3 will no","3 will n","3 will ","3 will, no matter how many times used, be able to reach every number on the nonan","3 will, no matter how many times used, be able to reach every number on the nonagon."],"orientation_history":[[0],[2.1531492729388795,2.1531492729388795,2.1531492729388795,2.1531492729388795,2.1531492729388795,2.1531492729388795,2.1531492729388795,2.1531492729388795,2.0943951023931953],[4.0977260284625245,4.0977260284625245,4.0977260284625245,4.0977260284625245,4.0977260284625245,4.0977260284625245,4.0977260284625245,4.1887902047863905],[0.011363147264290774,0.011363147264290774,0.011363147264290774,0.011363147264290774,0.011363147264290774,6.168745001909523,6.283185307179586]],"response_history":["No"],"rt":48001,"trial_type":"polygon-arrow-question","trial_index":0,"trial_index_global":62,"time_elapsed":674900,"internal_chunk_id":"0-0.12-0"},{"nsides":9,"question":"Is 5 a generator under <img src=./images/nonagon_symbol.png style=width:14px;height:14px>? Please explain in words how you got your answer.","response_type":"multi","response_choices":["Yes","No"],"correct_response":"Yes","response":"Yes","explain":true,"explanation":"5 is able to, through repeated uses, reach every number on the nonagon from any position.","explanation_history":["5 is able to, through repeated uses, reach every number on the nonagon a","5 is able to, t hrough r epeated uses, reach every number on the nonagon from any position."],"orientation_history":[[0],[3.471217061010536,3.471217061010536,3.471217061010536,3.471217061010536,3.471217061010536,3.471217061010536,3.471217061010536,3.490658503988659],[0.5599397971143882,0.5705827629957896,0.581082298797327,0.581082298797327,0.581082298797327,0.581082298797327,0.581082298797327,0.6981317007977318],[4.1481207915267575,4.1481207915267575,4.1481207915267575,4.1481207915267575,4.1481207915267575,4.1887902047863905]],"response_history":["Yes"],"rt":32260,"trial_type":"polygon-arrow-question","trial_index":0,"trial_index_global":63,"time_elapsed":707163,"internal_chunk_id":"0-0.12-0"},{"nsides":9,"question":"Is 6 a generator under <img src=./images/nonagon_symbol.png style=width:14px;height:14px>? Please explain in words how you got your answer.","response_type":"multi","response_choices":["Yes","No"],"correct_response":"No","response":"No","explain":true,"explanation":"No, 6 is una ble to g enerate every number on the nonagon, even through repeated usage.","explanation_history":["No, 6 is unable to generated ","No, 6 is unable to generated","No, 6 is unable to generate every number on the nonagon, even through repeated usage."],"orientation_history":[[0],[4.180664913125884,4.180664913125884,4.180664913125884,4.180664913125884,4.180664913125884,4.180664913125884,4.180664913125884,4.180664913125884,4.1887902047863905],[2.0533096218173736,2.0533096218173736,2.0533096218173736,2.0533096218173736,2.0533096218173736,2.0943951023931953],[0.020830320036216987,0.020830320036216987,0.020830320036216987,0.020830320036216987,0.020830320036216987,0.020830320036216987,0.020830320036216987,0],[4.186620446395499,4.186620446395499,4.186620446395499,4.186620446395499,4.186620446395499,4.186620446395499,4.1887902047863905],[2.185459278717062,2.185459278717062,2.185459278717062,2.185459278717062,2.185459278717062,2.185459278717062,2.185459278717062,2.0943951023931953],[6.250230209565288,6.250230209565288,6.250230209565288,6.250230209565288,6.250230209565288,6.250230209565288,6.250230209565288,6.283185307179586]],"response_history":["No"],"rt":39858,"trial_type":"polygon-arrow-question","trial_index":0,"trial_index_global":64,"time_elapsed":747023,"internal_chunk_id":"0-0.12-0"},{"nsides":"n","instructions":"Now we'd like to ask you some questions about <img src=./images/ngon_symbol.png style=width:14px;height:14px>, where n could be any positive counting number. For example, n could be 3, and the polygon a triangle, or n could be any other counting number you can think of. If you need to write the operation, you can use (n), and your answers can include n to stand in for the arbitrary value if necessary. (You can use the polygon at the right to think, but it doesn't necessarily correspond to the real polygon, which is why we've left most of it dashed.)","orientation_history":[0,[0.5880026035475675,0.5880026035475675,0.5880026035475675,0.5880026035475675,0.5880026035475675,0.5880026035475675,0.5880026035475675,0.5880026035475675],[1.2335431384732378,1.2335431384732378,1.2335431384732378,1.2335431384732378,1.2335431384732378,1.2335431384732378,1.2335431384732378,1.2335431384732378],[0.06746502452190462,0.06746502452190462,0.06746502452190462,0.06746502452190462,0.06746502452190462,0.06746502452190462,0.06746502452190462],[1.1024539166065952,1.1024539166065952,1.1024539166065952,1.1024539166065952,1.1024539166065952,1.1024539166065952,1.1024539166065952],[6.0520946399836895,6.0520946399836895,6.0520946399836895,6.0520946399836895,6.0520946399836895,6.0520946399836895,6.0520946399836895],[0.9865250492139878,0.9865250492139878,0.9865250492139878,0.9865250492139878,0.9865250492139878,0.9865250492139878],[1.810539435665353,1.810539435665353,1.810539435665353,1.8080031256785407,1.8080031256785407,1.8080031256785407,1.8080031256785407,1.8080031256785407,1.8080031256785407,1.8080031256785407],[2.05120214337794,2.05120214337794,2.05120214337794,2.05120214337794,2.05120214337794,2.05120214337794,2.05120214337794,2.05120214337794,2.0899424410414196,2.1451011569695986,2.2242226679756585,2.2591551042103455,2.2591551042103455,2.2591551042103455,2.2591551042103455,2.2591551042103455,2.2591551042103455,2.2591551042103455,2.2591551042103455,2.2591551042103455,2.2591551042103455,2.2861339075538893,2.321725389192837,2.4078725746747747,2.5269297016676275,2.677945044588987,2.8091663482056957,2.922923707715851,2.971217542927177,2.9833523291389143,2.9833523291389143,2.9833523291389143,2.9833523291389143,2.9833523291389143,2.9833523291389143,2.220666776206844,2.128337441475245,2.038559138902814,2.010157214079488,2.010157214079488,2.010157214079488,2.010157214079488,2.010157214079488,2.010157214079488,2.010157214079488,2.010157214079488,2.010157214079488,2.010157214079488,2.010157214079488,2.010157214079488,2.010157214079488,2.010157214079488,2.010157214079488,2.010157214079488,2.010157214079488,2.010157214079488,2.010157214079488,1.9853032013796825,1.9513027039072615,1.901610077137247,1.8585043103431749,1.8326815914754155,1.8326815914754155,1.8326815914754155,1.8326815914754155,1.8326815914754155,1.8326815914754155,1.8326815914754155,1.8326815914754155,1.8326815914754155,1.8326815914754155,1.8326815914754155,1.8326815914754155,1.8326815914754155,1.8326815914754155,1.8326815914754155,1.8326815914754155,1.8326815914754155,1.8326815914754155,1.8326815914754155,1.8326815914754155,1.8326815914754155,1.8326815914754155,1.8326815914754155,1.8326815914754155,1.8326815914754155,1.8326815914754155,1.8326815914754155,1.8326815914754155,1.8326815914754155,1.8326815914754155,1.8326815914754155,1.8326815914754155,1.8326815914754155,1.8326815914754155,1.8545904360032244,1.8893520038829636,1.9307448528223026,1.9624962662323207,1.9624962662323207,1.9624962662323207,1.9624962662323207,1.9624962662323207,1.9624962662323207,1.9624962662323207,1.9624962662323207,1.9624962662323207,1.9624962662323207,1.9624962662323207,1.9624962662323207,1.9624962662323207,1.9624962662323207,1.9624962662323207,1.9624962662323207,1.9849348772711082,1.998260639810122,2.0165086394235323,2.0208701088773333,2.029939461757135,2.029939461757135,2.029939461757135,2.029939461757135,2.029939461757135,2.029939461757135,2.029939461757135,2.029939461757135,2.029939461757135,2.029939461757135,2.029939461757135,2.029939461757135,2.029939461757135,2.029939461757135,2.0389282106705187]],"rt":31184,"trial_type":"polygon-arrow-instructions","trial_index":0,"trial_index_global":65,"time_elapsed":778211,"internal_chunk_id":"0-0"},{"nsides":"n","question":"What is the formula for the inverse of 1 under <img src=./images/ngon_symbol.png style=width:14px;height:14px>?","response_type":"free","response_choices":[],"correct_response":"n-1","response":"(n)-1","explain":false,"explanation":"","explanation_history":[],"orientation_history":[[0],[0,0,0,0,0,0,0,0,0,0.04328744328445433,0.9629943306809363,0.9629943306809363,0.9629943306809363,0.9629943306809363,0.9629943306809363,0.9629943306809363,0.9629943306809363,0.9629943306809363,0.9629943306809363,0.9629943306809363,0.9629943306809363,0.9629943306809363,0.9629943306809363,0.9629943306809363,0.9629943306809363,0.9629943306809363,0.9629943306809363,0.9629943306809363,0.9629943306809363,0.9629943306809363,0.954592190363689,0.8838443226100815,0.7491413884962096,0.5836197671974875,0.41438282562743356,0.36667644514996023,0.36667644514996023,0.36667644514996023,0.36667644514996023,0.36667644514996023,0.36667644514996023,0.36667644514996023,0.36667644514996023,0.36667644514996023,0.36667644514996023,0.37204120054935985,0.4083629465061245,0.53021577277663,0.5872304029288531,0.607625826052949,0.607625826052949,0.607625826052949,0.607625826052949,0.607625826052949,0.607625826052949,0.607625826052949,0.607625826052949,0.607625826052949,0.635211595356782,0.6811527121311286,0.6811527121311286,0.6811527121311286,0.6811527121311286,0.6811527121311286,0.6811527121311286,0.6811527121311286,0.6811527121311286,0.6811527121311286,0.662469023397711,0.662469023397711,0.662469023397711,0.662469023397711,0.662469023397711,0.662469023397711,0.662469023397711,0.662469023397711,0.662469023397711,0.662469023397711,0.662469023397711,0.662469023397711,0.662469023397711,0.662469023397711,0.662469023397711,0.662469023397711,0.662469023397711,0.662469023397711,0.662469023397711,0.662469023397711,0.662469023397711,0.662469023397711,0.662469023397711,0.662469023397711,0.662469023397711,0.662469023397711]],"response_history":["(n)-1"],"rt":22630,"trial_type":"polygon-arrow-question","trial_index":0,"trial_index_global":66,"time_elapsed":800843,"internal_chunk_id":"0-0.14-0"},{"nsides":"n","question":"What is the formula for the inverse of an element x under <img src=./images/ngon_symbol.png style=width:14px;height:14px>? Please explain in words why your answer is correct.","response_type":"free","response_choices":[],"correct_response":"n-x","response":"(n)-x","explain":true,"explanation":"To arrive at the identity, we would need to move (n) spaces from initial point x. Starting with x, we then add the solution of ((n)-x) to arrive at the identity.","explanation_history":["To arrive at the identity, we would need to move (n) spaces from initial point x. Starting with x, we the ","To arrive at the identity, we would need to move (n) spaces from initial point x. Starting with x, we then add the solution of (*","To arrive at the identity, we would need to move (n) spaces from initial point x. Starting with x, we then add the solution of ((n)-x))","To arrive at the identity, we would need to move (n) spaces from initial point x. Starting with x, we then add the solution of ((n)-x) to arrive at the identity."],"orientation_history":[[0]],"response_history":["(n)-x"],"rt":79146,"trial_type":"polygon-arrow-question","trial_index":0,"trial_index_global":67,"time_elapsed":879990,"internal_chunk_id":"0-0.14-0"},{"nsides":"n","question":"Is there a pattern to  which e lements are generators? How can you know if an element x is a generator under <img src=./images/ngon_symbol.png style=width:14px;height:14px> without seeing whether it can make all the elements?.","response_type":"free","response_choices":[],"correct_response":"","response":"Generators must provide odd elements relative to the rest of the polygon. If (x+(n)) returns a finite number of responses when repeating, it is not a generator. For instance, if it looped into a series, (3,6,9,3,6,9), without touching other points on the polynomial, it would not be a generator.","explain":false,"explanation":"","explanation_history":[],"orientation_history":[[0]],"response_history":["generator","Ger","Generators must provie ","Generators must provied","Generators must provie","Generators must provide ele","Generators must provide el","Generators must provide e","Generators must provide odd elements relative to the rest of the be","Generators must provide odd elements relative to  the rest  of the board","Generators must provide odd elements relative to the rest of the boar","Generators must provide odd elements relative to the rest of the boa","Generators must provide odd elements relative to the rest of the bo","Generators must provide odd elements relative to the rest of the b","Generators must provide odd elements relative to the rest of the ","Generators must provide odd elements relative to the rest of the polygon. If m","Generators must provide odd elements relative to the rest of the polygon. If (N)","Generators must provide odd elements relative to the rest of the polygon. If (N","Generators must provide odd elements relative to the rest of the polygon. If (","Generators must provide odd elements relative to the rest of the polygon. If (N","Generators must provide odd elements relative to the rest of the polygon. If (n)","Generators must provide odd elements relative to the rest of the polygon. If (n","Generators must provide odd elements relative to  the rest  of the polygon. If (","Generators must provide odd elements relative to the rest of the polygon. If x ","Generators must provide odd elements relative to the rest of the polygon. If x","Generators must provide odd elements relative to the rest of the polygon. If (x+N) ","Generators must provide odd elements relative to the rest of the polygon. If (x+N)","Generators must provide odd elements relative to the rest of the polygon. If (x+N","Generators must provide odd elements relative to the rest of the polygon. If (x+n) returns in","Generators must provide odd elements relative to the rest of the polygon. If (x+n) returns i","Generators must provide odd elements relative to the rest of the polygon. If (x+n) returns a finite number ","Generators must provide odd elements relative to the rest of the polygon. If (x+(n) returns a finite number ","Generators must provide odd elements relative to the rest of the polygon. If (x+(nn) returns a finite number ","Generators must provide  odd ele ments relative to the rest of the polygon. If (x+(n)n) returns a finite number ","Generators must provide odd elements relative to the rest of the polygon. If (x+(n)) returns a finite number of rep","Generators must provide odd elements relative to the rest of the polygon. If (x+(n)) returns a finite number of responsed","Generators must provide odd elements relative to the rest of the polygon. If (x+(n)) returns a finite number of responses when repeating, it is not a generator. For instance, if it looped into a series, *","Generators must provide odd elements relative to the rest of the polygon. If (x+(n)) returns a finite number of responses when repeating, it is not a generator. For instance, if it looped into a series, (3,6,8","Generators must provide odd elements relative to the rest of the polygon. If (x+(n)) returns a finite number of responses when repeating, it is not a generator. For instance, if it looped into a series, (3,6,9,3,6,8","Generators must provide odd  elements  relative to the rest of the polygon. If (x+(n)) returns a finite number of responses when repeating, it is not a generator. For instance, if it looped into a series, (3,6,9,3,6,8","Generators must provide odd elements relative to the rest of the polygon. If (x+(n)) returns a finite number of responses when repeating, it is not a generator. For instance, if it looped into a series, (3,6,9,3,6,9) ","Generators must provide odd elements relative to the rest of the polygon. If (x+(n)) returns a finite number of responses when repeating, it is not a generator. For instance, if it looped into a series, (3,6,9,3,6,9), without touching other points on the polynomial, it would not be ag","Generators must provide odd elements relative to the rest of the polygon. If (x+(n)) returns a finite number of responses when repeating, it is not a generator. For instance, if it looped into a series, (3,6,9,3,6,9), without touching other points on the polynomial, it would not be a generator."],"rt":135601,"trial_type":"polygon-arrow-question","trial_index":0,"trial_index_global":68,"time_elapsed":1015594,"internal_chunk_id":"0-0.14-0"},{"nsides":"n","question":"True or false: If x is an odd number, it must be a generator under <img src=./images/ngon_symbol.png style=width:14px;height:14px>.","response_type":"multi","response_choices":["True","False"],"correct_response":"False","response":"False","explain":false,"explanation":"","explanation_history":[],"orientation_history":[[0],[0.5280744484263595,0.5280744484263595,0.5280744484263595,0.5280744484263595,0.5280744484263595,0.5280744484263595,0.5280744484263595],[1.6356403543481033,1.6356403543481033,1.6356403543481033,1.6356403543481033,1.6356403543481033,1.6356403543481033,1.6356403543481033,1.6356403543481033],[0.6140190370079406,0.6140190370079406,0.6140190370079406,0.6140190370079406,0.6140190370079406,0.6140190370079406,0.6140190370079406,0.6140190370079406],[6.147657593194086,6.147657593194086,6.147657593194086,6.147657593194086,6.147657593194086,6.147657593194086,6.180103698656886],[0.02272336084164106,0.02272336084164106,0.02272336084164106,0.02272336084164106,0.02272336084164106,0.02272336084164106,0.02272336084164106,0.02272336084164106,0.02272336084164106,0.02272336084164106],[0.6696389456766375,0.6696389456766375,0.6696389456766375,0.6696389456766375,0.6696389456766375,0.6696389456766375,0.6696389456766375,0.6696389456766375],[1.3065363068815665,1.3065363068815665,1.3065363068815665,1.3065363068815665,1.3065363068815665,1.3065363068815665,1.3065363068815665,1.3065363068815665,1.3065363068815665],[0.5585993153435624,0.5585993153435624,0.5585993153435624,0.5585993153435624,0.5585993153435624,0.5585993153435624,0.5585993153435624,0.5585993153435624,0.5748886012700921],[1.2986504362637092,1.2986504362637092,1.2986504362637092,1.2986504362637092,1.2986504362637092,1.2986504362637092,1.2986504362637092],[0.6010737544977492,0.6010737544977492,0.6010737544977492,0.6010737544977492,0.6010737544977492,0.6010737544977492,0.6010737544977492,0.6010737544977492]],"response_history":["False"],"rt":35848,"trial_type":"polygon-arrow-question","trial_index":0,"trial_index_global":69,"time_elapsed":1051455,"internal_chunk_id":"0-0.14-0"},{"nsides":"n","question":"True or false: If x is an even number, it must not be a generator under <img src=./images/ngon_symbol.png style=width:14px;height:14px>.","response_type":"multi","response_choices":["True","False"],"correct_response":"False","response":"False","explain":false,"explanation":"","explanation_history":[],"orientation_history":[[0]],"response_history":["False"],"rt":6277,"trial_type":"polygon-arrow-question","trial_index":0,"trial_index_global":70,"time_elapsed":1057735,"internal_chunk_id":"0-0.14-0"},{"nsides":"n","question":"True or false: If x is not a generator under <img src=./images/ngon_symbol.png style=width:14px;height:14px>, x must be a divisor of n, that is, x must divide n evenly, with no remain der.","response_type":"multi","response_choices":["True","False"],"correct_response":"False","response":"False","explain":false,"explanation":"","explanation_history":[],"orientation_history":[[0]],"response_history":["False"],"rt":13162,"trial_type":"polygon-arrow-question","trial_index":0,"trial_index_global":71,"time_elapsed":1070898,"internal_chunk_id":"0-0.14-0"},{"nsides":"n","question":"True or false: If x is not a generator under <img src=./images/ngon_symbol.png style=width:14px;height:14px>, x must be a multiple of a divisor of n. Please explain in words how you got your answer.","response_type":"multi","response_choices":["True","False"],"correct_response":"True","response":"True","explain":true,"explanation":"If x is not a generator, it will eventually result in the same position. Being a multiple of a divisor will eventually repeat at position x.","explanation_history":["If i","If x is not a gne","If x is not a gn","If x is not a generator, it will eventually re sult in  the sma","If x is not a generator, it will eventually result in the sm","If x is not a generator, it will eventually result in the same position. This being a b","If x is not a generator, it will eventually result in the same position. This being a mut","If x is not a generator, it will eventually result in the same position. This being a multiple of a divisor will end with the ","If x is not a generator, it will eventually result in the same position. Being a multiple of a divisor will end with the ","If x is not a generator, it will eventually result in the same position. Being a multiple of a divisor will end with the","If x is not a generator, it will eventually result in the same position. Being a multiple of a divisor will end with th","If x is not a generator, it will eventually result in the same position. Being a multiple of a divisor will end with t","If x is not a generator, it will eventually result in the same position. Being a multiple of a divisor will end wit h ","If  x is not a generator, it will eventually result in the same position. Being a multiple of a divisor will end with","If x is not a generator, it will eventually result in the same position. Being a multiple of a divisor will end wit","If x is not a generator, it will eventually result in the same position. Being a multiple of a divisor will end wi","If x is not a generator, it will eventually result in the same position. Being a multiple of a divisor will end w","If x is not a generator, it will eventually result in the same position. Being a multiple of a divisor will end ","If x is not a generator, it will eventually result in the same position. Being a multiple of a divisor will end","If x is not a generator, it will eventually result in the same position. Being a multiple of a divisor will en","If x is not a generator, it will eventually result in the same position. Being a multiple of a divisor will evene","If x is not a generator, it will eventually result in the same p osition.  Being a multiple of a divisor will eventually repeat in","If x is not a generator, it will eventually result in the same position. Being a multiple of a divisor will eventually repeat i","If x is not a generator, it will eventually result in the same position. Being a multiple of a divisor will eventually repeat at posti","If x is not a generator, it will eventually result in the same position. Being a multiple of a divisor will eventually repeat at post","If x is not a generator, it will eventually result in the same position. Being a multiple of a divisor will eventually repeat at position x."],"orientation_history":[[0]],"response_history":["True"],"rt":104005,"trial_type":"polygon-arrow-question","trial_index":0,"trial_index_global":72,"time_elapsed":1174905,"internal_chunk_id":"0-0.14-0"},{"nsides":"n","question":"If an element x is a generator under <img src=./images/ngon_symbol.png style=width:14px;height:14px>, is its inverse a generator under <img src=./i mages/ng on_symbol.png style=width:14px;height:14px> always, sometimes, or never?","response_type":"multi","response_choices":["Always","Sometimes","Never"],"correct_response":"Always","response":"Sometimes","explain":false,"explanation":"","explanation_history":[],"orientation_history":[[0]],"response_history":["Sometimes"],"rt":171868,"trial_type":"polygon-arrow-question","trial_index":0,"trial_index_global":73,"time_elapsed":1346783,"internal_chunk_id":"0-0.14-0"},{"nsides":"n","question":"If an element x is a generator under <img src=./images/ngon_symbol.png style=width:14px;height:14px>, is x <img src=./images/ngon_symbol.png style=width:14px;height:14px> x a generator under <img src=./images/ngon_symbol.png style=width:14px;height:14px> always, sometimes, or never? Please explain in words how you got your answer.","response_type":"multi","response_choices":["Always","Sometimes","Never"],"correct_response":"Sometimes","response":"Sometimes","explain":true,"explanation":"Only in the cases in which a polynomial has a number of sides that is equal to 2x.","explanation_history":["Onl ","Only in the cases in which a polynomal","Only in the cases in which a polynoma","Only in the cases in which a polynomial has a number of sides that is equal to 2k","Only in the cases in which a polynomial has a number of sides that is equal to 2x."],"orientation_history":[[0]],"response_history":["Sometimes"],"rt":146682,"trial_type":"polygon-arrow-question","trial_index":0,"trial_index_global":74,"time_elapsed":1493474,"internal_chunk_id":"0-0.14-0"},{"nsides":"n","question":"If an element x is not a generator under <img src=./images/ngon_symbol.png style=width:14px;height:14px>, is x <img src=./images/ngon_symbol.png style=width:14px;height:14px> x a generator under <img src=./images/ngon_symbol.png style=width:14px;height:14px> always, sometimes, or never?","response_type":"multi","response_choices":["Always","Sometimes","Never"],"correct_response":"Never","response":"Never","explain":false,"explanation":"","explanation_history":[],"orientation_history":[[0]],"response_history":["Never"],"rt":13217,"trial_type":"polygon-arrow-question","trial_index":0,"trial_index_global":75,"time_elapsed":1506700,"internal_chunk_id":"0-0.14-0"},{"instructions":"We would like to ask you some questions about your background. Please press Continue to continue.","rt":1300,"trial_type":"instructions","trial_index":0,"trial_index_global":76,"time_elapsed":1508003,"internal_chunk_id":"0-0.15-0"},{"question":"What is your age?","response_type":"free","response_choices":[],"correct_response":"","response":"27","explain":false,"explanation":"","explanation_history":[],"response_history":["28","27"],"rt":4093,"trial_type":"question","trial_index":0,"trial_index_global":77,"time_elapsed":1512098,"internal_chunk_id":"0-0.15-0"},{"question":"What is your level of education?","response_type":"multi","response_choices":["Did n ot gradu ate high school","High school diploma","Some college, no degree","Associates Degree","Bachelors Degree","Some graduate school, no degree","Masters Degree","Doctorate, M.D., etc."],"correct_response":"","response":"Some college, no degree","explain":false,"explanation":"","explanation_history":[],"response_history":["Some college, no degree"],"rt":2950,"trial_type":"question","trial_index":0,"trial_index_global":78,"time_elapsed":1515051,"internal_chunk_id":"0-0.15-0"},{"question":"What is the most advanced math class you've completed? If you have multiple classes and you're not sure which one is most advanced, please list them.","response_type":"free","response_choices":[],"correct_response":"","response":"Calculus","explain":false,"explanation":"","explanation_history":[],"response_history":["Calc 2","Calcu 2","Calcul 2","Calcula 2","Calculas 2","Calcula 2","Calcul 2","Calcu 2","Calc 2","Calcu 2","Calcul 2","Calculu 2","Calculus 2","Calculus  2","Calculus 2","Calculu 2","Ca lcul 2","Calcu 2","Calc 2","Calcu 2","Calcul 2","Calcula 2","Calculas 2","Calculas  2","Calculate  2","Calculat  2","Calcula  2","Calcul  2","Calculu  2","Calculus  2","Calculus   2","Calculs   2","Calculas   2","Calculus  2","Calculus 2","Calculus ","Calculus","Calculus"],"rt":40477,"trial_type":"question","trial_index":0,"trial_index_global":79,"time_elapsed":1555529,"internal_chunk_id":"0-0.15-0"},{"question":"How familiar are you with the concept of modular arithmetic?","response_type":"multi","response_choices":["1 - never heard of it","2 - heard of it but didn't know what it was","3 - seen it used or explained","4 - used it but not often or recently","5 - used it, remember and understand it"],"correct_response":"1","response":"2 - heard of it but didn't know what it was","explain":false,"explanation":"","explanation_history":[],"response_history":["2 - heard of it but didn't know what it was"],"rt":3874,"trial_type":"question","trial_index":0,"trial_index_global":80,"time_elapsed":1559405,"internal_chunk_id":"0-0.15-0"},{"question":"How familiar are you with the concept of a mathematical group?","response_type":"multi","response_choices":["1 - never heard of it","2 - heard of it but didn't know what it was","3 - seen it used or explained","4 - used it but not often or recently","5 - used it, remember and understand it"],"correct_response":"1","response":"5 - used it, remember and understand it","explain":false,"explanation":"","explanation_history":[],"response_history":["4 - used it but not often or recently","5 - used it, remember and understand it"],"rt":4855,"trial_type":"question","trial_index":0,"trial_index_global":81,"time_elapsed":1564261,"internal_chunk_id":"0-0.15-0"},{"question":"Do you feel you learned something from this HIT?","response_type":"multi","response_choices":["1 - not at all","2 - somewhat","3 - definitely"],"correct_response":"1","response":"2 - somewhat","explain":false,"explanation":"","explanation_history":[],"response_history":["2 -  somewhat"],"rt":3198,"trial_type":"question","trial_index":0,"trial_index_global":82,"time_elapsed":1567460,"internal_chunk_id":"0-0.15-0"},{"question":"Do you feel you understood the concepts in this HIT?","response_type":"multi","response_choices":["1 - not at all","2 - somewhat","3 - definitely"],"correct_response":"1","response":"2 - somewhat","explain":false,"explanation":"","explanation_history":[],"response_history":["2 - somewhat"],"rt":2399,"trial_type":"question","trial_index":0,"trial_index_global":83,"time_elapsed":1569861,"internal_chunk_id":"0-0.15-0"},{"question":"Did you enjoy this HIT?","response_type":"multi","response_choices":["1 - not at all","2 - somewhat","3 - definitely"],"correct_response":"1","response":"3 - definitely","explain":false,"explanation":"","explanation_history":[],"response_history":["3 - definitely"],"rt":1855,"trial_type":"question","trial_index":0,"trial_index_global":84,"time_elapsed":1571717,"internal_chunk_id":"0-0.15-0"},{"question":"Wh at is your gender?","response_type":"multi","response_choices":["Female","Male","Other"],"correct_response":"","response":"Male","explain":false,"explanation":"","explanation_history":[],"response_history":["Male"],"rt":1895,"trial_type":"question","trial_index":0,"trial_index_global":85,"time_elapsed":1573613,"internal_chunk_id":"0-0.15-0"},{"question":"What is/are your native language(s)? (The languages spoken in your household when you were a child.)","response_type":"free","response_choices":[],"correct_response":"","response":"English","explain":false,"explanation":"","explanation_history":[],"response_history":["English"],"rt":3944,"trial_type":"question","trial_index":0,"trial_index_global":86,"time_elapsed":1577558,"internal_chunk_id":"0-0.15-0"},{"question":"Did you use pen and paper at any point on this HIT?","response_type":"free","response_choices":[],"correct_response":"","response":"Nope","explain":false,"explanation":"","explanation_history":[],"response_history":["No pe"],"rt":4549,"trial_type":"question","trial_index":0,"trial_index_global":87,"time_elapsed":1582108,"internal_chunk_id":"0-0.15-0"},{"question":"Do you have any comments on this HIT?","response_type":"free","response_choices":[],"correct_response":"","response":"Very fun great HIT! If you have any follow-ups or similar HITs please do contact me!","explain":false,"explanation":"","explanation_history":[],"response_history":["Very fun great h","Very fun great HIT! If you have anymore","Very fun great HIT! If you have anymor","Very fun great HIT! If you have anymo","Very fun great HIT! If you have anym","Very fun great HIT! If you have any follow-u[p","Very fun great HIT! If you have any follow-u[","Very fun great HIT! If you have any follow-ups or similar hi","Very fun great HIT! If you have any follow-ups or similar h","Very fun great HIT! If you have any follow-ups or similar HITS ","Very fun great HIT! If you have any follow-ups or similar HITS","Very fun great HIT! If yo u have a ny follow-ups or similar HITs plese ","Very fun great HIT! If you have any follow-ups or similar HITs plese","Very fun great HIT! If you have any follow-ups or similar HITs ples","Very fun great HIT! If you have any follow-ups or similar HITs please to","Very fun great HIT! If you have any follow-ups or similar HITs please t","Very fun great HIT! If you have any follow-ups or similar HITs please do contat","Very fun great HIT! If you have any follow-ups or similar HITs please do contact me!"],"rt":28463,"trial_type":"question","trial_index":0,"trial_index_global":88,"time_elapsed":1610573,"internal_chunk_id":"0-0.15-0"}]