[{"nsides":6,"instructions":"Let's define a new operation <img src=./images/hexagon_symbol.png style=width:14px;height:14px>. This operation will give us a way of combining two of the numbers 0, 1, 2, 3, 4, 5 to get another one of them back. Consider the hexagon at the right, where I've labeled each point with one of the numbers. To perform <img src=./images/hexagon_symbol.png style=width:14px;height:14px>, you can use the interactive diagram on the right, or perform the operation in your mind. Point the arrow at the first number on the hexagon by clicking, then click (or click and drag) to move the arrow the second number of points clockwise around the hexagon. The number the arrow arrives at is your result. (The operation is called <img src=./images/hexagon_symbol.png style=width:14px;height:14px> because it uses the hexagon, which has 6 sides.) <br /><br />For example, 3 <img src=./images/hexagon_symbol.png style=width:14px;height:14px> 5 =  2, becau se 5 steps clockwise from 3 on the hexagon brings us to 2. So 3 <img src=./images/hexagon_symbol.png style=width:14px;height:14px> 5 = 2.<br /><br />Similarly, 1 <img src=./images/hexagon_symbol.png style=width:14px;height:14px> 4 = 5, because 4 steps clockwise from 1 brings us to 5. <br /><br />Click Continue when you're ready to move on.","orientation_history":[0],"rt":73610,"trial_type":"polygon-arrow-instructions","trial_index":0,"trial_index_global":1,"time_elapsed":194004,"internal_chunk_id":"0-0"},{"nsides":6,"instructions":"Do you see how <img src=./images/hexagon_symbol.png style=width:14px;height:14px> works? By labeling the points of the hexagon with the numbers from 0 to 5, we ensure that when we combine two numbers under <img src=./images/hexagon_symbol.png style=width:14px;height:14px>, we only produce numbers between 0 and 5.<br /><br />Click Continue when you are ready to move on.","orientation_history":[0],"rt":14886,"trial_type":"polygon-arrow-instructions","trial_index":0,"trial_index_global":2,"time_elapsed":208893,"internal_chunk_id":"0-0"},{"nsides":6,"question":"Now try one on your own! What is 4 <img src=./images/hexagon_symbol.png style=width:14px;height:14px> 5? <br /><br /> (Remember, to perform <img src=./images/hexagon_symbol.png style=width:14px;height:14px>, you can use the interactive diagram on the right, or perform the operation in your mind. Point the arrow at the first number on the hexagon, then move the arrow the second number of points clockwise around the hexagon. The number the arrow arrives at is your result.)","response_type":"free","response_choices":[],"correct_response":"3","response":"3","explain":false,"explanation":"","explanation_history":[],"orientation_history":[[0],[4.2487413713838835,4.2487413713838835,4.2487413713838835,4.2487413713838835,4.2487413713838835,4.2487413713838835,4.2487413713838835,4.2487413713838835,4.2487413713838835,4.2487413713838835,4.2487413713838835,4.2487413713838835,4.2487413713838835,4.2487413713838835,4.2487413713838835,4.2487413713838835,4.2487413713838835,4.2487413713838835,4.2487413713838835,4.2487413713838835,4.2487413713838835,4.2487413713838835,4.2487413713838835,4.2487413713838835,4.2487413713838835,4.2487413713838835,4.2487413713838835,4.2487413713838835,4.2487413713838835,4.2487413713838835,4.2487413713838835,4.2487413713838835,4.2487413713838835,4.2487413713838835,4.2487413713838835,4.2487413713838835,4.2487413713838835,4.2487413713838835,4.279981204814153,4.301324432994825,4.394440689033399,4.512560335311699,4.673946390363502,4.7901539199874215,4.907252900073562,5.018267851789542,5.099682583590766,5.143962031608195,5.191908272377286,5.232969813876349,5.242946867414137,5.252808480655274,5.252808480655274,5.252808480655274,5.252808480655274,5.252808480655274,5.252808480655274,5.252808480655274,5.252808480655274,5.252808480655274,5.252808480655274,5.252808480655274,5.252808480655274,5.252808480655274,5.252808480655274,5.252808480655274,5.252808480655274,5.252808480655274,5.278243307492749,5.335298034564934,5.4400003130112005,5.531672473686255,5.661525384896497,5.776086802787249,5.873539198554749,5.953859140131748,6.083501421804485,6.203806992620013,0,0.09647377518258682,0.14631528800503024,0.1651486774146267,0.17526637600308081,0.17526637600308081,0.17526637600308081,0.17526637600308081,0.17526637600308081,0.17526637600308081,0.17526637600308081,0.17526637600308081,0.17526637600308081,0.17526637600308081,0.17526637600308081,0.17526637600308081,0.17526637600308081,0.17526637600308081,0.17526637600308081,0.17526637600308081,0.1853479499956947,0.23515096970894378,0.33814252870464734,0.48251329502247686,0.689397873027963,0.8773368222796694,0.9880568325449244,1.0414000020730345,1.0584068664841588,1.062822931987113,1.062822931987113,1.062822931987113,1.062822931987113,1.062822931987113,1.062822931987113,1.062822931987113,1.062822931987113,1.062822931987113,1.062822931987113,1.062822931987113,1.062822931987113,1.062822931987113,1.062822931987113,1.062822931987113,1.062822931987113,1.062822931987113,1.062822931987113,1.062822931987113,1.062822931987113,1.1324597669369387,1.2271057198062918,1.3671378008173483,1.548328198209071,1.6738779353175968,1.774814306387445,1.832122307417399,1.87836343520023,1.899589018299851,1.9100889412489412,1.9100889412489412,1.9100889412489412,1.9100889412489412,1.9100889412489412,1.9100889412489412,1.9100889412489412,1.9100889412489412,1.9100889412489412,1.9100889412489412,1.9100889412489412,1.9100889412489412,1.9100889412489412,1.9100889412489412,1.9100889412489412,1.9698572753710304,2.095592098445004,2.2993452428595074,2.5346049895433853,2.72790344031093,2.8298752073405264,2.896613990462929,2.9421521068155583,2.9663262775867123,2.976443976175166,2.9865959116658525,2.996780155350854,3.0069947394293264,3.0286729928371905,3.029815612055314,3.039903801826716,3.0609597776446194,3.0810606338076862,3.0816644984685855,3.0816644984685855,3.0816644984685855,3.0816644984685855,3.0816644984685855,3.0816644984685855,3.0816644984685855,3.0816644984685855,3.0816644984685855,3.0816644984685855,3.0816644984685855,3.0816644984685855,3.0816644984685855,3.0816644984685855,3.0916342578678506,3.1020093796526966,3.112189365385788,3.112189365385788,3.112189365385788,3.112189365385788,3.112189365385788,3.112189365385788,3.112189365385788,3.1219873227325885,3.1219873227325885,3.1219873227325885,3.1219873227325885,3.1219873227325885,3.1219873227325885,3.1219873227325885,3.141592653589793]],"response_history":["3"],"rt":15297,"trial_type":"polygon-arrow-question","trial_index":0,"trial_index_global":3,"time_elapsed":224191,"internal_chunk_id":"0-0.3-0"},{"nsides":6,"feedback":"Correct! 4 <img src=./images/hexagon_symbol.png style=width:14px;height:14px> 5 = 3 because 5 steps clockwise on the hexagon from 4 brings us to 3","orientation_history":[0],"rt":4304,"trial_type":"polygon-arrow-feedback","trial_index":0,"trial_index_global":4,"time_elapsed":228497,"internal_chunk_id":"0-0.3-0"},{"nsides":6,"question":"What is 3 <img src=./images/hexagon_symbol.png style=width:14px;height:14px> 2? <br /><br /> (Remember, to perform <img src=./images/hexagon_symbol.png style=width:14px;height:14px>, you can use the interactive diagram on the right, or perform the operation in your mind. Point the arrow at the first number on the hexagon, then move the arrow the second number of points clockwise around the hexagon. The number the arrow arrives at is your result.)","response_type":"free","response_choices":[],"correct_response":"5","response":"5","explain":false,"explanation":"","explanation_history":[],"orientation_history":[[0],[3.141592653589793,3.141592653589793,3.141592653589793,3.141592653589793,3.141592653589793,3.141592653589793,3.141592653589793,3.141592653589793,3.141592653589793,3.141592653589793,3.141592653589793,3.141592653589793,3.141592653589793,3.141592653589793,3.141592653589793,3.141592653589793,3.141592653589793,3.141592653589793,3.141592653589793,3.1542502054238453,3.179549098778107,3.2047994854872535,3.2799436237669184,3.361654356223358,3.5124839424024557,3.627835286677298,3.7015324507041814,3.80263582244048,3.8651229711228616,3.891917486454016,3.909448756929839,3.9269908169872414,3.9620641475204668,3.997051399625697,4.049185987678596,4.066430874078579,4.110735347726364,4.117629722901337,4.127787724264364,4.127787724264364,4.127787724264364,4.127787724264364,4.127787724264364,4.127787724264364,4.127787724264364,4.127787724264364,4.127787724264364,4.134487043422444,4.204078355373863,4.305822153790148,4.454381738520734,4.63148488122946,4.82007885121751,4.9729913721320305,5.061159983968596,5.139016473511566,5.191499274445081,5.235667302516665,5.264043962913236,5.2732897876370615,5.2732897876370615,5.2732897876370615,5.2732897876370615,5.2732897876370615,5.2824294440844,5.2824294440844,5.29146324975242,5.29146324975242,5.29146324975242,5.235987755982988]],"response_history":["5"],"rt":5549,"trial_type":"polygon-arrow-question","trial_index":0,"trial_index_global":5,"time_elapsed":234047,"internal_chunk_id":"0-0.3-0"},{"nsides":6,"feedback":"Correct! 3 <img src=./images/hexagon_symbol.png style=width:14px;height:14px> 2 = 5 because 2 steps clockwise on the hexagon from 3 brings us to 5","orientation_history":[0],"rt":1715,"trial_type":"polygon-arrow-feedback","trial_index":0,"trial_index_global":6,"time_elapsed":235763,"internal_chunk_id":"0-0.3-0"},{"nsides":6,"question":"What is 1 <img src=./images/hexagon_symbol.png style=width:14px;height:14px> 5? <br /><br /> (Remember, to perform <img src=./images/hexagon_symbol.png style=width:14px;height:14px>, you can use the interactive diagram on the right, or perform the operation in your mind. Point the arrow at the first number on the hexagon, then move the arrow the second number of points clockwise around the hexagon. The number the arrow arrives at is your resu lt.)","response_type":"free","response_choices":[],"correct_response":"0","response":"0","explain":false,"explanation":"","explanation_history":[],"orientation_history":[[0],[1.005094858138719,1.005094858138719,1.005094858138719,1.005094858138719,1.005094858138719,1.005094858138719,1.005094858138719,1.005094858138719,1.005094858138719,1.005094858138719,1.005094858138719,1.005094858138719,1.005094858138719,1.005094858138719,1.005094858138719,1.005094858138719,1.005094858138719,1.005094858138719,1.005094858138719,1.005094858138719,1.005094858138719,1.005094858138719,1.005094858138719,1.005094858138719,1.005094858138719,1.005094858138719,1.005094858138719,1.005094858138719,1.005094858138719,1.005094858138719,1.005094858138719,1.005094858138719,1.005094858138719,1.005094858138719,1.005094858138719,1.005094858138719,1.005094858138719,1.005094858138719,1.005094858138719,1.005094858138719,1.005094858138719,1.005094858138719,1.005094858138719,1.005094858138719,1.005094858138719,1.005094858138719,1.005094858138719,1.0650050112004932,1.1749458854574806,1.288672594652181,1.4010180528265581,1.5569083308639295,1.7051177687478651,1.7966080083382518,1.8721415505050008,1.908674515035175,1.944293472901374,1.9559538331583708,1.9789454305499858,1.9789454305499858,2.0014888381814044,2.0344439357957027,2.0663480002807253,2.092887940623184,2.1132278967848466,2.123215251115242,2.1777839908413044,2.1962813670341257,2.2120401030791905,2.221023791543336,2.221023791543336,2.221023791543336,2.221023791543336,2.221023791543336,2.221023791543336,2.221023791543336,2.221023791543336,2.221023791543336,2.221023791543336,2.2612427838495885,2.3640683432164455,2.4737600643299884,2.5806918463374213,2.6541400184039174,2.733961148132166,2.819842099193151,2.90142164572962,2.957428835663501,3.0391488000826685,3.087101197349062,3.1058935409104693,3.106209197465642,3.106209197465642,3.106209197465642,3.106209197465642,3.106209197465642,3.106209197465642,3.106209197465642,3.106209197465642,3.106209197465642,3.106209197465642,3.115050215838396,3.1596087221438482,3.297187481566823,3.48599305563259,3.660738767836316,3.898829249999349,4.028679668750319,4.106253649394189,4.159547758792151,4.179745373155173,4.192121790374643,4.192121790374643,4.192121790374643,4.192121790374643,4.192121790374643,4.192121790374643,4.192121790374643,4.192121790374643,4.212320237169377,4.273529681421183,4.3936414199640454,4.5732930389026185,4.762347376106632,4.942910819428058,5.064433294700107,5.108628324995213,5.125869512531357,5.125869512531357,5.125869512531357,5.125869512531357,5.125869512531357,5.125869512531357,5.138239472890931,5.193276260580026,5.408473150788915,5.652783885706079,5.839736970759848,6.075129170388561,6.2008973174049045,6.211145241792758,6.211145241792758,6.211145241792758,6.211145241792758,6.211145241792758,6.211145241792758,6.211145241792758,6.283185307179586]],"response_history":["0"],"rt":6638,"trial_type":"polygon-arrow-question","trial_index":0,"trial_index_global":7,"time_elapsed":242403,"internal_chunk_id":"0-0.3-0"},{"nsides":6,"feedback":"Correct! 1 <img src=./images/hexagon_symbol.png style=width:14px;height:14px> 5 = 0 because 5 steps clockwise on the hexagon from 1 brings us to 0","orientation_history":[0],"rt":1337,"trial_type":"polygon-arrow-feedback","trial_index":0,"trial_index_global":8,"time_elapsed":243741,"internal_chunk_id":"0-0.3-0"},{"nsides":6,"question":"What is 1 <img src=./images/hexagon_symbol.png style=width:14px;height:14px> 1? <br /><br /> (Remember, to perform <img src=./images/hexagon_symbol.png style=width:14px;height:14px>, you can use the interactive diagram on the right, or perform the operation in your mind. Point the arrow at the first number on the hexagon, then move the arrow the second number of points clockwise around the hexagon. The number the arrow arrives at is your result.)","response_type":"free","response_choices":[],"correct_response":"2","response":"2","explain":false,"explanation":"","explanation_history":[],"orientation_history":[[0]],"response_history":["2"],"rt":3100,"trial_type":"polygon-arrow-question","trial_index":0,"trial_index_global":9,"time_elapsed":246841,"internal_chunk_id":"0-0.3-0"},{"nsides":6,"feedback":"Correct! 1 <img src=./images/hexagon_symbol.png style=width:14px;height:14px> 1 = 2 because 1 step clockwise on the hexagon from 1 brings us to 2","orientation_history":[0],"rt":672,"trial_type":"polygon-arrow-feedback","trial_index":0,"trial_index_global":10,"time_elapsed":247515,"internal_chunk_id":"0-0.3-0"},{"nsides":6,"question":"What is 3 <img src=./images/hexagon_symbol.png style=width:14px;height:14px> 0? <br /><br /> (Remember, to perform <img src=./images/hexagon_symbol.png style=width:14px;height:14px>, you can use the interactive diagram on the right, or perform the operation in your mind. Point the arrow at the first number on the hexagon, then move the arrow the second number of points clockwise around the hex agon. Th e number the arrow arrives at is your result.)","response_type":"free","response_choices":[],"correct_response":"3","response":"3","explain":false,"explanation":"","explanation_history":[],"orientation_history":[[0]],"response_history":["3"],"rt":2529,"trial_type":"polygon-arrow-question","trial_index":0,"trial_index_global":11,"time_elapsed":250045,"internal_chunk_id":"0-0.3-0"},{"nsides":6,"feedback":"Correct! 3 <img src=./images/hexagon_symbol.png style=width:14px;height:14px> 0 = 3 because 0 steps clockwise on the hexagon from 3 brings us to 3","orientation_history":[0],"rt":1032,"trial_type":"polygon-arrow-feedback","trial_index":0,"trial_index_global":12,"time_elapsed":251079,"internal_chunk_id":"0-0.3-0"},{"nsides":6,"question":"What is 4 <img src=./images/hexagon_symbol.png style=width:14px;height:14px> 4? <br /><br /> (Remember, to perform <img src=./images/hexagon_symbol.png style=width:14px;height:14px>, you can use the interactive diagram  on the r ight, or perform the operation in your mind. Point the arrow at the first number on the hexagon, then move the arrow the second number of points clockwise around the hexagon. The number the arrow arrives at is your result.)","response_type":"free","response_choices":[],"correct_response":"2","response":"2","explain":false,"explanation":"","explanation_history":[],"orientation_history":[[0]],"response_history":["2"],"rt":3070,"trial_type":"polygon-arrow-question","trial_index":0,"trial_index_global":13,"time_elapsed":254149,"internal_chunk_id":"0-0.3-0"},{"nsides":6,"feedback":"Correct! 4 <img src=./images/hexagon_symbol.png style=width:14px;height:14px> 4 = 2 because 4 steps clockwise on the hexagon from 4 brings us to 2","orientation_history":[0],"rt":632,"trial_type":"polygon-arrow-feedback","trial_index":0,"trial_index_global":14,"time_elapsed":254783,"internal_chunk_id":"0-0.3-0"},{"nsides":6,"question":"What is 1 <img src=./images/hexagon_symbol.png style= width:14 px;height:14px> 3? <br /><br /> (Remember, to perform <img src=./images/hexagon_symbol.png style=width:14px;height:14px>, you can use the interactive diagram on the right, or perform the operation in your mind. Point the arrow at the first number on the hexagon, then move the arrow the second number of points clockwise around the hexagon. The number the arrow arrives at is your result.)","response_type":"free","response_choices":[],"correct_response":"4","response":"4","explain":false,"explanation":"","explanation_history":[],"orientation_history":[[0]],"response_history":["4"],"rt":3451,"trial_type":"polygon-arrow-question","trial_index":0,"trial_index_global":15,"time_elapsed":258234,"internal_chunk_id":"0-0.3-0"},{"nsides":6,"feedback":"Correct! 1 <img src=./images/hexagon_symbol.png style=width:14px;height:14px> 3 = 4 because 3 steps clockwise on the hexagon from 1 brings us to 4","orientation_history":[0],"rt":697,"trial_type":"polygon-arrow-feedback","trial_index":0,"trial_index_global":16,"time_elapsed":258932,"internal_chunk_id":"0-0.3-0"},{"nsides":6,"question":"What is 4 <img src=./images/hexagon_symbol.png style=width:14px;height:14px> 3? <br /><br /> (Remember, to perform <img src=./images/hexagon_symbol.png style=width:14px;height:14px>, you can use the interactive diagram on the right, or perform the operation in your mind. Point the arrow at the first number on the hexagon, then move the arrow the second number of points clockwise around the hexagon. The number the arrow arrives at is your result.)","response_type":"free","response_choices":[],"correct_response":"1","response":"1","explain":false,"explanation":"","explanation_history":[],"orientation_history":[[0]],"response_history":["1"],"rt":3715,"trial_type":"polygon-arrow-question","trial_index":0,"trial_index_global":17,"time_elapsed":262649,"internal_chunk_id":"0-0.3-0"},{"nsides":6,"feedback":"Correct! 4 <img src=./images/hexagon_symbol.png s tyle=w idth:14px;height:14px> 3 = 1 because 3 steps clockwise on the hexagon from 4 brings us to 1","orientation_history":[0],"rt":636,"trial_type":"polygon-arrow-feedback","trial_index":0,"trial_index_global":18,"time_elapsed":263285,"internal_chunk_id":"0-0.3-0"},{"nsides":6,"question":"What is 0 <img src=./images/hexagon_symbol.png style=width:14px;height:14px> 5? <br /><br /> (Remember, to perform <img src=./images/hexagon_symbol.png style=width:14px;height:14px>, you can use the interactive diagram on the right, or perform the operation in your mind. Point the arrow at the first number on the hexagon, then move the arrow the second number of points clockwise around the hexagon. The number the arrow arrives at is your result.)","response_type":"free","response_choices":[],"correct_response":"5","response":"5","explain":false,"explanation":"","explanation_history":[],"orientation_history":[[0]],"response_history":["5"],"rt":3901,"trial_type":"polygon-arrow-ques tion","trial_index":0,"trial_index_global":19,"time_elapsed":267187,"internal_chunk_id":"0-0.3-0"},{"nsides":6,"feedback":"Correct! 0 <img src=./images/hexagon_symbol.png style=width:14px;height:14px> 5 = 5 because 5 steps clockwise on the hexagon from 0 brings us to 5","orientation_history":[0],"rt":615,"trial_type":"polygon-arrow-feedback","trial_index":0,"trial_index_global":20,"time_elapsed":267803,"internal_chunk_id":"0-0.3-0"},{"nsides":6,"question":"What is 2 <img src=./images/hexagon_symbol.png style=width:14px;height:14px> 5? <br /><br /> (Remember, to perform <img src=./images/hexagon_symbol.png style=width:14px;height:14px>, you can use the interactive diagram on the right, or perform the operation in your mind. Point the arrow at the first number on the hexagon, then move the arrow the second number of points clockwise around the hexagon. The number the arrow arrives at is your result.)","response_type":"free","response_choices":[],"correct_response":"1","response":"1","explain":false,"explanation":"","explanation_history":[],"orientation_history":[[0]],"response_history":["1"],"rt":9118,"trial_type":"polygon-arrow-question","trial_index":0,"trial_index_global":21,"time_elapsed":276921,"internal_chunk_id":"0-0.3-0"},{"nsides":6,"feedback":"Correct! 2 <img src=./images/hexagon_symbol.png style=width:14px;height:14px> 5 = 1 because 5 steps clockwise on the hexagon from 2 brings us to 1","orientation_history":[0],"rt":552,"trial_type":"polygon-arrow-feedback","trial_index":0,"trial_index_global":22,"time_elapsed":277474,"internal_chunk_id":"0-0.3-0"},{"nsides":6,"instructions":"Now we're going to discuss a couple special properties of this new operation, <img src=./images/hexagon_symbol.png style=width:14px;height:14px> that we've learned. First, notice that the number 0 behaves in a special way under <img src=./images/hexagon_symbol.png style=width:14px;height:14px>. Whenever we combine 0 with anything  else, we  get that same thing back. We'll say that 0 is the <i>identity</i> under <img src=./images/hexagon_symbol.png style=width:14px;height:14px>, because when you combine it with something it gives you that identical thing back.","orientation_history":[0],"rt":8822,"trial_type":"polygon-arrow-instructions","trial_index":0,"trial_index_global":23,"time_elapsed":286301,"internal_chunk_id":"0-0"},{"nsides":6,"instructions":"Now that we know 0 is the identity under <img src=./images/hexagon_symbol.png style=width:14px;height:14px>, we're going to make a new definition. We'll say that the <i>inverse</i> of a number is the element that you combine with it to produce the identity under our operation. For example, 5 <img src=./images/hexagon_symbol.png style=width:14px;height:14px> 1 = 0, so we say 1 is the inverse of 5 under <img src=./images/hexagon_symbol.png style=width:14px;height:14px>, (remember 0 is the identity under <img src=./images/hexagon_sy mbol.png  style=width:14px;height:14px>). Similarly, 3 is its own inverse under <img src=./images/hexagon_symbol.png style=width:14px;height:14px>, because 3 <img src=./images/hexagon_symbol.png style=width:14px;height:14px> 3 = 0.","orientation_history":[0],"rt":15213,"trial_type":"polygon-arrow-instructions","trial_index":0,"trial_index_global":24,"time_elapsed":301515,"internal_chunk_id":"0-0"},{"nsides":6,"question":"Now you try! What is the inverse of 4 under <img src=./images/hexagon_symbol.png style=width:14px;height:14px>? <br /><br /> (Remember, the inverse of an element is the thing which you combine with it to produce the identity.)","response_type":"free","response_choices":[],"correct_response":"2","response":"2","explain":false,"explanation":"","explanation_history":[],"orientation_history":[[0]],"response_history":["2"],"rt":4175,"trial_type":"polygon-arrow-question","trial_index":0,"trial_index_global":25,"time_elapsed":305691,"internal_chunk_id":"0-0.7-0"},{"nsides":6,"feedback":"Correct! The inverse of 4 under <img src=./images/hexagon_symbol.png style=width:14px;height:14px> is 2 because 4 <img src=./images/hexagon_symbol.png style=width:14px;height:14px> 2 = 0, and 0 is the identity under <img src=./images/hexagon_symbol.png style=width:14px;height:14px>.","orientation_history":[0],"rt":916,"trial_type":"polygon-arrow-feedback","trial_index":0,"trial_index_global":26,"time_elapsed":306609,"internal_chunk_id":"0-0.7-0"},{"nsides":6,"question":"What is the inverse of 1 under <img src=./images/hexagon_symbol.png style=width:14px;height:14px>? <br /><br /> (Remember, the inverse of an element is the thing which you combine with it to produce the identity.)","response_type":"free","response_choices":[],"correct_response":"5","response":"5","explain":false,"explanation":"","explanation_history":[],"orientation_history":[[0]],"response_history":["5"],"rt":2392,"trial_type":"polygon-arrow -questio n","trial_index":0,"trial_index_global":27,"time_elapsed":309001,"internal_chunk_id":"0-0.7-0"},{"nsides":6,"feedback":"Correct! The inverse of 1 under <img src=./images/hexagon_symbol.png style=width:14px;height:14px> is 5 because 1 <img src=./images/hexagon_symbol.png style=width:14px;height:14px> 5 = 0, and 0 is the identity under <img src=./images/hexagon_symbol.png style=width:14px;height:14px>.","orientation_history":[0],"rt":638,"trial_type":"polygon-arrow-feedback","trial_index":0,"trial_index_global":28,"time_elapsed":309641,"internal_chunk_id":"0-0.7-0"},{"nsides":6,"question":"What is the inverse of 3 under <img src=./images/hexagon_symbol.png style=width:14px;height:14px>? <br /><br /> (Remember, the inverse of an element is the thing which you combine with it to produce the identity.)","response_type":"free","response_choices":[],"correct_response":"3","response":"3","explain":false,"explanation":"","explanation_history":[],"orientation_history":[[0]],"response_history":["3"],"rt":2728,"trial_type":"polygon-arrow-question","trial_index":0,"trial_index_global":29,"time_elapsed":312369,"internal_chunk_id":"0-0.7-0"},{"nsides":6,"feedback":"Correct! The inverse of 3 under <img src=./images/hexagon_symbol.png style=width:14px;height:14px> is 3 because 3 <img src=./images/hexagon_symbol.png style=width:14px;height:14px> 3 = 0, and 0 is the identity under <img src=./images/hexagon_symbol.png style=width:14px;height:14px>.","orientation_history":[0],"rt":536,"trial_type":"polygon-arrow-feedback","trial_index":0,"trial_index_global":30,"time_elapsed":312905,"internal_chunk_id":"0-0.7-0"},{"nsides":6,"question":"What is the inverse of 2 under <img src=./images/hexagon_symbol.png style=width:14px;height:14px>? <br /><br /> (Remember, the inverse of an element is the thing which you combine with it to produce the identity.)","response_type":"free","response_choices":[],"correct_response":"4","response":"4","explain":false,"explanation":"","explanation_history":[],"orientation_history":[[0]],"response_history":["4"],"rt":2025,"trial_type":"polygon-arrow-question","trial_index":0,"trial_index_global":31,"time_elapsed":314931,"internal_chunk_id":"0-0.7-0"},{"nsides":6,"feedback":"Correct! The inverse of 2 under <img src=./images/hexagon_symbol.png style=width:14px;height:14px> is 4 because 2 <img src=./images/hexagon_symbol.png style=width:14px;height:14px> 4 = 0, and 0 is the identity under <img src=./images/hexagon_symbol.png style=width:14px;height:14px>.","orientation_history":[0],"rt":478,"trial_type":"polygon-arrow-feedback","trial_index":0,"trial_index_global":32,"time_elapsed":315411,"internal_chunk_id":"0-0.7-0"},{"nsides":6,"question":"What is the inverse of 0 under <img src=./images/hexagon_symbol.png style=width:14px;height:14px>? <br /><br /> (Remember, the inverse of an element is the thing which you combine with it to pro duce the  identity.)","response_type":"free","response_choices":[],"correct_response":"0","response":"0","explain":false,"explanation":"","explanation_history":[],"orientation_history":[[0]],"response_history":["0"],"rt":2032,"trial_type":"polygon-arrow-question","trial_index":0,"trial_index_global":33,"time_elapsed":317443,"internal_chunk_id":"0-0.7-0"},{"nsides":6,"feedback":"Correct! The inverse of 0 under <img src=./images/hexagon_symbol.png style=width:14px;height:14px> is 0 because 0 <img src=./images/hexagon_symbol.png style=width:14px;height:14px> 0 = 0, and 0 is the identity under <img src=./images/hexagon_symbol.png style=width:14px;height:14px>.","orientation_history":[0],"rt":492,"trial_type":"polygon-arrow-feedback","trial_index":0,"trial_index_global":34,"time_elapsed":317936,"internal_chunk_id":"0-0.7-0"},{"instructions":"It is also possible to successively apply <img src=./images/hexagon_symbol.png style=width:14px;height:14px>, and the  operati on can simply be performed starting with the left-most pair. For example, 2 <img src=./images/hexagon_symbol.png style=width:14px;height:14px> 3 <img src=./images/hexagon_symbol.png style=width:14px;height:14px> 4 = 5 <img src=./images/hexagon_symbol.png style=width:14px;height:14px> 4 = 3.","rt":6144,"trial_type":"instructions","trial_index":0,"trial_index_global":35,"time_elapsed":324081,"internal_chunk_id":"0-0"},{"nsides":6,"instructions":"We have one last definition to learn today, using the successive operations we just learned. Let's start with an example. Under our operation <img src=./images/hexagon_symbol.png style=width:14px;height:14px> we can make every other number using just 1: 2 = 1 <img src=./images/hexagon_symbol.png style=width:14px;height:14px> 1, 3 = 1 <img src=./images/hexagon_symbol.png style=width:14px;height:14px> 1 <img src=./images/hexagon_symbol.png style=width:14px;height:14px> 1, 4 = 1 <img  src=. /images/hexagon_symbol.png style=width:14px;height:14px> 1 <img src=./images/hexagon_symbol.png style=width:14px;height:14px> 1 <img src=./images/hexagon_symbol.png style=width:14px;height:14px> 1, 5 = 1 <img src=./images/hexagon_symbol.png style=width:14px;height:14px> 1 <img src=./images/hexagon_symbol.png style=width:14px;height:14px> 1 <img src=./images/hexagon_symbol.png style=width:14px;height:14px> 1 <img src=./images/hexagon_symbol.png style=width:14px;height:14px> 1, and 0 = 1 <img src=./images/hexagon_symbol.png style=width:14px;height:14px> 1 <img src=./images/hexagon_symbol.png style=width:14px;height:14px> 1 <img src=./images/hexagon_symbol.png style=width:14px;height:14px> 1 <img src=./images/hexagon_symbol.png style=width:14px;height:14px> 1 <img src=./images/hexagon_symbol.png style=width:14px;height:14px> 1. Because 1 can make every other element under <img src=./ images/h exagon_symbol.png style=width:14px;height:14px>, we say that 1 is a <i>generator</i> under <img src=./images/hexagon_symbol.png style=width:14px;height:14px>. <br /><br /> However, 2 is not a generator under <img src=./images/hexagon_symbol.png style=width:14px;height:14px>, because 4 = 2 <img src=./images/hexagon_symbol.png style=width:14px;height:14px> 2, and 0 = 2 <img src=./images/hexagon_symbol.png style=width:14px;height:14px> 2 <img src=./images/hexagon_symbol.png style=width:14px;height:14px> 2, but there is no way to make 1, 3, or 5 using just 2.","orientation_history":[0],"rt":97976,"trial_type":"polygon-arrow-instructions","trial_index":0,"trial_index_global":36,"time_elapsed":422058,"internal_chunk_id":"0-0"},{"nsides":6,"question":"Now you try! Is 3 a generator under <img src=./images/hexagon_symbol.png style=width:14px;height:14px>? <br /><br /> (Remember, a generator is an element which can make every other  element .)","response_type":"multi","response_choices":["Yes","No"],"correct_response":"No","response":"Yes","explain":false,"explanation":"","explanation_history":[],"orientation_history":[[0]],"response_history":["Yes"],"rt":14959,"trial_type":"polygon-arrow-question","trial_index":0,"trial_index_global":37,"time_elapsed":437018,"internal_chunk_id":"0-0.10-0"},{"nsides":6,"feedback":"Sorry, that's incorrect. 3 is not a generator under <img src=./images/hexagon_symbol.png style=width:14px;height:14px>, because 3 = 3, 0 = 3 <img src=./images/hexagon_symbol.png style=width:14px;height:14px> 3, but there is no way to make 1, 2, 4, or 5 using just 3.","orientation_history":[0,[3.1832352326883817,3.1832352326883817,3.1832352326883817,3.1832352326883817,3.1838210557027953,3.1838210557027953,3.1838210557027953,3.1838210557027953,3.1838210557027953,3.1838210557027953,3.1838210557027953,3.1838210557027953,3.1838210557027953,3.1838210557027953,3.1838210557027953,3.1838210557027953,3.1838210557027953,3.1838210557027953,3.1838210557027953,3.1838210557027953,3.1838210557027953,3.1838210557027953,3.1838210557027953,3.1838210557027953,3.1838210557027953,3.1838210557027953,3.1838210557027953,3.1838210557027953,3.1838210557027953,3.1838210557027953,3.1838210557027953,3.1838210557027953,3.1838210557027953,3.1978711898785552,3.239866606845802,3.297460854988116,3.383158360685119,3.472271542166272,3.579929213447751,3.6941770038805073,3.7878948755051702,3.8775262483856503,3.9745739202642247,4.066270076524088,4.165600139495442,4.2328696883920935,4.274376779905561,4.303143085185656,4.311764593515368,4.320048836169174,4.328014150615898,4.328014150615898,4.331882603272325,4.331882603272325,4.331882603272325,4.331882603272325,4.331882603272325,4.331882603272325,4.331882603272325,4.331882603272325,4.331882603272325,4.351185224891008,4.451786588637349,4.622742264063204,4.790879083022022,4.9492377413316095,5.06860863578084,5.1088302636031315,5.12294642842654,5.12294642842654,5.12294642842654,5.12294642842654,5.12294642842654,5.12294642842654,5.12294642842654,5.12294642842654,5.12294642842654,5.12294642842654,5.171205709091519,5.2698200719606305,5.465540261346884,5.756792942953166,6.054688667887724,6.273084640594265,0.13800602365751935,0.186979269918911,0.20254131203030568,0.20254131203030568,0.20254131203030568,0.20254131203030568,0.20254131203030568,0.20254131203030568,0.20254131203030568,0.20254131203030568,0.20254131203030568,0.20254131203030568,0.20254131203030568,0.20254131203030568,0.20254131203030568,0.20254131203030568,0.20254131203030568,0.1853479499956947,0.15333238839832264,0.12891077168399145,0.08391462693919127,0.028294333848503772,6.273661785585974,6.216617143403762,6.197680013501381,6.160002645038309,6.1506337748829125,6.1506337748829125,6.1506337748829125,6.1506337748829125,6.1506337748829125,6.1506337748829125,6.1506337748829125,6.1506337748829125,6.215328484323282,0.05933620570337128,0.17176015132820321,0.3185556770880671,0.4858661743275252,0.6067671568834989,0.7250687778577551,0.8184986521127865,0.8889228379079926,0.9327103275260373,0.9652516631899265,0.982793723247329,1.0074800653029286,1.019722739549679,1.0318942760424443,1.0318942760424443,1.0318942760424443,1.0318942760424443,1.0318942760424443,1.0318942760424443,1.0318942760424443,1.0318942760424443,1.0516502125483735,1.13193702783139,1.3114645823942117,1.611590009662762,1.8396368084738755,1.9495421423459807,1.97568811307998,1.9842768589415638,1.9842768589415638,1.9842768589415638,1.9842768589415638,1.9842768589415638,1.9842768589415638,2.0091328866528544,2.1179497320136,2.407999946983346,2.7686049317897323,3.057678026650602,3.2513196424738693,3.3549612957416013,3.384625793879472,3.398109266234117,3.398109266234117,3.398109266234117,3.398109266234117,3.398109266234117,3.398109266234117,3.398109266234117,3.398109266234117,3.398109266234117,3.398109266234117,3.398109266234117,3.398109266234117,3.398109266234117,3.398109266234117,3.398109266234117,3.141592653589793]],"rt":11982,"trial_type":"polygon-arrow-feedback","trial_index":0,"trial_index_global":38,"time_elapsed":449001,"internal_chunk_id":"0-0.10-0"},{"nsides":6,"question":"Is 5 a generator under <img src=./images/hexagon_symbol.png style=width:14px;height:14px>? <br /><br /> (Remember, a generator is an element which can make every other element.)","response_type":"multi","response_choices":["Yes","No"],"correct_response":"Yes","response":"Yes","explain":false,"explanation":"","explanation_history":[],"orientation_history":[[0],[5.2602525118865255,5.247808522321316,5.235178065765092,5.222361040086103,5.222361040086103,5.222361040086103,5.222361040086103,5.222361040086103,5.222361040086103,5.222361040086103,5.222361040086103,5.222361040086103,5.222361040086103,5.222361040086103,5.222361040086103,5.222361040086103,5.222361040086103,5.222361040086103,5.222361040086103,5.222361040086103,5.304575659934332,5.39700614469747,5.509280890497168,5.626483645060151,5.737018743745798,5.908851691172002,6.0791673275870375,6.167043680299596,6.20140092656159,6.20140092656159,6.20140092656159,6.20140092656159,6.20140092656159,6.20140092656159,6.20140092656159,6.20140092656159,6.20140092656159,6.20140092656159,6.20140092656159,6.20140092656159,6.20140092656159,6.20140092656159,6.20140092656159,6.20140092656159,6.20140092656159,6.20140092656159,0,0.2368487609469201,0.5880026035475675,0.8224182792713782,0.9763213217200335,1.0688898837429033,1.1164942401015803,1.1164942401015803,1.1164942401015803,1.1164942401015803,1.1164942401015803,1.1164942401015803,1.1164942401015803,1.1164942401015803,1.1164942401015803,1.1164942401015803,1.1164942401015803,1.1164942401015803,1.1164942401015803,1.1164942401015803,1.1164942401015803,1.1164942401015803,1.1450452576329289,1.2597980461893556,1.4698745421276027,1.7424243951757765,1.965587446494658,2.09448098779114,2.1456849280649886,2.16527133186976,2.16527133186976,2.16527133186976,2.16527133186976,2.16527133186976,2.16527133186976,2.16527133186976,2.16527133186976,2.16527133186976,2.16527133186976,2.16527133186976,2.16527133186976,2.16527133186976,2.1748747157908546,2.2491670171429705,2.405335224608365,2.569563132344153,2.7815333242387412,2.9921769436733254,3.0471377181947465,3.090091842638568,3.090091842638568,3.090091842638568,3.090091842638568,3.090091842638568,3.090091842638568,3.090091842638568,3.090091842638568,3.090091842638568,3.090091842638568,3.13128374044355,3.2264944470395154,3.351918527254851,3.570078880635571,3.778485929042964,3.9345094722995455,4.021598052106971,4.050447339179182,4.056693354143153,4.064797914846709,4.064797914846709,4.064797914846709,4.064797914846709,4.064797914846709,4.064797914846709,4.064797914846709,4.064797914846709,4.064797914846709,4.064797914846709,4.064797914846709,4.064797914846709,4.064797914846709,4.064797914846709,4.064797914846709,4.064797914846709,4.064797914846709,4.064797914846709,4.064797914846709,4.064797914846709,4.064797914846709,4.064797914846709,4.064797914846709,4.064797914846709,4.064797914846709,4.064797914846709,4.064797914846709,4.064797914846709,4.064797914846709,4.064797914846709,4.064797914846709,4.064797914846709,4.064797914846709,4.064797914846709,4.064797914846709,4.064797914846709,4.101663015995481,4.286637911222722,4.626578715688188,4.774165941945039,4.957367643511554,5.066768899508127,5.122146908309073,5.142853753218997,5.159577170550715,5.159577170550715,5.159577170550715,5.159577170550715,5.159577170550715,5.159577170550715,5.159577170550715,5.159577170550715,5.159577170550715,5.180238245332367,5.227937987843669,5.320561758832419,5.4353683337861805,5.619139144352902,5.855604525494959,6.057226089490945,6.16156628391824,6.218758467754032,6.240201047311815,6.240657772559802,6.240657772559802,6.251281242694564,6.261911921155525,0.010637896575541372,0.0425275346197842,0.0954537143327141,0.16859693960942956,0.2424470229658553,0.318450236346155,0.3805063771123649,0.40763150545762694,0.45430208669331607,0.49681080150337076,0.575918599618353,0.7219912114306163,1.0065281379369648,1.1921452351234192,1.3304365684650887,1.3950580301095297,1.4711276743037345,1.5172760583355815,1.5619470002786389,1.6326641726592765,1.6678357127768961,1.807041587513334,1.9619217737639256,2.204589002754072,2.459276098715045,2.7716865861332356,2.947794200527456,3.124203102300463,3.2741441858864673,3.3865713167166573,3.4388249614074846,3.574000429160331,4.1887902047863905]],"response_history":["Yes"],"rt":5820,"trial_type":"polygon-arrow-question","trial_index":0,"trial_index_global":39,"time_elapsed":454821,"internal_chunk_id":"0-0.10-0"},{"nsides":6,"feedback":"Correct! 5 is a generator under <img src=./images/hexagon_symbol.png style=width:14px;height:14px>, because 5 = 5, 4 = 5 <img src=./images/hexagon_symbol.png style=width:14px;height:14px> 5, 3 = 5 <img src=./images/hexagon_symbol.png style=width:14px;height:14px> 5 <img src=./images/hexagon_symbol.png style=width:14px;height:14px> 5, 2 = 5  <img sr c=./images/hexagon_symbol.png style=width:14px;height:14px> 5 <img src=./images/hexagon_symbol.png style=width:14px;height:14px> 5 <img src=./images/hexagon_symbol.png style=width:14px;height:14px> 5, 1 = 5 <img src=./images/hexagon_symbol.png style=width:14px;height:14px> 5 <img src=./images/hexagon_symbol.png style=width:14px;height:14px> 5 <img src=./images/hexagon_symbol.png style=width:14px;height:14px> 5 <img src=./images/hexagon_symbol.png style=width:14px;height:14px> 5, and 0 = 5 <img src=./images/hexagon_symbol.png style=width:14px;height:14px> 5 <img src=./images/hexagon_symbol.png style=width:14px;height:14px> 5 <img src=./images/hexagon_symbol.png style=width:14px;height:14px> 5 <img src=./images/hexagon_symbol.png style=width:14px;height:14px> 5 <img src=./images/hexagon_symbol.png style=width:14px;height:14px> 5, so you can make all of the numbers under <img src=. /images/ hexagon_symbol.png style=width:14px;height:14px> using 5","orientation_history":[0],"rt":1012,"trial_type":"polygon-arrow-feedback","trial_index":0,"trial_index_global":40,"time_elapsed":455835,"internal_chunk_id":"0-0.10-0"},{"nsides":6,"question":"Is 4 a generator under <img src=./images/hexagon_symbol.png style=width:14px;height:14px>? <br /><br /> (Remember, a generator is an element which can make every other element.)","response_type":"multi","response_choices":["Yes","No"],"correct_response":"No","response":"No","explain":false,"explanation":"","explanation_history":[],"orientation_history":[[0],[4.131306681587363,4.131306681587363,4.131306681587363,4.131306681587363,4.131306681587363,4.131306681587363,4.131306681587363,4.131306681587363,4.131306681587363,4.131306681587363,4.131306681587363,4.131306681587363,4.131306681587363,4.131306681587363,4.131306681587363,4.131306681587363,4.131306681587363,4.131306681587363,4.131306681587363,4.131306681587363,4.131306681587363,4.131306681587363,4.131306681587363,4.131306681587363,4.131306681587363,4.131306681587363,4.131306681587363,4.131306681587363,4.131306681587363,4.131306681587363,4.131306681587363,4.131306681587363,4.131306681587363,4.131306681587363,4.1418062173889005,4.152449183270301,4.197937667325662,4.266283431441286,4.411911812012109,4.57625001953155,4.739049328759288,4.960502429481366,5.069697663392789,5.154763203361434,5.196338368244714,5.225994985107438,5.245232868004079,5.254691717600294,5.254691717600294,5.254691717600294,5.264043962913236,5.264043962913236,5.264043962913236,5.264043962913236,5.264043962913236,5.264043962913236,5.264043962913236,5.264043962913236,5.264043962913236,5.264043962913236,5.264043962913236,5.264043962913236,5.264043962913236,5.264043962913236,5.264043962913236,5.294294098524575,5.424746578479018,5.573273688716061,5.771446464864228,5.957689451943108,6.041113612608467,6.104392252376664,6.11608350724848,6.118036629764959,6.12964152464003,6.12964152464003,6.12964152464003,6.12964152464003,6.12964152464003,6.12964152464003,6.12964152464003,6.12964152464003,6.12964152464003,6.12964152464003,6.12964152464003,6.12964152464003,6.12964152464003,6.12964152464003,6.234443455869655,0.1610919045375805,0.34061624041831284,0.5148847764042248,0.6629371059801068,0.7188299996216244,0.7635038522746699,0.778099022953751,0.778099022953751,0.778099022953751,0.778099022953751,0.778099022953751,0.778099022953751,0.778099022953751,0.778099022953751,0.778099022953751,0.778099022953751,0.778099022953751,0.778099022953751,0.8387825068881836,1.0022717790638564,1.3759324071060246,1.660300145146507,1.9185633146519119,1.9786642947688067,2.004749696188793,2.004749696188793,2.0147420518828936,2.0147420518828936,2.0147420518828936,2.0147420518828936,2.0147420518828936,2.0147420518828936,2.0147420518828936,2.0147420518828936,2.0147420518828936,2.0147420518828936,2.0147420518828936,2.0147420518828936,2.0147420518828936,2.0147420518828936,2.0147420518828936,2.0147420518828936,2.0147420518828936,2.0147420518828936,2.1456849280649886,2.3837104794777995,2.7734618822646295,2.976443976175166,3.035327790698714,3.1266683885997084,3.1266683885997084,3.1266683885997084,3.1266683885997084,3.1266683885997084,3.1266683885997084,3.1266683885997084,3.1266683885997084,3.1266683885997084,3.1266683885997084,3.1266683885997084,3.1266683885997084,3.1266683885997084,3.1266683885997084,3.1266683885997084,3.1266683885997084,3.1728324870200613,3.30674133100442,4.037648038161137,4.527041030388995,4.691115594360628,4.76152971480071,4.770295185632797,4.769469762790955,4.769469762790955,4.769469762790955,4.769469762790955,4.769469762790955,4.769469762790955,4.769469762790955,4.769469762790955,4.769469762790955,4.769469762790955,4.769469762790955,4.769469762790955,4.769469762790955,4.769469762790955,4.769469762790955,4.769469762790955,4.769469762790955,4.810662933640699,4.891019986898639,4.941187825771915,5.034139534781332,5.11091142605111,5.16545497376442,5.186507410890192,5.186507410890192,5.196866909421713,5.207114662868938,5.207114662868938,5.207114662868938,5.207114662868938,5.207114662868938,5.207114662868938,5.207114662868938,5.207114662868938,5.207114662868938,5.207114662868938,5.207114662868938,5.217250352043816,5.2272737567889145,5.268555210505143,5.39644064051647,5.644550340025601,5.898321659167924,6.083629923474299,6.2428032316150865,0.039195601927054735,0.039195601927054735,0.039195601927054735,0.039195601927054735,0.04898040092372713,0.04898040092372713,0.04898040092372713,0.04898040092372713,0.04898040092372713,0.04898040092372713,0.04898040092372713,0.04898040092372713,0.04898040092372713,0.04898040092372713,0.04898040092372713,0.04898040092372713,0.04898040092372713,0.09065988720074514,0.1703751106626159,0.26625204915092526,0.3887877612900392,0.609806001447268,0.8450288765286177,1.007047726376126,1.1111972786701187,1.1427068464055483,1.1427068464055483,1.1427068464055483,1.1427068464055483,1.1427068464055483,1.1427068464055483,1.1427068464055483,1.1427068464055483,1.1427068464055483,1.1427068464055483,1.1427068464055483,1.1427068464055483,1.1427068464055483,1.1427068464055483,1.1427068464055483,1.1427068464055483,1.1507718191422451,1.1952732971347029,1.281104755549737,1.4288992721907325,1.5999143083019354,1.7873466317709858,1.889543887215541,1.9251762459183344,1.9251762459183344,1.9251762459183344,1.9251762459183344,1.9251762459183344,1.9251762459183344,1.9251762459183344,1.9251762459183344,1.9251762459183344,1.9251762459183344,1.9251762459183344,1.9251762459183344,1.9339433367410728,2.0431017281254498,2.12309981766314,2.378413055519064,2.586414077469189,2.740968266720471,2.805954103262184,2.8373841592505533,2.858691800061708,2.86177554506655,2.86177554506655,2.86177554506655,2.86177554506655,2.86177554506655,2.86177554506655,2.86177554506655,2.86177554506655,2.86177554506655,2.86177554506655,2.86177554506655,2.86177554506655,2.86177554506655,2.86177554506655,2.8831377173817745,2.976443976175166,3.206436681143,3.4633432079864352,3.8912917043079176,4.157210404264085,4.2826267012880015,4.316908680918093,4.331882603272325,4.331882603272325,4.331882603272325,4.331882603272325,4.331882603272325,4.331882603272325,4.331882603272325,4.331882603272325,4.331882603272325,4.331882603272325,4.331882603272325,4.331882603272325,4.331882603272325,4.331882603272325,4.331882603272325,4.35675309608393,4.434089321379578,4.5677745411647495,4.742083219991599,4.962163769805938,5.083788141169938,5.137429173257345,5.16332540962207,5.176036589385496,5.176036589385496,5.176036589385496,5.176036589385496,5.176036589385496,5.176036589385496,5.176036589385496,5.176036589385496,5.176036589385496,5.176036589385496,5.176036589385496,5.176036589385496,5.176036589385496,5.201781972612547,5.35998004592267,5.648158571789272,5.847832032027284,6.04321913340094,6.164927798040507,6.204914166658308,6.204914166658308,6.204914166658308,6.204914166658308,6.204914166658308,6.204914166658308,6.204914166658308,6.204914166658308,6.204914166658308,6.204914166658308,6.204914166658308,6.204914166658308,6.204914166658308,6.204914166658308,6.204914166658308,6.234204906255859,0.05875582271572255,0.1954908002486806,0.37337637316020467,0.540419500270584,0.7266423406817255,0.835356559119391,0.8716037370732271,0.8771642448372546,0.8771642448372546,0.8771642448372546,0.8771642448372546,0.8771642448372546,0.8771642448372546,0.8771642448372546,0.8893169420887396,0.9433080841069637,1.13770688807159,1.4849860620983943,1.8892465631410515,2.158798930342464,2.2848870254070546,2.321725389192837,2.327630832353585,2.327630832353585,2.327630832353585,2.327630832353585,2.327630832353585,2.327630832353585,2.356194490192345,2.0943951023931953]],"response_history":["No"],"rt":8652,"trial_type":"polygon-arrow-question","trial_index":0,"trial_index_global":41,"time_elapsed":464487,"internal_chunk_id":"0-0.10-0"},{"nsides":6,"feedback":"Correct! 4 is not a generator under <img src=./images/hexagon_symbol.png style=width:14px;height: 14px>,  because 4 = 4, 2 = 4 <img src=./images/hexagon_symbol.png style=width:14px;height:14px> 4, and 0 = 4 <img src=./images/hexagon_symbol.png style=width:14px;height:14px> 4 <img src=./images/hexagon_symbol.png style=width:14px;height:14px> 4, but there is no way to make 1, 3, or 5 using just 4.","orientation_history":[0],"rt":679,"trial_type":"polygon-arrow-feedback","trial_index":0,"trial_index_global":42,"time_elapsed":465166,"internal_chunk_id":"0-0.10-0"},{"nsides":6,"question":"Is 0 a generator under <img src=./images/hexagon_symbol.png style=width:14px;height:14px>? <br /><br /> (Remember, a generator is an element which can make every other element.)","response_type":"multi","response_choices":["Yes","No"],"correct_response":"No","response":"No","explain":false,"explanation":"","explanation_history":[],"orientation_history":[[0]],"response_history":["No"],"rt":3749,"trial_type":"polygon-arrow-question","trial_index":0,"trial_index_global":43,"time_elapsed":468916,"internal_chunk_id":"0-0.10-0"},{"nsides":6,"feedback":"Correct! 0 is not a generator under <img src=./images/hexagon_symbol.png style=width:14px;height:14px>, because 0 = 0, but there is no way to make 1, 2, 3, 4, or 5 using just 0.","orientation_history":[0],"rt":825,"trial_type":"polygon-arrow-feedback","trial_index":0,"trial_index_global":44,"time_elapsed":469742,"internal_chunk_id":"0-0.10-0"},{"nsides":9,"instructions":"Now we are going to ask you some questions about a new operation, <img src=./images/nonagon_symbol.png style=width:14px;height:14px>, on the numbers 0, 1, 2, 3, 4, 5, 6, 7, 8. It works exactly like <img src=./images/hexagon_symbol.png style=width:14px;height:14px>, except now you use the nonagon shown at the right. <br /><br />Do you see how <img src=./images/nonagon_symbol.png style=width:14px;height:14px> works just like <img src=./images/hexagon_symbol.png style=width:14px;height:14px>? By lab eling th e points of the nonagon with the numbers from 0 to 8, we ensure that when we combine two numbers under <img src=./images/nonagon_symbol.png style=width:14px;height:14px>, we only produce numbers between 0 and 8. <br /><br />We'll give you one practice question with feedback to make sure you understand the new operation. After that, try to complete the remaining questions as accurately as possible.","orientation_history":[0],"rt":16509,"trial_type":"polygon-arrow-instructions","trial_index":0,"trial_index_global":45,"time_elapsed":486253,"internal_chunk_id":"0-0"},{"nsides":9,"question":"Practice: What is 5 <img src=./images/nonagon_symbol.png style=width:14px;height:14px> 5?","response_type":"free","response_choices":[],"correct_response":"1","response":"1","explain":false,"explanation":"","explanation_history":[],"orientation_history":[[0],[3.4801483485014773,3.4801483485014773,3.4801483485014773,3.4801483485014773,3.4801483485014773,3.4801483485014773,3.4801483485014773,3.4801483485014773,3.4801483485014773,3.4801483485014773,3.4801483485014773,3.4801483485014773,3.467562592229439,3.467562592229439,3.4801483485014773,3.504985787085024,3.5343533192271144,3.587169940564375,3.698717043749189,3.7964247221876137,3.907385486130037,4.014148091541525,4.050173479128517,4.098369943376749,4.124386376837123,4.124386376837123,4.124386376837123,4.124386376837123,4.124386376837123,4.124386376837123,4.124386376837123,4.124386376837123,4.124386376837123,4.124386376837123,4.124386376837123,4.124386376837123,4.124386376837123,4.124386376837123,4.124386376837123,4.124386376837123,4.124386376837123,4.124386376837123,4.183358509305041,4.254729323767797,4.331882603272325,4.4110437566745855,4.4894887480563135,4.559739651989425,4.612720327893528,4.651488772106702,4.700194462936437,4.724436590238875,4.736480703809611,4.748517830897465,4.748517830897465,4.7480880930640135,4.7480880930640135,4.7480880930640135,4.7480880930640135,4.7480880930640135,4.7480880930640135,4.7480880930640135,4.7480880930640135,4.7480880930640135,4.7480880930640135,4.7480880930640135,4.819124653033825,4.937427266877295,5.103624559511864,5.266243372856487,5.360200407311789,5.385479759089563,5.3936872056725385,5.3936872056725385,5.3936872056725385,5.3936872056725385,5.3936872056725385,5.3936872056725385,5.3936872056725385,5.3936872056725385,5.3936872056725385,5.3936872056725385,5.3936872056725385,5.3936872056725385,5.3936872056725385,5.3936872056725385,5.3936872056725385,5.3936872056725385,5.3936872056725385,5.3936872056725385,5.415268189349156,5.535363433124861,5.644022565961924,5.795152289006062,5.912861877476812,5.982265072819161,6.024730370971568,6.024730370971568,6.024730370971568,6.024730370971568,6.024730370971568,6.024730370971568,6.024730370971568,6.024730370971568,6.024730370971568,6.024730370971568,6.024730370971568,6.024730370971568,6.024730370971568,6.068170425432079,6.180103698656886,0.04594465580811957,0.20401797959254853,0.3663944107492403,0.5191461142465228,0.6043055068662296,0.6337926759591754,0.6415706092609995,0.6415706092609995,0.6415706092609995,0.6415706092609995,0.6415706092609995,0.6415706092609995,0.6415706092609995,0.6415706092609995,0.6981317007977318]],"response_history":["1"],"rt":5611,"trial_type":"polygon-arrow-question","trial_index":0,"trial_index_global":46,"time_elapsed":491864,"internal_chunk_id":"0-0.12-0"},{"nsides":9,"feedback":"Correct! 5 <img src=./images/nonagon_symbol.png style=width:14px;height:14px> 5 = 1 because 5 steps clockwise on the nonagon from 5 brings us to 1","orientation_history":[0],"rt":676,"trial_type":"polygon-arrow-feedback","trial_index":0,"trial_index_global":47,"time_elapsed":492541,"internal_chunk_id":"0-0.12-0"},{"nsides":9,"question":"What is 3 <img src=./images/nonagon_symbol.png style=width:14px;height:14px> 3?","response_type":"free","response_choices":[],"correct_response":"6","response":"6","explain":false,"explanation":"","explanation_history":[],"orientation_history":[[0]],"response_history":["6"],"rt":3699,"trial_type":"polygon-arrow-question","trial_index":0,"trial_index_global":48,"time_elapsed":496241,"internal_chunk_id":"0-0.12-0"},{"nsides":9,"question":"What is 7 <img src=./images/nonagon_symbol.png style=width:14px;height:14px> 4?","response_type":"free","response_choices":[],"correct_response":"2","response":"2","explain":false,"explanation":"","explanation_history":[],"orientation_history":[[0]],"response_history":["2"],"rt":4051,"trial_type":"polygon-arrow-question","trial_index":0,"trial_index_global":49,"time_elapsed":500293,"internal_chunk_id":"0-0.12-0"},{"nsides":9,"question":"What is 1 <img src=./images/nonagon_symbol.png style=width:14px;height:14px> 8?","response_type":"free","response_choices":[],"correct_response":"0","response":"0","explain":false,"explanation":"","explanation_history":[],"orientation_history":[[0]],"response_history":["0"],"rt":7095,"trial_type":"polygon-arrow-question","trial_index":0,"trial_index_global":50,"time_elapsed":507390,"internal_chunk_id":"0-0.12-0"},{"nsides":9,"question":"What is 5 <img src=./images/nonagon_symbol.png style=width:14px;height:14px> 4?","response_type":"free","response_choices":[],"correct_response":"0","response":"0","explain":false,"explanation":"","explanation_history":[],"orientation_history":[[0]],"response_history":["0"],"rt":7963,"trial_type":"polygon-arrow-question","trial_index":0,"trial_index_global":51,"time_elapsed":515354,"internal_chunk_id":"0-0.12-0"},{"nsides":9,"question":"What is 6 <img src=./images/nonagon_symbol.png style=width:14px;height:14px> 6?","response_type":"free","response_choices":[],"correct_response":"3","response":"3","explain":false,"explanation":"","explanation_history":[],"orientation_history":[[0]],"response_history":["3"],"rt":4756,"trial_type":"polygon-arrow-question","trial_index":0,"trial_index_global":52,"time_elapsed":520111,"internal_chunk_id":"0-0.12-0"},{"nsides":9,"instructions":"On the following question, and several others later in the HIT, we will ask you to explain how you got your answer. On these questions, you will be given one box for your answer to the question, and a second for your explanation. Please explain your thought process in as much detail as possible (at least one sentence, and more if you can).","orientation_history":[0],"rt":27222,"trial_type":"polygon-arrow-instructions","trial_index":0,"trial_index_global":53,"time_elapsed":547333,"internal_chunk_id":"0-0.12-0"},{"nsides":9,"question":"What is 4 <img src=./images/nonagon_symbol.png style=width:14px;height:14px> 1? Please explain in words how you got your answer.","response_type":"free","response_choices":[],"correct_response":"5","response":"5","explain":true,"explanation":"I began at the number 4, and moved the counter clockwise one, which gave me five. It was the equivalent of doing 4 + 1.","explanation_history":["I began at the number 4, and moved the counte r clockw ise one, which gave me five. It was the equivalent of doing 4 + 1."],"orientation_history":[[0]],"response_history":["5"],"rt":32823,"trial_type":"polygon-arrow-question","trial_index":0,"trial_index_global":54,"time_elapsed":580157,"internal_chunk_id":"0-0.12-0"},{"nsides":9,"question":"What is 8 <img src=./images/nonagon_symbol.png style=width:14px;height:14px> 4? Please explain in words how you got your answer.","response_type":"free","response_choices":[],"correct_response":"3","response":"3","explain":true,"explanation":"I pointed the counter at 8, and rotated it four spaces to 3. It resents after 8, so it's essentially 8 + 1 = 0, so 0 + 3 = 3.","explanation_history":["I pointed the count er 8","I pointed the counter at 8, adn ","I pointed the counter at 8, adn","I pointed the counter at 8, ad","I pointed the counter at 8, and rotated it four spc","I pointed the counter at 8, and rotated it four spaces to 3. It resents after 8, so it's essentially 0 + 3","I poin ted the  counter at 8, and rotated it four spaces to 3. It resents after 8, so it's essentially 0 + ","I pointed the counter at 8, and rotated it four spaces to 3. It resents after 8, so it's essentially 0 +","I pointed the counter at 8, and rotated it four spaces to 3. It resents after 8, so it's essentially 0 ","I pointed the counter at 8, and rotated it four spaces to 3. It resents after 8, so it's essentially 0","I pointed the counter at 8, and rotated it four spaces to 3. It resents after 8, so it's essentially 8 + 1 = 0, so 0 + 3 = 3."],"orientation_history":[[0]],"response_history":["3"],"rt":76664,"trial_type":"polygon-arrow-question","trial_index":0,"trial_index_global":55,"time_elapsed":656821,"internal_chunk_id":"0-0.12-0"},{"nsides":9,"question":"What is the identity under <img src=./images/nonagon_symbol.png style=width:14px;height:14px>? Please explain in words how you got your answer.","response_type":"free","response_choices":[],"correct_response":"0","response":"0","explain":true,"explanation":"0 is the identity because when any number is operated on using the function by a factor of 0, it equals itself.","explanation_history":["0 is the identity because when anything is ad","0 is the identity because when anything is a","0 is the identity because when anything is placed o","0 is the identity because when anything is placed ","0 is the identity because when anything is placed","0 is the identity because when anything is place","0 is the identity because when anything is plac","0 is the identity because when anything is pla","0 is the identity because when anything is pl","0 is the identity because when anything is p","0 is the identity because when anything is ","0 is the identity because when any number is operated on using the function by a factor of 0, it equals itself."],"orientation_history":[[0]],"response_history":["0"],"rt":89459,"trial_type":"polygon-arrow-question","trial_index":0,"trial_index_global":56,"time_elapsed":746281,"internal_chunk_id":"0-0.12-0"},{"nsides":9,"question":"What is the inverse of 5 under <img src=./images/nonagon_symbol.png style=width:14px;height:14px>?","response_type":"free","response_choices":[],"correct_response":"4","response":"4","explain":false,"explanation":"","explanation_history":[],"orientation_history":[[0]],"response_history":["4"],"rt":15291,"trial_type":"polygon-arrow-question","trial_index":0,"trial_index_global":57,"time_elapsed":761573,"internal_chunk_id":"0-0.12-0"},{"nsides":9,"question":"What is the inverse of 2 under <img src=./images/nonagon_symbol.png style=width:14px;height:14px>?","response_type":"free","response_choices":[],"correct_response":"7","response":"7","explain":false,"explanation":"","explanation_history":[],"orientation_history":[[0]],"response_history":["7"],"rt":4446,"trial_type":"polygon-arrow-question","trial_index":0,"trial_index_global":58,"time_elapsed":766019,"internal_chunk_id":"0-0.12-0"},{"nsides":9,"question":"What  is the  inverse of 0 under <img src=./images/nonagon_symbol.png style=width:14px;height:14px>?","response_type":"free","response_choices":[],"correct_response":"0","response":"0","explain":false,"explanation":"","explanation_history":[],"orientation_history":[[0]],"response_history":["0"],"rt":2048,"trial_type":"polygon-arrow-question","trial_index":0,"trial_index_global":59,"time_elapsed":768068,"internal_chunk_id":"0-0.12-0"},{"nsides":9,"question":"What is the inverse of 3 under <img src=./images/nonagon_symbol.png style=width:14px;height:14px>? Please explain in words how you got your answer.","response_type":"free","response_choices":[],"correct_response":"6","response":"6","explain":true,"explanation":"It takes 6 jumps to get 3 to equal 0 on the diagram. You can view it if you equate 0 to 9. 9 - x = 3, x = 6.","explanation_history":["M","It takes 6 jumps to get the","It takes 6 jumps to get th","It takes 6 jumps to get t","It takes 6 jumps to get 3 to equal 0 o n the no nagon. You can ","It takes 6 jumps to get 3 to equal 0 on the non","It takes 6 jumps to get 3 to equal 0 on the no","It takes 6 jumps to get 3 to equal 0 on the n","It takes 6 jumps to get 3 to equal 0 on the diagram. You can view it as, what doe","It takes 6 jumps to get 3 to equal 0 on the diagram. You can view it as, what do","It takes 6 jumps to get 3 to equal 0 on the diagram. You can view it as, what d","It takes 6 jumps to get 3 to equal 0 on the diagram. You can view it as, what d","It takes 6 jumps to get 3 to equal 0 on the diagram. You can view it as, what needs ","It takes 6 jumps to get 3 to equal 0 on the diagram. You can view it as, what ","It takes 6 jumps to get 3 to equal 0 on the diagram. You can view it as, what","It takes 6 jumps to get 3 to equal 0 on the diagram. You can view it as, wha","It takes 6 jumps to get 3 to equal 0 on the diagram. You can view it as, wh","It takes 6 jumps to get 3 to equal 0 on the diagram. You can view it as, w","It takes 6  jumps to  get 3 to equal 0 on the diagram. You can view it as, ","It takes 6 jumps to get 3 to equal 0 on the diagram. You can view it as,","It takes 6 jumps to get 3 to equal 0 on the diagram. You can view it as","It takes 6 jumps to get 3 to equal 0 on the diagram. You can view it a","It takes 6 jumps to get 3 to equal 0 on the diagram. You can view it if you equate 0 to 9. 9 x","It takes 6 jumps to get 3 to equal 0 on the diagram. You can view it if you equate 0 to 9. 9 - x = 3, x = 6."],"orientation_history":[[0]],"response_history":["6"],"rt":47057,"trial_type":"polygon-arrow-question","trial_index":0,"trial_index_global":60,"time_elapsed":815126,"internal_chunk_id":"0-0.12-0"},{"nsides":9,"question":"Is 2 a generator under <img src=./images/nonagon_symbol.png style=width:14px;height:14px>? Please explain in words how you got your answer.","response_type":"multi","response_choices":["Yes","No"],"correct_response":"Yes","response":"Yes","explain":true,"explanation":"Becau se 2 is  an even number, under a 9 sided shape that means eventually it will hit all of the numbers. It will be either even or odd on the first pass through the shape, and then go to the opposite for the second pass. So it will hit 1, 3, 5, 7, 0, then it will hit 2, 4, 6, 8.","explanation_history":["Because 2 is an even number, under a 9 sided shape that means eventually it will hit all of the numbers. It will be either even or odd on the first pass through the shape, and then go to the opposite for the second pass. So it will hit 1, 3, 5, 7, 9","Because 2 is an even number, under a 9 sided shape that means eventually it will hit all of the numbers. It will be either even or odd on the first pass through the shape, and then go to the opposite for the second pass. So it will hit 1, 3, 5, 7, 0, then it will hit 2, 4, 6, 8."],"orientation_history":[[0]],"response_history":["Yes"],"rt":44948,"trial_type":"polygon-arrow-question","trial_index":0,"trial_index_global":61,"time_elapsed":860076,"internal_chunk_id":"0-0.12-0"},{"nsides":9,"question":"Is 3 a generator under <img src=./images/nonagon_symbol.png style=width:14px;height:14px>? Please explain in words how you got your answer.","response_type":"multi","response_choices":["Yes","No"],"correct_response":"No","response":"No","explain":true,"explanation":"Three divides into the 9 sided shape, so it will always arrive on the same 3 numbers.","explanation_history":["Three divines into","Three divin","Three divides into the 9 sided shape, so it will always arrive on the same 3 numbers."],"orientation_history":[[0]],"response_history":["No"],"rt":19294,"trial_type":"polygon-arrow-question","trial_index":0,"trial_index_global":62,"time_elapsed":879372,"internal_chunk_id":"0-0.12-0"},{"nsides":9,"question":"Is 5 a generator under <img src=./images/nonagon_symbol.png style=width:14px;height:14px>? Please explain in words how you got your answer.","response_type":"multi","response_choices":["Yes","No"],"correct_response":"Yes","response":"Yes","explain":true,"explanation":"As 5 does not divide into the 9, it will eventually reach all of the numbers, even if it takes a long time.","explanation_history":["As 5 does not i","As 5 does not divide into the 9, it will eventually reach all of the numbers, even if it takes a long time."],"orientation_history":[[0]],"response_history":["Yes"],"rt":24559,"trial_type":"polygon-arrow-question","trial_index":0,"trial_index_global":63,"time_elapsed":903933,"internal_chunk_id":"0-0.12-0"},{"nsides":9,"question":"Is 6 a generator under <img src=./images/nonagon_symbol.png style=width:14px;height:14px>? Please explain in words how you got your answer.","response_type":"multi","response_choices":["Yes","No"],"correct_response":"No","response":"No","explain":true,"explanation":"6 is a multiple of 3, and so will arrive on the same 3 numbers, even though it skips a number in the process every time.","explanation_history":["6 is a multiple of 3, an d so wil l arrive on the same 3 numbers, even though it skips a number in the process every time."],"orientation_history":[[0]],"response_history":["No"],"rt":38899,"trial_type":"polygon-arrow-question","trial_index":0,"trial_index_global":64,"time_elapsed":942833,"internal_chunk_id":"0-0.12-0"},{"nsides":"n","instructions":"Now we'd like to ask you some questions about <img src=./images/ngon_symbol.png style=width:14px;height:14px>, where n could be any positive counting number. For example, n could be 3, and the polygon a triangle, or n could be any other counting number you can think of. If you need to write the operation, you can use (n), and your answers can include n to stand in for the arbitrary value if necessary. (You can use the polygon at the right to think, but it doesn't necessarily correspond to the real polygon, which is why we've left most of it dashed.)","orientation_history":[0,[-6.268480484801735,-6.23818672488296,-6.191708593531957,-6.124326097688581,-6.035501245724632,-5.9037456705373215,-5.695039958646906,-5.519211171917062,-5.344442584270129,-5.294344553884153,-5.264413375530345,-5.24333921253383,-5.24333921253383,-5.24333921253383,-5.24333921253383,-5.24333921253383,-5.24333921253383,-5.24333921253383,-5.24333921253383,-5.24333921253383,-5.24333921253383,-5.24333921253383,-5.24333921253383,-5.24333921253383,-5.24333921253383,-5.1755152129989535,-5.08121167396383,-4.918177919373511,-4.714923829201368,-4.510255045563165,-4.307975586663972,-4.162729084220742,-3.9539285737079783,-3.7409068682198825,-3.601584714292117,-3.485658501482514,-3.4051874902170534,-3.3108312877491173,-3.184295945848741,-2.9251254868916545,-2.69088294885386,-2.3785097836884237,-2.1704038252175355,-1.9837435873493234,-1.9681544825120856,-1.9681544825120856,-1.9681544825120856,-1.9681544825120856,-1.9681544825120856,-1.9681544825120856,-1.9681544825120856,-1.9681544825120856,-1.9681544825120856,-0.8281014556563964,-0.7088254951552173,-0.6130382785396709,-0.5033637060788703,-0.2208401583430124,-6.04581954416537,-5.332710893397152,-4.770283611737333,-4.441875593391467,-4.1983374363267085,-4.038878121889362,-3.9298280546667925,-3.8328077500011837,-3.6717517466634852,-3.444154110733768,-2.9324077149968364,-2.4580756732758093,-2.155687791386063,-1.8861521168264792,-1.6958003787062088,-1.5002057025214448,-1.354774396042405,-1.1696539987526213,-0.9855087414212562,-0.8213412332997088,-0.6161565101470874,-0.28772446516303596,-0.009484007280985196,-5.936926322925797,-5.7720577313968535,-5.619079739441671,-5.407141685138392,-5.051842314863066,-4.766804638854021,-4.495921813686551,-4.31981282090902,-4.1767743771586225,-4.08163280017361,-3.9665804065176964,-3.816197279092023,-3.5948272593547594,-3.2851281556628207,-2.87907631447324,-2.6369305049582135,-2.4615984033814065,-2.2701822030292034,-2.0784949361335734,-1.7839485531341452,-1.5126406090255147,-1.350100167741214,-1.277791845411934,-1.22403203687416,-1.1488356563421984,-1.0735782093945687,-0.9613322469336927,-0.8684202483783157,-0.7484747756928787,-0.6549341232987871,-0.5438944929657108,-0.4997464906811766,-0.44894278662295495,-0.44894278662295495,-0.4119226707490249,-0.4119226707490249,-0.4119226707490249,-0.4119226707490249,-0.4119226707490249,-0.4119226707490249,-0.4119226707490249]],"rt":17538,"trial_type":"polygon-arrow-instructions","trial_index":0,"trial_index_global":65,"time_elapsed":960372,"internal_chunk_id":"0-0"},{"nsides":"n","question":"What is the formula for the inverse of 1 under <img src=./images/ngon_symbol.png style=width:14px;height:14px>?","response_type":"free","response_choices":[],"correct_response":"n-1","response":"Inverse of 1 = value of n - 1. So if n = 3, the inverse would be 3 - 1 = 2.","explain":false,"explanation":"","explanation_history":[],"orientation_history":[[0],[0,0,0,0,0,0,0,0,-6.2696726161662575,-6.243012267791659,-6.17782648990152,-6.089819116373779,-6.006677884485338,-5.947922061769615,-5.884808968154595,-5.826747429057935,-5.790562322105866,-5.764811244507131,-5.74487684451615,-5.725392131220278,-5.709875696604833,-5.694247965630972,-5.694247965630972,-5.694247965630972,-5.684795002446224,-5.6598666147189896,-5.644187575927028,-5.635119814389749,-5.635119814389749,-5.635119814389749,-5.635119814389749,-5.635119814389749,-5.635119814389749,-5.635119814389749,-5.594931673942705,-5.54021602400237,-5.419847613343256,-5.280529771884952,-5.187518691991087,-5.137529104753247,-5.127362516417139,-5.127362516417139,-5.127362516417139,-5.127362516417139,-5.127362516417139,-5.127362516417139,-5.127362516417139,-5.127362516417139,-5.127362516417139,-5.127362516417139,-5.127362516417139,-5.127362516417139,-5.127362516417139,-5.127362516417139,-5.127362516417139,-5.0279259842117,-4.935332431571278,-4.829087732335758,-4.698876289371361,-4.629221715642792,-4.58311707165055,-4.5488493325872525,-4.537501178950669,-4.537501178950669,-4.537501178950669,-4.537501178950669,-4.537501178950669,-4.537501178950669,-4.537501178950669,-4.537501178950669,-4.537501178950669,-4.537501178950669,-4.537501178950669,-4.537501178950669,-4.537501178950669,-4.537501178950669,-4.537501178950669,-4.537501178950669,-4.537501178950669,-4.537501178950669,-4.537501178950669,-4.537501178950669,-4.537501178950669,-4.514932832834186,-4.470379650079499,-4.434616269458031,-4.423687040242189,-4.423687040242189,-4.423687040242189,-4.423687040242189,-4.423687040242189,-4.423687040242189,-4.423687040242189,-4.423687040242189,-4.423687040242189,-4.423687040242189,-4.423687040242189,-4.423687040242189,-4.423687040242189,-4.423687040242189,-4.423687040242189,-4.423687040242189,-4.423687040242189,-4.423687040242189,-4.423687040242189,-4.423687040242189,-4.391309180966028,-4.349160999004853,-4.328552859668586,-4.318369912258996,-4.304085169671599,-4.304085169671599,-4.304085169671599,-4.304085169671599,-4.304085169671599,-4.304085169671599,-4.304085169671599,-4.304085169671599,-4.304085169671599,-4.304085169671599,-4.304085169671599,-4.304085169671599,-4.304085169671599],[-4.304085169671599,-4.304085169671599,-4.304085169671599,-4.304085169671599,-4.304085169671599,-4.3168420831070335,-4.401168563927126,-4.470240896091212,-4.6009652312566365,-4.721342589367367,-4.874079681712487,-5.063074379932756,-5.239336156169998,-5.316495719449818,-5.41123388746569,-5.463135285923863,-5.492773127132547,-5.512182675805477,-5.512182675805477,-5.512182675805477,-5.512182675805477,-5.512182675805477,-5.512182675805477,-5.512182675805477,-5.512182675805477,-5.512182675805477,-5.512182675805477,-5.512182675805477,-5.512182675805477,-5.512182675805477,-5.512182675805477,-5.512182675805477,-5.512182675805477,-5.512182675805477,-5.512182675805477,-5.512182675805477,-5.512182675805477,-5.512182675805477,-5.482695506712531,-5.393882049966389,-5.243591449634474,-5.132343386579553,-4.946675531904306,-4.9313568649310096,-4.891093490673338,-4.891093490673338,-4.891093490673338,-4.891093490673338,-4.891093490673338,-4.891093490673338,-4.891093490673338,-4.891093490673338,-4.891093490673338,-4.891093490673338,-4.891093490673338,-4.891093490673338,-4.891093490673338,-4.891093490673338,-4.891093490673338,-4.889142273637402,-4.901641622656764,-4.938814573620441,-4.9632917932960225,-4.975429385828301,-4.996307315087975,-5.019800909617591,-5.031430004090944,-5.042977510091999,-5.042977510091999,-5.042977510091999,-5.042977510091999,-5.042977510091999,-5.042977510091999,-5.042977510091999,-5.042977510091999,-5.042977510091999,-5.054441236593428,-5.0966860896599675,-5.155970406997498,-5.23879532334009,-5.327931961379693,-5.45183052600113,-5.513344308206974,-5.563883215860955,-5.605032340528027,-5.638032735519576,-5.668375287033147,-5.7003016079906255,-5.716132104820989,-5.716132104820989,-5.722411658317,-5.722411658317,-5.737976080936372,-5.743973010545066,-5.743973010545066,-5.743973010545066,-5.743973010545066,-5.743973010545066,-5.743973010545066,-5.743973010545066,-5.743973010545066,-5.743973010545066,-5.743973010545066,-5.743973010545066,-5.743973010545066,-5.743973010545066,-5.743973010545066,-5.743973010545066,-5.743973010545066,-5.743973010545066,-5.743973010545066,-5.743973010545066,-5.743973010545066,-5.743973010545066,-5.743973010545066,-5.743973010545066,-5.731864621501749,-5.716132104820989,-5.706748140658026,-5.706748140658026,-5.697483270589766,-5.697483270589766,-5.6909923346409625,-5.681804231797805,-5.681804231797805,-5.681804231797805,-5.681804231797805,-5.681804231797805,-5.672736470260525,-5.672736470260525,-5.66604549575274,-5.657061807288595,-5.657061807288595,-5.657061807288595,-5.657061807288595,-5.657061807288595,-5.657061807288595,-5.657061807288595,-5.657061807288595,-5.657061807288595,-5.657061807288595,-5.657061807288595,-5.657061807288595,-5.657061807288595,-5.657061807288595,-5.657061807288595,-5.657061807288595,-5.657061807288595,-5.657061807288595,-5.657061807288595,-5.657061807288595,-5.657061807288595,-5.657061807288595,-5.657061807288595,-5.657061807288595,-5.657061807288595,-5.657061807288595,-5.657061807288595,-5.657061807288595,-5.657061807288595,-5.657061807288595,-5.657061807288595,-5.657061807288595,-5.657061807288595,-5.657061807288595,-5.657061807288595,-5.657061807288595,-5.657061807288595,-5.657061807288595,-5.657061807288595,-5.657061807288595,-5.657061807288595,-5.657061807288595,-5.657061807288595,-5.657061807288595,-5.657061807288595,-5.657061807288595,-5.657061807288595,-5.657061807288595,-5.657061807288595,-5.657061807288595,-5.657061807288595,-5.657061807288595,-5.657061807288595,-5.657061807288595,-5.657061807288595,-5.657061807288595,-5.657061807288595,-5.657061807288595,-5.657061807288595,-5.657061807288595,-5.657061807288595,-5.657061807288595,-5.657061807288595,-5.657061807288595,-5.657061807288595,-5.657061807288595,-5.657061807288595,-5.657061807288595,-5.657061807288595,-5.578740355972423,-5.446404563705662,-5.324495548789705,-5.157156294375172,-5.009953932332381,-4.922551122391141,-4.873559119552325,-4.873559119552325,-4.873559119552325,-4.873559119552325,-4.873559119552325,-4.873559119552325,-4.8997332280269745,-5.082048525823849,-5.41123388746569,-5.830821852563327,-6.114893670521111,-6.307289272037034,-0.11476385205819284,-0.150871499958809,-0.15919840330680302,-0.15919840330680302,-0.15919840330680302,-0.15919840330680302,-0.15919840330680302,-0.15919840330680302,-0.15919840330680302,-0.15919840330680302,-0.15919840330680302,-0.15919840330680302,-0.15919840330680302,-0.15919840330680302,-0.15919840330680302,-0.15919840330680302,-0.15919840330680302,-0.15919840330680302,-0.15919840330680302,-0.15919840330680302,-0.15919840330680302,-0.15919840330680302,-0.15919840330680302,-0.15919840330680302,-0.15919840330680302,-0.15919840330680302,-0.15919840330680302,-0.15919840330680302,-0.15919840330680302,-0.15919840330680302,-0.15919840330680302,-0.15919840330680302,-0.15919840330680302,-0.15919840330680302,-0.15919840330680302,-0.15919840330680302,-0.15919840330680302,-0.15919840330680302,-0.15919840330680302,-0.15919840330680302,-0.15919840330680302,-0.15919840330680302,-0.15919840330680302,-0.15919840330680302,-0.15919840330680302,-0.15919840330680302,-0.15919840330680302]],"response_history":["Inverse of 1 is equal to the n.","Inverse of 1 is equal to the n","Inverse of 1 is equal to the n","Inverse of 1 is equal to the ","Inverse of 1 is equal to the value of n in","Inverse of 1 is equal to the value of n i","Inverse of 1 is equal to the value of n ","Inverse of 1 is equal to the value of n.","Inverse of 1 is equal to the value of n","Inverse of 1 is equal to the value of n","Inverse of 1 is equal to the value of ","Inverse of 1 is equal to the value of n. So if n was 3, the inverse of 1 for the ","Inverse of 1 is equal to the value of n. So if n was 3, the inverse of 1 for the","Inverse of 1 is equal to the value of n. So if n was 3, the inverse of 1 for th","Inverse of 1 is equal to the value of n. So if n was 3, the inverse of 1 fo r that s hape would be 3.","Inverse of 1 = value of n - 1. So if n - ","Inverse of 1 = value of n - 1. So if n -","Inverse of 1 = value of n - 1. So if n = 3, the inverse would be 3 - 1, ","Inverse of 1 = value of n - 1. So if n = 3, the inverse would be 3 - 1,","Inverse of 1 = value of n - 1. So if n = 3, the inverse would be 3 - 1 = 2."],"rt":125099,"trial_type":"polygon-arrow-question","trial_index":0,"trial_index_global":66,"time_elapsed":1085473,"internal_chunk_id":"0-0.14-0"},{"nsides":"n","question":"What is the formula for the inverse of an element x under <img src=./images/ngon_symbol.png style=width:14px;height:14px>? Please explain in words why your answer is correct.","response_type":"free","response_choices":[],"correct_response":"n-x","response":"Inverse = n - x","explain":true,"explanation":"In any number sided shape, you can view the inverse as getting to the end of the shape. Therefore, you've already taken X number of steps towards getting to the end. Th at means  in a total of n steps, you need to take whatever the difference is between the number you have taken (x) with the total number of the shape (n).","explanation_history":["In any sided shape, ","In any sided shape, you can view the point you are at ","In any sided shape, you can view the inverse as ","In any sided shape, you can view the ","In any sided shape, you can view the","In any sided shape, you can view th","In any sided shape, you can view t","In any sided shape, you can view reaching","In any sided shape, you can ","In any sided shape, you can view ","In any number sided shape, you can view the inverse as getting to the end of the shape. Therefore, you've already sta","In any number sided shape, you can view the inverse as getting to the end of the shape. Therefore, you've already st","In any number sided shape, you can view the inverse as getting to the end of the shape. Therefore, you've already s","In any number sided shape, you can view the inverse a s gettin g to the end of the shape. Therefore, you've already taken X number of steps towards getting to the end. That means in a total of n steps, you need to take whatever the difference is between the number you hav ","In any number sided shape, you can view the inverse as getting to the end of the shape. Therefore, you've already taken X number of steps towards getting to the end. That means in a total of n steps, you need to take whatever the difference is between the number you have taken (x) with the numb","In any number sided shape, you can view the inverse as getting to the end of the shape. Therefore, you've already taken X number of steps towards getting to the end. That means in a total of n steps, you need to take whatever the difference is between the number you have taken (x) with the num","In any number sided shape, you can view the inverse as getting to the end of the shape. Therefore, you've already taken X number of steps towards getting to the end.  That me ans in a total of n steps, you need to take whatever the difference is between the number you have taken (x) with the nu","In any number sided shape, you can view the inverse as getting to the end of the shape. Therefore, you've already taken X number of steps towards getting to the end. That means in a total of n steps, you need to take whatever the difference is between the number you have taken (x) with the n","In any number sided shape, you can view the inverse as getting to the end of the shape. Therefore, you've already taken X number of steps towards getting to the end. That means in a total of n steps, you need to take whatever the difference is between the number you have taken (x) with the total number of the shape ()","In any number sided shape, you can view the inverse as getting to the end of the shape. Therefore, you've already taken X number of steps towards getting to the end. That means in a total of n steps, you need to take whatever the differe nce is b etween the number you have taken (x) with the total number of the shape (n)."],"orientation_history":[[0],[1.287895473266811,1.287895473266811,1.287895473266811,1.287895473266811,1.287895473266811,1.287895473266811,1.287895473266811,1.287895473266811,1.287895473266811,1.287895473266811,1.287895473266811,1.287895473266811,1.287895473266811,1.287895473266811,1.287895473266811,1.287895473266811,1.287895473266811,1.287895473266811,1.287895473266811,1.287895473266811,1.287895473266811,1.287895473266811,1.287895473266811,1.287895473266811,1.287895473266811,1.287895473266811,1.287895473266811,1.287895473266811,1.287895473266811,1.287895473266811,1.287895473266811,1.287895473266811,1.287895473266811,1.287895473266811,1.287895473266811,1.287895473266811,1.287895473266811,1.287895473266811,1.287895473266811,1.287895473266811,1.287895473266811,1.287895473266811,1.287895473266811,1.287895473266811,1.287895473266811,1.287895473266811,1.287895473266811,1.287895473266811,1.287895473266811,1.287895473266811,1.287895473266811,1.287895473266811,1.287895473266811,1.287895473266811,1.287895473266811,1.287895473266811,1.287895473266811,1.287895473266811,1.287895473266811,1.287895473266811,1.287895473266811,1.287895473266811,1.287895473266811,1.287895473266811,1.287895473266811,1.287895473266811,1.287895473266811,1.287895473266811,1.287895473266811,1.287895473266811,1.287895473266811,1.287895473266811,1.287895473266811,1.287895473266811,1.287895473266811,1.287895473266811,1.287895473266811,1.287895473266811,1.287895473266811,1.287895473266811,1.287895473266811,1.287895473266811,1.287895473266811,1.287895473266811,1.287895473266811,1.287895473266811,1.287895473266811,1.287895473266811,1.287895473266811,1.287895473266811,1.287895473266811,1.287895473266811,1.287895473266811,1.287895473266811,1.287895473266811,1.287895473266811,1.287895473266811,1.287895473266811,1.287895473266811,1.287895473266811,1.287895473266811,1.287895473266811,1.287895473266811,1.287895473266811,1.287895473266811,1.287895473266811,1.287895473266811,1.287895473266811,1.287895473266811,1.287895473266811,1.287895473266811,1.287895473266811,1.287895473266811,1.287895473266811,1.287895473266811,1.287895473266811,1.287895473266811,1.287895473266811,1.287895473266811,1.2277723863741932,1.112224816327389,0.9953716762596116,0.8413397346310092,0.6989996140390011,0.5849996095715697,0.5164830046967277,0.47312599813066836,0.45893066285240036,0.4494305574713173,0.4494305574713173,0.4448704734083735,0.4214192068878042,0.3805063771123649,0.30893074392374165,0.20699219421982096,0.06472428141559194,6.163076571612673,6.034353098580438,5.9356793250587705,5.882944650145612,5.863534445044483,5.857137524132698,5.857137524132698,5.857137524132698,5.857137524132698,5.857137524132698,5.857137524132698]],"response_history":["Inverse = n - x"],"rt":240105,"trial_type":"polygon-arrow-question","trial_index":0,"trial_index_global":67,"time_elapsed":1325579,"internal_chunk_id":"0-0.14-0"},{"nsides":"n","question":"Is t here a pattern to which elements are generators? How can you know if an element x is a generator under <img src=./images/ngon_symbol.png style=width:14px;height:14px> without seeing whether it can make all the elements?.","response_type":"free","response_choices":[],"correct_response":"","response":"If the number is divisible into the total shape number (aka 2 into 10, or 5 into 10) then it will not be a generator. Similarly, any multiples of said numbers cannot be generators either.","explain":false,"explanation":"","explanation_history":[],"orientation_history":[[0]],"response_history":["Find the lowest c","Find the lowest number in the ","Find the lowest number in the","Find the lowest number in th","Find the lowest number in t","Find the lowest number in the function n that can divide into the total (aka 3 into 9) that isn't 1. Anything that is a multiple of that will be a generator. So in the example of a 10 sided shape, ","If y","If the number id ","If the  number i d","If the number is divisible into the total shape number (aka 5 ","If the number is divisible into the total shape number (aka 5","If the number is divisible into the total shape number (aka 2 into 10)","If the number is divisible into the total shape number (aka 2 into 10, or 5 into 10) then it will not be a generator. Similarly, any multiples s","If the number is divisible into the total shape number (aka 2 into 10, or 5 into 10) then it will not be a generator. Similarly, any multiples od said","If the number is divisible into the total shape number (aka 2 into 10, or 5 into 10) then it will not be a generator. Similarly, any multiples od sai","If the number is divisible into the total shape number (aka 2 into 10, or 5 into 10) then it will not be a generator. Similarly, any multiples od sa","If the number is divisible into the total shape number (aka 2 into 10, or 5 into 10) then it will not be a generator. Similarly, any multiples od s","If the number is divisible int o the to tal shape number (aka 2 into 10, or 5 into 10) then it will not be a generator. Similarly, any multiples od ","If the number is divisible into the total shape number (aka 2 into 10, or 5 into 10) then it will not be a generator. Similarly, any multiples od","If the number is divisible into the total shape number (aka 2 into 10, or 5 into 10) then it will not be a generator. Similarly, any multiples o","If the number is divisible into the total shape number (aka 2 into 10, or 5 into 10) then it will not be a generator. Similarly, any multiples ","If the number is divisible into the total shape number (aka 2 into 10, or 5 into 10) then it will not be a generator. Similarly, any multiples of said numbers cannot be generators either."],"rt":143251,"trial_type":"polygon-arrow-question","trial_index":0,"trial_index_global":68,"time_elapsed":1468833,"internal_chunk_id":"0-0.14-0"},{"nsides":"n","question":"True or false: If x is an odd number, it must be a generator under <img src= ./imag es/ngon_symbol.png style=width:14px;height:14px>.","response_type":"multi","response_choices":["True","False"],"correct_response":"False","response":"False","explain":false,"explanation":"","explanation_history":[],"orientation_history":[[0]],"response_history":["False"],"rt":4320,"trial_type":"polygon-arrow-question","trial_index":0,"trial_index_global":69,"time_elapsed":1473157,"internal_chunk_id":"0-0.14-0"},{"nsides":"n","question":"True or false: If x is an even number, it must not be a generator under <img src=./images/ngon_symbol.png style=width:14px;height:14px>.","response_type":"multi","response_choices":["True","False"],"correct_response":"False","response":"False","explain":false,"explanation":"","explanation_history":[],"orientation_history":[[0]],"response_history":["False"],"rt":4534,"trial_type":"polygon-arrow-question","trial_index":0,"trial_index_global":70,"time_elapsed":1477692,"internal_chunk_id":"0-0.14-0"},{"nsides":"n","question":"True o r false:  If x is not a generator under <img src=./images/ngon_symbol.png style=width:14px;height:14px>, x must be a divisor of n, that is, x must divide n evenly, with no remainder.","response_type":"multi","response_choices":["True","False"],"correct_response":"False","response":"False","explain":false,"explanation":"","explanation_history":[],"orientation_history":[[0]],"response_history":["False"],"rt":8468,"trial_type":"polygon-arrow-question","trial_index":0,"trial_index_global":71,"time_elapsed":1486161,"internal_chunk_id":"0-0.14-0"},{"nsides":"n","question":"True or false: If x is not a generator under <img src=./images/ngon_symbol.png style=width:14px;height:14px>, x must be a multiple of a divisor of n. Please explain in words how you got your answer.","response_type":"multi","response_choices":["True","False"],"correct_response":"True","response":"True","explain":true,"explanation":"As long as you consider divisor multiplied by 1 to be a multiple of a divi sor, the n it holds true. The base idea is that if something divides into n then it cannot be a generator (aka 2 into 10). Then if you test any number that 2 multiples into, (aka 4 or 8) you will see that it follows the same pattern. Similarly, you can take 5 as another example of a non - generator of 10. So as long as it is considered a multiple, then the theory holds true.","explanation_history":["I got to this answer by working through a problem. In the exampe","I got to this answer by working through a problem. In the example of 9","I got to this answer by working through a problem. In the example of n = 9, 3 woul","I got to this answer by working through a problem. In the example of n = 9, 3 wou","I got to this answer by working through a problem. In the example of n = 9, 3 wo","I got to this answer by working through a problem. In the example of n = 9, 3 w","I got to this answer by working through a problem. In the example of n = 9, 3 ","I got to this answer by working thro ugh a pr oblem. In the example of n = 9, 3","I got to this answer by working through a problem. In the example of n = 9, the nuy","I got to this answer by working through a problem. In the example of n = 9, the number 3 would be a generator. ","","All divisors of n cannot be generators. ","This is true for some of the answers, but not atl","This is true for some of the answers, but not at","This is true for some of the answers, but not all of them. When you start getting to larger numbers, then this is not always the","As long as you consider a p","As long as you consider a visio","As long as you consider a visi","As long as you consider a vis","As long as you consider a vi","As long as you consider a v","As long as you consider a ","As long as you consider a","As long as you consider divisor multiplied by 1 to be a multiple of a divisor, then it holds true. Lo","As long as you consider divisor multiplied by 1 to be a multiple of a divisor, then it holds true. L","As long as yo u consid er divisor multiplied by 1 to be a multiple of a divisor, then it holds true. To get this you can look at a number of examples, ","As long as you consider divisor multiplied by 1 to be a multiple of a divisor, then it holds true. To ","As long as you consider divisor multiplied by 1 to be a multiple of a divisor, then it holds true. To","As long as you consider divisor multiplied by 1 to be a multiple of a divisor, then it holds true. T","As long as you consider divisor multiplied by 1 to be a multiple of a divisor, then it holds true. ","As long as you consider divisor multiplied by 1 to be a multiple of a divisor, then it holds true. The base idea is that if something divides into n then it cannot be a generator (akak ","As long as you consider divisor multiplied by 1 to be a multiple of a divisor, then it holds true. The base idea is that if something divides into n then it cannot be a generator (akak","As long as you consider divisor multiplied by 1 to be a multi ple of a  divisor, then it holds true. The base idea is that if something divides into n then it cannot be a generator (aka 2 into 10). Th","As long as you consider divisor multiplied by 1 to be a multiple of a divisor, then it holds true. The base idea is that if something divides into n then it cannot be a generator (aka 2 into 10). T","As long as you consider divisor multiplied by 1 to be a multiple of a divisor, then it holds true. The base idea is that if something divides into n then it cannot be a generator (aka 2 into 10). Then if you test any number o","As long as you consider divisor multiplied by 1 to be a multiple of a divisor, then it holds true. The base idea is that if something divides into n then it cannot be a generator (aka 2 into 10). Then if you test any number that 2 multiples into, 4","As long as you consider divisor multiplied by 1 to be a multiple of a divisor, then it holds true. The base idea is that if something divides into n then it c annot be  a generator (aka 2 into 10). Then if you test any number that 2 multiples into, (aka 4 or 8) you will see that it follows the same pattern. Similarly, you can take 5 as another example of an impo","As long as you consider divisor multiplied by 1 to be a multiple of a divisor, then it holds true. The base idea is that if something divides into n then it cannot be a generator (aka 2 into 10). Then if you test any number that 2 multiples into, (aka 4 or 8) you will see that it follows the same pattern. Similarly, you can take 5 as another example of an imp","As long as you consider divisor multiplied by 1 to be a multiple of a divisor, then it holds true. The base idea is that if something divides into n then it cannot be a generator (aka 2 into 10). Then if you test any number that 2 multiples into, (aka 4 or 8) you will see that it follows the same pattern. Similarly, you can take 5 as another example of an im","As long as you consider divisor multiplied by 1 to be a  multipl e of a divisor, then it holds true. The base idea is that if something divides into n then it cannot be a generator (aka 2 into 10). Then if you test any number that 2 multiples into, (aka 4 or 8) you will see that it follows the same pattern. Similarly, you can take 5 as another example of an i","As long as you consider divisor multiplied by 1 to be a multiple of a divisor, then it holds true. The base idea is that if something divides into n then it cannot be a generator (aka 2 into 10). Then if you test any number that 2 multiples into, (aka 4 or 8) you will see that it follows the same pattern. Similarly, you can take 5 as another example of an ","As long as you consider divisor multiplied by 1 to be a multiple of a divisor, then it holds true. The base idea is that if something divides into n then it cannot be a generator (aka 2 into 10). Then if you test any number that 2 multiples into, (aka 4 or 8) you will see that it follows the same pattern. Similarly,  you can  take 5 as another example of an","As long as you consider divisor multiplied by 1 to be a multiple of a divisor, then it holds true. The base idea is that if something divides into n then it cannot be a generator (aka 2 into 10). Then if you test any number that 2 multiples into, (aka 4 or 8) you will see that it follows the same pattern. Similarly, you can take 5 as another example of a non - generator of 10. So as long as it is divisible ","As long as you consider divisor multiplied by 1 to be a multiple of a divisor, then it holds true. The base idea is that if something divides into n then it cannot be a generator (aka 2 into 10). Then if you test any number that 2 multiples into, (aka 4 or 8) you will see that it follows the same pattern. Similarly, you can take 5 as another example of a non - generator of 10. So as long as it is di","As long as you consider divisor multiplied by 1 to be a multiple of a divisor, then it holds true. The base idea is that if some thing di vides into n then it cannot be a generator (aka 2 into 10). Then if you test any number that 2 multiples into, (aka 4 or 8) you will see that it follows the same pattern. Similarly, you can take 5 as another example of a non - generator of 10. So as long as it is d","As long as you consider divisor multiplied by 1 to be a multiple of a divisor, then it holds true. The base idea is that if something divides into n then it cannot be a generator (aka 2 into 10). Then if you test any number that 2 multiples into, (aka 4 or 8) you will see that it follows the same pattern. Similarly, you can take 5 as another example of a non - generator of 10. So as long as it is considered a multiple ","As long as you consider divisor multiplied by 1 to be a multiple of a divisor, then it holds true. The base idea is that if something divides into n then it cannot be a generator (aka 2 into 10). Then if you test any number that 2 multiples into, (aka 4 or 8) you will see that it fol lows the  same pattern. Similarly, you can take 5 as another example of a non - generator of 10. So as long as it is considered a multiple, then the theory holds true."],"orientation_history":[[0]],"response_history":["False","True","False","True"],"rt":259963,"trial_type":"polygon-arrow-question","trial_index":0,"trial_index_global":72,"time_elapsed":1746124,"internal_chunk_id":"0-0.14-0"},{"nsides":"n","question":"If an element x is a generator under <img src=./images/ngon_symbol.png style=width:14px;height:14px>, is its inverse a generator under <img src=./images/ngon_symbol.png style=width:14px;height:1