[{"nsides":6,"instructions":"Let's define a new operation <img src=./images/hexagon_symbol.png style=width:14px;height:14px>. This operation will give us a way of combining two of the numbers 0, 1, 2, 3, 4, 5 to get another one of them back. To perform <img src=./images/hexagon_symbol.png style=width:14px;height:14px>, you can either use a method based on the hexagon at right, or a method based on arithmetic.<br /><b>Hexagon method:</b> you can use the interactive diagram on the right, or perform the operation in your mind. Point the arrow at the first number on the hexagon by clicking, then click (or click and drag) to move the arrow the second number of points clockwise around the hexagon. The number the arrow arrives at is your result. (The operation is called <img src=./images/hexagon_symbol.png style=width:14px;height:14px> because it uses the hexagon, which has 6 sides.) <br ><b>Arithmetic method:</b> you start with the first number, and then add  the sec ond one to it. If the sum is smaller than 6, that's your result. If the sum is 6 or bigger, you subtract 6 to get your result. <br /><br />For example, 3 <img src=./images/hexagon_symbol.png style=width:14px;height:14px> 5 = 2, because 5 steps clockwise from 3 on the hexagon brings us to 2. Equivalently, 3 + 5 = 8, and 8 is bigger than 6, so we subtract 6, and 8 - 6 = 2. So 3 <img src=./images/hexagon_symbol.png style=width:14px;height:14px> 5 = 2.<br /><br />Similarly, 1 <img src=./images/hexagon_symbol.png style=width:14px;height:14px> 4 = 5, because 1 + 4 = 5, and 5 is less than 6 so we leave it alone. Equivalently, 4 steps clockwise from 1 on the hexagon brings us to 5. <br /><br />Click Continue when you're ready to move on.","orientation_history":[0,[0.011904199558309791,0.011904199558309791,0.011904199558309791,0.011904199558309791,0.011904199558309791,0.011904199558309791,0.023805026185069966,0.03569911267932402,0.03569911267932402,0.05945365930865676,0.07130746478529026,0.08314123188844125,0.08314123188844125,0.10673567264913553,0.11848995915813765,0.11848995915813765,0.1418970546041638,0.1418970546041638,0.15354378253955603,0.15354378253955603,0.1651486774146267,0.16710179993110552,0.18092646075412144,0.18092646075412144,0.19739555984988066,0.2119576372426193,0.2119576372426193,0.23602367862589735,0.26299473168091936,0.26299473168091936,0.2782996590051112,0.2938693350324677,0.30970294454245617,0.3421558850831803,0.3708912888126623,0.38289871704594325,0.42877802744601623,0.46364760900080615,0.4930508972048111,0.5174877409741085,0.5358112379604636,0.5614936632670988,0.5803981873938742,0.6218242878305897,0.6407837241775078,0.6998928697192436,0.7288547264526308,0.7387031593541178,0.7853981633974483,0.8210972760767722,0.8296171077931012,0.8807602102998572,0.9055068989643611,0.9129077216126865,0.9437256642058782,0.9505468408120751,0.9572401812829799,0.9732398738097319,0.9796391595788522,1.0014831356942346,1.0074800653029286,1.0074800653029286,1.022772410370619,1.022772410370619,1.022772410370619,1.022772410370619,1.022772410370619,1.022772410370619,1.022772410370619,1.022772410370619,1.022772410370619,1.022772410370619,1.022772410370619,1.0284935895792917,1.0284935895792917,1.0284935895792917,1.0284935895792917,1.0284935895792917,1.0284935895792917,1.0284935895792917,1.0284935895792917,1.0341081524909712,1.0341081524909712,1.0341081524909712,1.0341081524909712,1.0341081524909712,1.0341081524909712,1.0341081524909712,1.0341081524909712,1.0341081524909712,1.0341081524909712,1.0471975511965976]],"rt":141643,"trial_type":"polygon-arrow-instructions","trial_index":0,"trial_index_global":1,"time_elapsed":171819,"internal_chunk_id":"0-0"},{"nsides":6,"instructions":"Do you see how the different ways of performing <img src=./images/hexagon_symbol.png style=width:14px;height:14px> give the same result? By labeling the points of the hexagon with the numbers from 0 to 5, we ensure that when we combine  two num bers using the hexagon, we only produce numbers between 0 and 5. When we use the arithmetic strategy, adding the second number to the first mimics counting around the hexagon, and subtracting 6 each time we get above 5 makes sure the results correspond to the numbers on the points of the hexagon. <br /><br />Click Continue when you're ready to move on.","orientation_history":[0],"rt":25856,"trial_type":"polygon-arrow-instructions","trial_index":0,"trial_index_global":2,"time_elapsed":197677,"internal_chunk_id":"0-0"},{"nsides":6,"question":"Now try one on your own! What is 4 <img src=./images/hexagon_symbol.png style=width:14px;height:14px> 5? <br /><br /> (Remember, to perform <img src=./images/hexagon_symbol.png style=width:14px;height:14px>, you can either use a method based on the hexagon at right, or a method based on arithmetic.<br /><br /><b>Hexagon method:</b> you can use the interactive diagram on the right, or perform the operation in your mind.  Point t he arrow at the first number, then move the arrow the second number of points clockwise around the hexagon. The number the arrow arrives at is your result. <br /><br /><b>Arithmetic method:</b> you start with the first number, and then add the second one to it. If the sum is smaller than 6, that's your result. If the sum is 6 or bigger, you subtract 6 to get your result.)","response_type":"free","response_choices":[],"correct_response":"3","response":"3","explain":false,"explanation":"","explanation_history":[],"orientation_history":[[0],[0,0,-0.0006199627228031801,-0.0012581247293441677,-0.015924890046995266,-0.0339409586010504,-0.050645848489861756,-0.06782628850516836,-0.10365324572483381,-0.125064990581647,-0.16118704692382124,-0.23082838841336262,-0.2518991725406501,-0.30594007091518005,-0.31800585036436324,-0.3808379892087883,-0.3883078080500546,-0.42081667633207864,-0.460795363455369,-0.5501716292127989,-0.564971063445233,-0.6403605126214673,-0.7169318222070435,-0.768202639250398,-0.8057740626261811,-0.9056625229389619,-0.969366078782607,-1.0410661623149,-1.1474590170138042,-1.2428476589535729,-1.3305698342762886,-1.4534766039122875,-1.4989880002746077,-1.542048969949029,-1.632842332856403,-1.669862448730333,-1.701211060578534,-1.7671969940898293,-1.7870674119055794,-1.7952244922820801,-1.8355325025315024,-1.8672580085802135,-1.8776806844926766,-1.8982888238289437,-1.908471771238534,-1.928589780995491,-1.9385228421680196,-1.9483707453289112,-1.9581326954769356,-1.9678079769419048,-1.9678079769419048,-1.9678079769419048,-1.9678079769419048,-1.9678079769419048,-1.9678079769419048,-1.9678079769419048,-1.9678079769419048,-1.9678079769419048,-1.9678079769419048,-1.9773959515974857,-1.9773959515974857,-2.0056307764889185,-2.0056307764889185,-2.014864625937438,-2.0330639011851668,-2.0330639011851668,-2.042028960015796,-2.068384894396753,-2.068384894396753,-2.076990533933766,-2.0855065088065174,-2.0855065088065174,-2.0855065088065174,-2.093932997173934,-2.093932997173934,-2.093932997173934,-2.093932997173934,-2.102270224300871,-2.102270224300871,-2.102270224300871,-2.102270224300871,-2.102270224300871,-2.102270224300871,-2.102270224300871,-2.102270224300871,-2.102270224300871,-2.102270224300871,-2.102270224300871,-2.102270224300871,-2.102270224300871,-2.102270224300871,-2.102270224300871,-2.102270224300871,-2.102270224300871,-2.102270224300871,-2.102270224300871,-2.102270224300871,-2.102270224300871,-2.102270224300871,-2.102270224300871,-2.102270224300871,-2.102270224300871,-2.102270224300871,4.1887902047863905],[4.1887902047863905,4.1887902047863905,4.1887902047863905,4.217130610968425,4.217130610968425,4.231579032487458,4.29116385493791,4.321980564243826,4.337629583495804,4.434531838263681,4.467814606380947,4.518441082289317,4.638549817856229,4.673018918855737,4.72454410905047,4.842567797448777,4.859043579222901,4.907717310641929,4.955119071468633,4.970609285399115,5.016080013279767,5.074232690887169,5.088309430926068,5.102197426857035,5.1294015982542485,5.1294015982542485,5.142715779335382,5.181500958287822,5.181500958287822,5.194043553121772,5.206393862119669,5.218552592063911,5.218552592063911,5.218552592063911,5.218552592063911,5.218552592063911,5.218552592063911,5.218552592063911,5.218552592063911,5.218552592063911,5.218552592063911,5.218552592063911,5.218552592063911,5.218552592063911,5.218552592063911,5.218552592063911,5.218552592063911,5.218552592063911,5.218552592063911,5.218552592063911,5.218552592063911,5.218552592063911,5.218552592063911,5.218552592063911,5.218552592063911,5.2621105500152545,5.2820509266495135,5.2907212296132995,5.362799818604376,5.434048647838999,5.494537571072551,5.641502100387686,5.712377539772072,5.785151736747359,5.878250067946993,5.924961368057267,5.98254729659724,5.99720239164665,6.056696816255861,6.086885087233784,6.086885087233784,6.102067289002723,6.14788518876836,6.178586618580656,-0.07383916252846046,-0.027718046513949268,-0.013307142746353362,0.028740689889834137,0.05774897892946007,0.07217309518281478,0.07217309518281478,0.11505801834916207,0.11505801834916207,0.11505801834916207,0.11505801834916207,0.11505801834916207,0.11505801834916207,0.11505801834916207,0.11505801834916207,0.11505801834916207,0.11505801834916207,0.11505801834916207,0.11505801834916207,0.11505801834916207,0.11505801834916207,0.11505801834916207,0.11505801834916207,0.11505801834916207,0.11505801834916207,0.11505801834916207,0.11505801834916207,0.11505801834916207,0.11505801834916207,0.11505801834916207,0.11505801834916207,0.08653628144749015,0.08653628144749015,0.08653628144749015,0.08653628144749015,0.08653628144749015,0.08653628144749015,0.08653628144749015,0.0842508085932252,0.0842508085932252,0.0842508085932252,0.0842508085932252,0.0842508085932252,0.07008628685975582,0.07008628685975582,0.07008628685975582,0.07008628685975582,0.07008628685975582,0.07008628685975582,0.06805789207570334,0.06805789207570334,0.06805789207570334,0.052248932536129944,0.052248932536129944,0.052248932536129944,0.052248932536129944,0.03836365246879381,0.03836365246879381,0.023078465265902626,0.021758956135379925,0.021758956135379925,0.021758956135379925,0.021758956135379925,0.021758956135379925,0.021758956135379925,0.021758956135379925,0.021758956135379925,0.021758956135379925,0.021758956135379925,0.021758956135379925,0.021758956135379925,0.021758956135379925,0.021758956135379925,0.021758956135379925,0.021758956135379925,0.021758956135379925,0.021758956135379925,0.021758956135379925,0.021758956135379925,0.021758956135379925,0.021758956135379925,0.021758956135379925,0.021758956135379925,0.021758956135379925,0.021758956135379925,0.021758956135379925,0.021758956135379925,0.021758956135379925,0.021758956135379925,0.021758956135379925,0.021758956135379925,0.035314300380417274,0.07572057734524273,0.18078550366608104,0.25213077611118506,0.3018010729446048,0.42447663168184535,0.4861006345859278,0.527814470129865,0.6270152453559896,0.6438659781750191,0.661600605147045,0.7115590008689878,0.7282241245829285,0.7363473109062875,0.7363473109062875,0.7363473109062875,0.744879996747235,0.7535511080903573,0.7623627049272095,0.7623627049272095,0.7792520235629564,0.8053005424132362,0.8222162220428835,0.8316677364359006,0.8412615380248999,0.8509990579603255,0.875297241983347,0.8953035316081105,0.9021979067830833,0.9123559081461098,0.9123559081461098,0.9123559081461098,0.9330878054857359,0.9436628389441435,0.9436628389441435,0.9762287728593653,0.9825058512074083,0.9825058512074083,0.9825058512074083,0.9935577798697821,0.9935577798697821,0.9935577798697821,0.9935577798697821,0.9935577798697821,0.9935577798697821,0.9935577798697821,0.9935577798697821,0.9935577798697821,0.9935577798697821,0.9935577798697821,0.9935577798697821,0.9935577798697821,0.9935577798697821,0.9935577798697821,0.9935577798697821,0.9935577798697821,0.9935577798697821,0.9935577798697821,1.00474589742687,1.0275292728219683,1.0391234432474719,1.123969442466375,1.1622203269496214,1.2148334321237206,1.3388671931447504,1.3958537925301375,1.4679797704148747,1.5980605360027347,1.6266597014223483,1.669147978789375,1.738522871361762,1.7790808964091516,1.7923980014101561,1.8187077186630782,1.8187077186630782,1.8316940015832508,1.8699448860664971,1.8699448860664971,1.8824510311957654,1.907084504807927,1.907084504807927,1.9192083177177082,1.9547908852854006,1.9547908852854006,1.9663850557109042,1.9663850557109042,1.9663850557109042,1.977844444461772,1.971967920531533,1.971967920531533,1.971967920531533,1.9662226916921974,1.9662226916921974,1.9606047732672423,1.9606047732672423,1.9606047732672423,1.9606047732672423,1.9606047732672423,1.9606047732672423,1.9606047732672423,1.9606047732672423,1.9606047732672423,1.9606047732672423,1.971654047346611,1.9825792575639047,2.0206418252626794,2.088396180403991,2.150383505447198,2.202877083055678,2.318054440343208,2.3872322663941183,2.4242523822680484,2.500087066689453,2.5273339907907486,2.554695581652294,2.56545111296338,2.609600332263743,2.625960325543889,2.637060979674825,2.6596043873062434,2.694256344954855,2.694256344954855,2.7381290836405903,2.7575854302733465,2.7810080869293916,2.79284364958066,2.819798646245642,2.837351055002471,2.8490845451873907,2.8633322856841863,2.875052732398947,2.886827030307211,2.910525440084764,2.9224434804256303,2.9344032368897803,2.9344032368897803,2.9344032368897803,2.9344032368897803,2.946401490490569,2.9584349571734325,2.9584349571734325,2.9716647755439656,2.9716647755439656,2.9716647755439656,2.9728017847185764,2.9964460262760424,3.0082998317526757,3.0207293592185867,3.0207293592185867,3.0324740174677416,3.056126108104949,3.056126108104949,3.0793808740177164,3.1018312026483406,3.1018312026483406,3.1018312026483406,3.1131767704829096,3.1238742737625094,3.1238742737625094,3.135067366854038,3.135067366854038,3.1574002073828193,3.1796437572330087,3.1796437572330087,3.19072536062563,3.19072536062563,3.19072536062563,3.19072536062563,3.189372514322679,3.189372514322679,3.189372514322679,3.189372514322679,3.189372514322679,3.189372514322679,3.189372514322679,3.189372514322679,3.189372514322679,3.189372514322679,3.189372514322679,3.189372514322679,3.1784107122352285,3.1674221435524945,3.145374999798726,3.145374999798726,3.134321654837157,3.134321654837157,3.1232519963070495,3.1121687063082435,3.1121687063082435,3.1121687063082435,3.1121687063082435,3.1121687063082435,3.1121687063082435,3.1121687063082435,3.1121687063082435,3.1121687063082435,3.1121687063082435,3.1121687063082435,3.1121687063082435,3.1121687063082435,3.1121687063082435,3.1121687063082435,3.1121687063082435,3.1121687063082435,3.1121687063082435,3.1121687063082435,3.1121687063082435,3.1121687063082435,3.1121687063082435,3.1121687063082435,3.1121687063082435,3.1121687063082435,3.1121687063082435,3.1121687063082435,3.1121687063082435,3.1121687063082435,3.1121687063082435,3.1121687063082435,3.1121687063082435,3.1121687063082435,3.1121687063082435,3.1121687063082435,3.1121687063082435,3.1121687063082435,3.1121687063082435,3.1121687063082435,3.1121687063082435,3.1121687063082435,3.1121687063082435,3.1121687063082435,3.1121687063082435,3.1121687063082435,3.1121687063082435,3.1121687063082435,3.1121687063082435,3.1121687063082435,3.1121687063082435,3.1121687063082435,3.1121687063082435,3.1121687063082435,3.1121687063082435,3.1121687063082435,3.1121687063082435,3.1121687063082435,3.1121687063082435,3.1121687063082435,3.1121687063082435,3.1121687063082435,3.1121687063082435,3.1232519963070495,3.1232519963070495,3.1232519963070495,3.134321654837157,3.134321654837157,3.134321654837157,3.134321654837157,3.134321654837157,3.134321654837157,3.134321654837157,3.134321654837157,3.134321654837157,3.134321654837157,3.134321654837157,3.134321654837157,3.134321654837157,3.134321654837157,3.134321654837157,3.134321654837157,3.134321654837157,3.134321654837157,3.134321654837157,3.134321654837157,3.134321654837157,3.134321654837157,3.134321654837157,3.134321654837157,3.134321654837157,3.134321654837157,3.134321654837157,3.134321654837157,3.134321654837157,3.134321654837157,3.134321654837157,3.141592653589793]],"response_history":["3"],"rt":70287,"trial_type":"polygon-arrow-question","trial_index":0,"trial_index_global":3,"time_elapsed":267966,"internal_chunk_id":"0-0.3-0"},{"nsides":6,"feedback":"Correct! 4 <img src=./images/hexagon_symbol.png style=width:14px;height:14px> 5 = 3 because 5 steps clockwise on the hexagon from 4 brings us to 3. Equivalently, 4 + 5 = 9 and 9 - 6 = 3.","orientation_history":[0],"rt":11241,"trial_type":"polygon-arrow-feedback","trial_index":0,"trial_index_global":4,"time_elapsed":279209,"internal_chunk_id":"0-0.3-0"},{"nsides":6,"question":"What is 3 <img src=./images/hexagon_symbol.png style=width:14px;height:14px> 2? Try to solve this problem using the hexagon. <br /><br /> (Remember, to perform <img src=./images/hexagon_symbol.png style=width:14px;height:14px> on the hexagon, you can use the interactive diagram on the right, or perform t he opera tion in your mind. Point the arrow at the first number on the hexagon, and then move the arrow the second number of points clockwise around the hexagon.)","response_type":"free","response_choices":[],"correct_response":"5","response":"5","explain":false,"explanation":"","explanation_history":[],"orientation_history":[[0],[0,0,0,0,0.0026702206229805014,0.0041322078854526545,0.005689839024489496,0.0242421273024378,0.04254339580270994,0.06142604333870305,0.06720632578236496,0.08786454359155726,0.09036008208306012,0.11214393258549893,0.13464204283966685,0.14189705460416402,0.18645353274037402,0.2117314952292877,0.21715149635581033,0.2438305580056035,0.26359483662726,0.2855987994488087,0.35507155027488957,0.38532713205448554,0.4080021961610236,0.6064195540204168,0.6919888722839748,1.0081993171568429,1.971764641304465,2.379311758576638,2.5577222579276784,2.6698776053216076,2.7986097691283396,2.8383273883524245,2.8638865446040116,2.873725749161117,2.9217756025945905,2.9267626318087547,2.949708848948167,2.9715496309182905,2.9737867636515007,2.992343585274469,3.010646417395871,3.010646417395871,3.0193577972091186,3.028081175559807,3.036815247057897,3.036815247057897,3.0362739123338827,3.035162095765318,3.034009643196831,3.0315735944224387,3.0309354324158977,3.0302849353419585,3.02894547957968,3.02894547957968,3.02825575656362,3.0581630710749725,3.0681507533413845,3.0681507533413845,3.0881420915115974,3.0981417581982624,3.0981417581982624,3.0981417581982624,3.0981417581982624,3.0981417581982624,3.0981417581982624,3.0981417581982624,3.0981417581982624,3.0981417581982624,3.0981417581982624,3.0981417581982624,3.1259123947916834,3.1259123947916834,3.1348225459549144,3.1348225459549144,3.1348225459549144,3.1348225459549144,3.1348225459549144,3.1348225459549144,3.1348225459549144,3.1348225459549144,3.1348225459549144,3.1348225459549144,3.1348225459549144,3.1348225459549144,3.1348225459549144,3.1348225459549144,3.1348225459549144,3.1348225459549144,3.1348225459549144,3.1348225459549144,3.1348225459549144,3.1348225459549144,3.1348225459549144,3.1348225459549144,3.1348225459549144,3.1348225459549144,3.1348225459549144,3.1348225459549144,3.1348225459549144,3.1348225459549144,3.1348225459549144,3.1348225459549144,3.1348225459549144,3.1348225459549144,3.1348225459549144,3.1348225459549144,3.1439811840793794,3.1531321334064106,3.18962877506977,3.1987186756531107,3.2282438159082276,3.299268644014802,3.39237632330945,3.4569124284688346,3.6914919043549808,3.743522564025844,3.831638523137538,3.9210223582873724,3.932882553848681,3.9631260643476507,3.992858455483611,3.9981864833083636,4.016890175767263,4.022041403511616,4.022041403511616,4.022041403511616,4.022041403511616,4.022041403511616,4.022041403511616,4.022041403511616,4.022041403511616,4.022041403511616,4.022041403511616,4.022041403511616,4.022041403511616,4.028849932231413,4.028849932231413,4.028849932231413,4.035728208068824,4.035728208068824,4.035728208068824,4.035728208068824,4.035728208068824,4.035728208068824,4.042676647394404,4.042676647394404,4.049695648015324,4.056785588048076,4.071179693400077,4.085861549974015,4.1254604902801155,4.160964690185375,4.209339036868381,4.28495346103814,4.320167081409252,4.356305818913712,4.440664311755106,4.47932446921877,4.528455456602761,4.578278197792414,4.608406065211052,4.628556009428659,4.668938084993159,4.679038751578481,4.689137357574227,4.730715046553509,4.762414866151748,4.772730425450201,4.807823100513372,4.8411288995160975,4.851659645755256,4.864219483088058,4.879263958658217,4.90065492618361,4.916619444242032,4.933198104906489,4.944127334122331,4.964864123457367,4.990688639389801,5.051681594838734,5.051681594838734,5.067460530659579,5.099630596379667,5.099630596379667,5.099630596379667,5.099630596379667,5.099630596379667,5.099630596379667,5.099630596379667,5.099630596379667,5.099630596379667,5.099630596379667,5.099630596379667,5.099630596379667,5.099630596379667,5.099630596379667,5.099630596379667,5.099630596379667,5.099630596379667,5.099630596379667,5.099630596379667,5.099630596379667,5.099630596379667,5.099630596379667,5.099630596379667,5.099630596379667,5.099630596379667,5.099630596379667,5.099630596379667,5.099630596379667,5.099630596379667,5.099630596379667,5.099630596379667,5.099630596379667,5.099630596379667,5.099630596379667,5.099630596379667,5.099630596379667,5.099630596379667,5.099630596379667,5.099630596379667,5.099630596379667,5.099630596379667,5.099630596379667,5.235987755982988]],"response_history":["5"],"rt":19313,"trial_type":"polygon-arrow-question","trial_index":0,"trial_index_global":5,"time_elapsed":298523,"internal_chunk_id":"0-0.3-0"},{"nsides":6,"feedback":"Correct! 3 <img src=./images/hexagon_symbol.png style=width:14px;height:14px> 2 = 5 because 2 steps clockwise on the hexagon from 3 brings us to 5. Equivalently, 3 + 2 = 5 and 5 is less than 6.","orientation_history":[0],"rt":4710,"trial_type":"polygon-arrow-feedback","trial_index":0,"trial_index_global":6,"time_elapsed":303234,"internal_chunk_id":"0-0.3-0"},{"nsides":6,"question":"What is 1 <img src=./images/hexagon_symbol.png style=width:14px;height:14px> 5? Try to solve this probem using the arithmetic technique. <br /><br /> (Remember, to perform <img src=./images/hexagon_symbol.png style=width:14px;height:14px> by arithmetic, you start with the first number, and then add the second one to it. If the sum is smaller than 6, that's your result. If the sum is 6 or bigger, you subtract 6 to get your result.)","response_type":"free","response_choices":[],"correct_response":"0","response":"0","explain":false,"explanation":"","explanation_history":[],"orientation_history":[[0],[0,0.013697773372865818,0.02777063659342094,0.02777063659342094,0.04164257909858837,0.06933313368820859,0.06933313368820859,0.12786991855999985,0.1418970546041638,0.15808997112168566,0.1746721990082396,0.23441567572381072,0.23441567572381072,0.27632727497506515,0.3037344858425868,0.3353243813150113,0.3353243813150113,0.39922076957525254,0.4048917862850834,0.41822432957922895,0.47018346364673724,0.5028432109278607,0.515549007458979,0.5880026035475675,0.6319742418186031,0.6435011087932844,0.7148085735785746,0.7657928325402436,0.824593765324503,0.8725554379517315,0.9025069079643125,0.9380474917927134,0.964413440418934,0.982793723247329,1.0080591040338132,1.0149255176407386,1.0216434241158858,1.0216434241158858,1.0282170026689061,1.0282170026689061,1.0282170026689061,1.0282170026689061,1.0282170026689061,1.0282170026689061,1.0282170026689061,1.0282170026689061,1.0471975511965976],[1.0471975511965976,1.0471975511965976,1.0471975511965976,1.059175340025459,1.108774339548516,1.134580432941589,1.2074751010824012,1.3189897098712973,1.3762188162159579,1.4555392218663104,1.5852417590222225,1.6252204461455126,1.6518099227980463,1.7524956964844836,1.760635979565645,1.7850704040952128,1.8212654376481199,1.8331966038379133,1.8450561288680607,1.8568413507822985,1.8685497233976767,1.8801788178710295,1.903190050373514,1.91456792607006,1.9258579994405356,1.937058438467909,1.9481675300339554,1.9591836790059685,1.9809313510768052,2.0022910010107076,2.0022910010107076,2.023253959501351,2.04381326948973,2.0388394551299944,2.0388394551299944,2.0388394551299944,2.0388394551299944,2.048889368023029,2.048889368023029,2.043938913414185,2.043938913414185,2.043938913414185,2.043938913414185,2.043938913414185,2.043938913414185,2.043938913414185,2.043938913414185,2.043938913414185,2.043938913414185,2.043938913414185,2.043938913414185,2.043938913414185,2.043938913414185,2.043938913414185,2.069191146882247,2.119424333927607,2.1529081833941026,2.18366065250076,2.2159230573426063,2.2980404686891767,2.333619806545741,2.370639922419671,2.407660038293601,2.4730837759267956,2.4915426867223625,2.53115184790153,2.575281732249449,2.6156185855465353,2.6336346541005904,2.662987188612308,2.6866101943726513,2.727260058371103,2.7562569875743224,2.785146797004457,2.801778663138453,2.8424174336004207,2.886449007896193,2.901913336261485,2.9537164574388157,2.980643865273697,2.996901360018426,3.0346860852463555,3.0480263611170733,3.0610863794743626,3.072896853928678,3.0965844265084623,3.1084549825401355,3.1203389731377955,3.1203389731377955,3.1325130148319023,3.1325130148319023,3.1325130148319023,3.1325130148319023,3.1327864630066564,3.1327864630066564,3.1327864630066564,3.1327864630066564,3.1327864630066564,3.1327864630066564,3.1333147249754782,3.1333147249754782,3.1333147249754782,3.1333147249754782,3.1333147249754782,3.1333147249754782,3.1333147249754782,3.1333147249754782,3.1333147249754782,3.1333147249754782,3.1333147249754782,3.1333147249754782,3.1333147249754782,3.1333147249754782,3.1446749385528285,3.1560380858171193,3.1560380858171193,3.1913175594107104,3.280393080363881,3.3920617644430164,3.48974026235467,3.6858871552731856,3.7900608054805414,3.8582950173261263,3.909189366779313,3.957563883058204,3.965431642806437,3.996498644588238,4.036387955557323,4.04344316712468,4.060865175232906,4.098853121941159,4.123400935173754,4.132620708811582,4.138831809064449,4.163518151120048,4.172980020140218,4.172980020140218,4.182553927666036,4.182553927666036,4.182553927666036,4.182553927666036,4.182553927666036,4.182553927666036,4.182553927666036,4.182553927666036,4.182553927666036,4.182553927666036,4.182553927666036,4.182553927666036,4.182553927666036,4.182553927666036,4.182553927666036,4.182553927666036,4.182553927666036,4.182553927666036,4.182553927666036,4.182553927666036,4.182553927666036,4.182553927666036,4.182553927666036,4.182553927666036,4.192240089171021,4.211949636207791,4.211949636207791,4.26318680361121,4.306171063478981,4.362308410205081,4.5319704929231435,4.662819434777672,4.803606303881794,4.989829144292935,5.037002473400001,5.071481728230042,5.1378989600018805,5.159242188182553,5.169759599720338,5.200685749106777,5.200685749106777,5.200685749106777,5.200685749106777,5.200685749106777,5.200685749106777,5.200685749106777,5.200685749106777,5.200685749106777,5.200685749106777,5.200685749106777,5.200685749106777,5.200685749106777,5.200685749106777,5.200685749106777,5.200685749106777,5.200685749106777,5.200685749106777,5.200685749106777,5.200685749106777,5.200685749106777,5.200685749106777,5.200685749106777,5.200685749106777,5.200685749106777,5.200685749106777,5.200685749106777,5.200685749106777,5.200685749106777,5.21078380047204,5.230661391053305,5.259678300231405,5.348361037108638,5.411796463960613,5.543472409439732,5.614239493919576,5.663077937630404,5.728317548306251,5.782745963002688,5.8442920435523495,5.8596185389277835,5.880581497418428,5.90194114735233,5.91276709139525,5.923688819423166,5.934704968395179,5.945814059961226,5.957014498988599,5.968304572359075,5.99114617455705,6.017680916883121,6.055559044835793,6.055559044835793,6.084070305926424,6.09560558300332,6.107195623993358,6.155733684802748,6.167419296442516,6.179140780248774,6.214489507518471,6.226323274621622,6.226323274621622,6.250047636129929,6.250047636129929,6.250047636129929,6.250047636129929,6.250047636129929,6.261931626727589,6.261931626727589,6.261931626727589,6.273825713221843,0.026349631785635763,0.026349631785635763,0.037970503212542805,0.0614695640700722,0.0614695640700722,0.07320125494304852,0.1082866448566624,0.1082866448566624,0.1082866448566624,0.1082866448566624,0.1082866448566624,0.1082866448566624,0.1082866448566624,0.1082866448566624,0.1082866448566624,0.1082866448566624,0.1082866448566624,0.1082866448566624,0.1082866448566624,0.1082866448566624,0.1082866448566624,0.1082866448566624,0.1082866448566624,0.1082866448566624,0.1082866448566624,0.07320125494304852,0.07320125494304852,0.0614695640700722,0.037970503212542805,0.037970503212542805,0.02620959537708467,6.2858665762571535,6.274105668421695,6.262351265813321,6.262351265813321,6.262351265813321,6.262351265813321,6.262351265813321,6.250606607564166,6.250606607564166,6.23887491669119,6.23887491669119,6.23887491669119,6.23887491669119,6.23887491669119,6.23887491669119,6.23887491669119,6.23887491669119,6.23887491669119,6.23887491669119,6.23887491669119,6.23887491669119,6.23887491669119,6.23887491669119,6.23887491669119,6.23887491669119,6.23887491669119,6.23887491669119,6.23887491669119,6.23887491669119,6.23887491669119,6.23887491669119,6.23887491669119,6.23887491669119,6.23887491669119,6.23887491669119,6.23887491669119,6.23887491669119,6.250606607564166,6.250606607564166,6.250606607564166,6.250606607564166,6.250606607564166,6.262351265813321,6.262351265813321,6.262351265813321,6.262351265813321,6.262351265813321,6.262351265813321,6.262351265813321,6.274105668421695,6.274105668421695,6.274105668421695,6.274105668421695,6.274105668421695,6.274105668421695,0.014445432227325972,0.014445432227325972,0.014445432227325972,0.014445432227325972,0.014445432227325972,0.014445432227325972,0.014445432227325972,0.014445432227325972,0.014445432227325972,0.014445432227325972,0.014445432227325972,0.014445432227325972,0.014445432227325972,0.014445432227325972,0.014445432227325972,0.014445432227325972,0.014445432227325972,0.014445432227325972,0.014445432227325972,0.014445432227325972,0.014445432227325972,0.014445432227325972,0.014445432227325972,0.014445432227325972,0.014445432227325972,0.014445432227325972,0.014445432227325972,0.014445432227325972,0.014445432227325972,0.014445432227325972,0.014445432227325972,0.014445432227325972,0.014445432227325972,0.014445432227325972,0.014445432227325972,0.014445432227325972,0.014445432227325972,0.014445432227325972,0.014445432227325972,0.014445432227325972,0.014445432227325972,0.014445432227325972,0.014445432227325972,0.014445432227325972,0.014445432227325972,0.014445432227325972,0.014445432227325972,0]],"response_history":["0"],"rt":25957,"trial_type":"polygon-arrow-question","trial_index":0,"trial_index_global":7,"time_elapsed":329192,"internal_chunk_id":"0-0.3-0"},{"nsides":6,"feedback":"Correct! 1 <img src=./images/hexagon_symbol.png style=width:14px;height:14px> 5 = 0 because 1 + 5 = 6 and 6 - 6 = 0.  Equivalent ly, 5 st eps clockwise on the hexagon from 1 brings us to 0.","orientation_history":[0],"rt":8565,"trial_type":"polygon-arrow-feedback","trial_index":0,"trial_index_global":8,"time_elapsed":337758,"internal_chunk_id":"0-0.3-0"},{"nsides":6,"question":"What is 1 <img src=./images/hexagon_symbol.png style=width:14px;height:14px> 1? Try to solve this problem using the hexagon. <br /><br /> (Remember, to perform <img src=./images/hexagon_symbol.png style=width:14px;height:14px> on the hexagon, you can use the interactive diagram on the right, or perform the operation in your mind. Point the arrow at the first number on the hexagon, and then move the arrow the second number of points clockwise around the hexagon.)","response_type":"free","response_choices":[],"correct_response":"2","response":"2","explain":false,"explanation":"","explanation_history":[],"orientation_history":[[0],[0,0,0,0.01515035587476965,0.030293759918775143,0.04542327942157698,0.060532019782107094,0.07561314323682988,0.13552771398550068,0.22347660114063306,0.25209598066807404,0.3487710035839069,0.3620874076937284,0.40122879900484865,0.4139990026121998,0.46364760900080615,0.4875951259230136,0.5057913155944034,0.5657014686561777,0.5989112617302315,0.6248862379155891,0.6726705518070707,0.6930688286658493,0.7114591257395079,0.747680210930584,0.7573681234376018,0.7760526410899583,0.804263849419119,0.8224182792713782,0.840896668643165,0.8794593980254346,0.8878420169045727,0.8960553845713439,0.9246774229342947,0.9401150284745128,0.9475969968608307,0.95492637485537,0.9723774333163594,0.9723774333163594,0.9723774333163594,0.9723774333163594,0.9723774333163594,0.9723774333163594,0.9723774333163594,0.9723774333163594,0.9723774333163594,0.9723774333163594,0.9793573106573413,0.9793573106573413,0.9793573106573413,0.9793573106573413,1.0471975511965976],[1.0601838341167702,1.0601838341167702,1.1137657149724214,1.1415115025237783,1.155614298150722,1.2134800149734801,1.273470913224233,1.3196607006003893,1.3984180293672137,1.4624957735455009,1.5108451601974038,1.5888117940289461,1.6658419021213449,1.6810570854828781,1.7082407200472844,1.7666537248127756,1.7666537248127756,1.7809983599088088,1.8233367199319228,1.8233367199319228,1.8372039769041664,1.8509422797071662,1.8509422797071662,1.8509422797071662,1.859616163781311,1.8729325678911322,1.8861159830533611,1.9120739592022524,1.9248441628096036,1.9318357344496495,1.9441990092794346,1.9564224471719858,1.9685048168142967,1.9922423842547075,2.0038960574022147,2.00305642703697,2.0142445445940576,2.0252964732564314,2.0252964732564314,2.0252964732564314,2.0252964732564314,2.0252964732564314,2.0252964732564314,2.0252964732564314,2.0252964732564314,2.0252964732564314,2.0252964732564314,2.0252964732564314,2.0252964732564314,2.0252964732564314,2.0252964732564314,2.0252964732564314,2.0252964732564314,2.0252964732564314,2.0252964732564314,2.0252964732564314,2.0252964732564314,2.0252964732564314,2.0252964732564314,2.0252964732564314,2.0943951023931953]],"response_history":["2"],"rt":15882,"trial_type":"polygon-arrow-question","trial_index":0,"trial_index_global":9,"time_elapsed":353641,"internal_chunk_id":"0-0.3-0"},{"nsides":6,"feedback":"Correct! 1 <img src=./images/hexagon_symbol.png style=width:14px;height:14px> 1 = 2 because 1 step clockwise on the hexagon from 1 brings us to 2. Equivalently, 1 + 1 = 2 and 2 is less than 6.","orientation_history":[0],"rt":3802,"trial_type":"polygon-arrow-feedback","trial_index":0,"trial_index_global":10,"time_elapsed":357444,"internal_chunk_id":"0-0.3-0"},{"nsides":6,"question":"What is 3 <img src=./images/hexagon_symbol.png style=width:14px;height:14px> 0? Try to solve this problem using the arithmetic technique. <br /><br /> (Remember, to perform <img src=./images/hexagon_symbol.png style=width:14px;height:14px> using arithmetic, you start with the first number, and then add the second one to it. If the sum is smaller than 6, that's your result. If the  sum is 6  or bigger, you subtract 6 to get your result.)","response_type":"free","response_choices":[],"correct_response":"3","response":"3","explain":false,"explanation":"","explanation_history":[],"orientation_history":[[0],[0,0,0,0,0,0,0.013512691013328082,0.027390408474862404,0.08430673252620657,0.09966865249116186,0.14392544938821628,0.1651486774146267,0.23737424697317078,0.24111767845146836,0.26481732990578877,0.3442186829824676,0.4048917862850834,0.4461055489434036,0.5295895987820762,0.6632029927060932,0.76721834832447,0.883125070756167,0.9994588469612697,1.1071487177940904,1.1964627107873127,1.35970299357215,1.4994888620096063,1.6775319994440323,1.97568811307998,2.0899424410414196,2.191045812777718,2.373736550249747,2.4227626539681686,2.452668265374932,2.5424173306034863,2.5535900500422257,2.5849933355795702,2.669815142409043,2.677945044588987,2.7321554440636504,2.814494556584,2.840672419229368,2.896613990462929,2.9865959116658525,3.065979510352963,3.1126152597382317,3.19709115883551,3.223600099115979,3.2371907722536335,3.2853313267381195,3.2853313267381195,3.2981945305718083,3.323760964062557,3.323760964062557,3.3364565732786655,3.3364565732786655,3.3364565732786655,3.3364565732786655,3.3364565732786655,3.3364565732786655,3.3364565732786655,3.3364565732786655,3.3364565732786655,3.3364565732786655,3.3364565732786655,3.3364565732786655,3.3364565732786655,3.3364565732786655,3.3110056974794118,3.2981945305718083,3.2981945305718083,3.2724200496638502,3.2594647567870094,3.2594647567870094,3.220376614578937,3.220376614578937,3.2081608173656173,3.1815713407130835,3.1682530019643913,3.1682530019643913,3.1282601102956473,3.114932305215195,3.1145722044025286,3.087591153213825,3.087591153213825,3.0741276290678883,3.0741276290678883,3.0741276290678883,3.0741276290678883,3.0741276290678883,3.0741276290678883,3.0741276290678883,3.0741276290678883,3.0741276290678883,3.0741276290678883,3.0741276290678883,3.0741276290678883,3.0741276290678883,3.0741276290678883,3.0741276290678883,3.0741276290678883,3.0741276290678883,3.0741276290678883,3.0741276290678883,3.0741276290678883,3.0741276290678883,3.0741276290678883,3.0741276290678883,3.0741276290678883,3.0741276290678883,3.0741276290678883,3.0741276290678883,3.087591153213825,3.087591153213825,3.087591153213825,3.087591153213825,3.087591153213825,3.087591153213825,3.087591153213825,3.087591153213825,3.087591153213825,3.087591153213825,3.087591153213825,3.087591153213825,3.087591153213825,3.1010743011114466,3.1010743011114466,3.1010743011114466,3.1010743011114466,3.1010743011114466,3.1010743011114466,3.1010743011114466,3.1010743011114466,3.1010743011114466,3.1010743011114466,3.1010743011114466,3.1010743011114466,3.1010743011114466,3.1010743011114466,3.1010743011114466,3.1010743011114466,3.1010743011114466,3.1010743011114466,3.1010743011114466,3.1010743011114466,3.1010743011114466,3.1010743011114466,3.1010743011114466,3.1010743011114466,3.1010743011114466,3.1010743011114466,3.1010743011114466,3.1010743011114466,3.1010743011114466,3.1010743011114466,3.1010743011114466,3.1010743011114466,3.1010743011114466,3.1010743011114466,3.1010743011114466,3.1010743011114466,3.1010743011114466,3.1010743011114466,3.1021394524927537,3.102651310492754,3.102651310492754,3.115624466378237,3.115624466378237,3.115624466378237,3.115624466378237,3.115624466378237,3.115624466378237,3.115624466378237,3.115624466378237,3.115624466378237,3.115624466378237,3.115624466378237,3.115624466378237,3.115624466378237,3.115957245068116,3.115957245068116,3.141592653589793,3.141592653589793,3.141592653589793,3.141592653589793,3.141592653589793,3.141592653589793,3.141592653589793,3.141592653589793,3.141592653589793,3.141592653589793,3.141592653589793,3.141592653589793,3.141592653589793,3.141592653589793,3.141592653589793,3.141592653589793,3.141592653589793,3.141592653589793,3.141592653589793,3.141592653589793,3.141592653589793,3.141592653589793,3.141592653589793,3.141592653589793,3.141592653589793,3.141592653589793,3.141592653589793,3.141592653589793,3.141592653589793,3.141592653589793,3.141592653589793,3.141592653589793,3.141592653589793,3.141592653589793,3.141592653589793,3.141592653589793,3.141592653589793,3.141592653589793,3.141592653589793,3.141592653589793,3.141592653589793,3.141592653589793,3.141592653589793,3.141592653589793,3.141592653589793,3.141592653589793,3.141592653589793,3.141592653589793,3.141592653589793,3.141592653589793]],"response_history":["3"],"rt":19023,"trial_type":"polygon-arrow-question","trial_index":0,"trial_index_global":11,"time_elapsed":376468,"internal_chunk_id":"0-0.3-0"},{"nsides":6,"feedback":"Correct! 3 <img src=./images/hexagon_symbol.png style=width:14px;height:14px> 0 = 3 because 3 + 0 = 3 and 3 - 6 = 3.  Equivalently, 0 steps clockwise on the hexagon from 3 brings us to 3.","orientation_history":[0],"rt":3873,"trial_type":"polygon-arrow-feedback","trial_index":0,"trial_index_global":12,"time_elapsed":380342,"internal_chunk_id":"0-0.3-0"},{"nsides":6,"question":"What is 4 <img src=./images/hexagon_symbol.png style=width:14px;height:14px> 4? Try to solve this problem using the hexagon. <br /><br /> (Remember, to perform <img src=./images/hexagon_symbol.png style=width:14px;height:14px> on the hexagon, you can use the interactive diagram on the right, or perform the operation in your mind. Point the arrow at the first number on the hexagon, and then move the arrow the second number of points clockwise around the hexagon.)","response_type":"free","response_choices":[],"correct_response":"2","response":"2","explain":false,"explanation":"","explanation_history":[],"orientation_history":[[0],[0.01235678549045538,-6.242666954701239,-6.228382212113842,-6.213689560849677,-6.153352961708016,-6.123826610133474,-6.072455029415765,-5.9052108854734575,-5.801916106921817,-5.684067639357677,-5.401770286058074,-5.222256575583133,-5.037617929168687,-4.5632094120657545,-4.382024137994723,-4.228087955156701,-4.0695832817713775,-4.013982022724132,-3.9424140357424546,-3.886472464508894,-3.8642538991821747,-3.836155260047416,-3.809700573239116,-3.7970563577613037,-3.7847836127458168,-3.738904393194899,-3.7312682106559953,-3.702373993246561,-3.6129301435432697,-3.5602174360736836,-3.477785630029509,-3.290273323211414,-3.175405188279111,-2.9972819606544028,-2.711977070056167,-2.6215550091188495,-2.5388875572114165,-2.4448955831200507,-2.4142566513528005,-2.390803293624759,-2.3627617285942177,-2.34659411727704,-2.336291773339601,-2.310547977539763,-2.300292735933402,-2.2900407291923197,-2.27979410936084,-2.27979410936084,-2.27979410936084,-2.27979410936084,-2.27979410936084,-2.27979410936084,-2.27979410936084,-2.274462375055677,-2.2690777707016765,-2.258148061465489,-2.252602019817085,-2.2470012354819575,-2.241345250546332,-2.241345250546332,-2.241345250546332,-2.229865873017495,-2.218160334426451,-2.218160334426451,-2.2122216731310207,-2.2122216731310207,-2.206225188572634,-2.200170469683494,-2.200170469683494,-2.194057114452651,-2.187884730577249,-2.183124605417323,-2.183124605417323,-2.183124605417323,-2.183124605417323,-2.183124605417323,-2.183124605417323,-2.183124605417323,-2.183124605417323,-2.183124605417323,-2.183124605417323,-2.183124605417323,-2.183124605417323,-2.183124605417323,-2.183124605417323,-2.183124605417323,-2.183124605417323,-2.183124605417323,-2.183124605417323,-2.183124605417323,-2.183124605417323,-2.183124605417323,-2.183124605417323,4.1887902047863905],[4.203785134495819,4.249856581225029,4.281433779047958,4.31365332937072,4.3798164240176085,4.4136414521112375,4.502768894939813,4.650719602419642,4.722840364438311,4.781792766667916,4.869436382595525,4.878769444930677,4.917610005282064,4.925868345364495,4.93834353719523,4.950705783948041,4.97508282232813,4.97508282232813,4.97508282232813,4.97508282232813,4.97508282232813,4.987093748695607,4.998983993884705,5.01075205661253,5.022396601614856,5.03391645545862,5.056578177878572,5.067718467035855,5.067718467035855,5.067718467035855,5.067718467035855,5.067718467035855,5.067718467035855,5.067718467035855,5.078730896047038,5.078730896047038,5.078730896047038,5.089615028550764,5.089615028550764,5.110997311449054,5.110997311449054,5.110997311449054,5.131864358608848,5.131864358608848,5.131864358608848,5.131864358608848,5.131864358608848,5.131864358608848,5.131864358608848,5.131864358608848,5.131864358608848,5.131864358608848,5.131864358608848,5.131864358608848,5.142104877590706,5.142104877590706,5.142104877590706,5.142104877590706,5.142104877590706,5.142104877590706,5.142104877590706,5.142104877590706,5.142104877590706,5.142104877590706,5.142104877590706,5.142104877590706,5.142104877590706,5.142104877590706,5.142104877590706,5.1522170524835875,5.158650130286437,5.165214587415056,5.192092203265991,5.243008276694347,5.294609136130273,5.441567303151303,5.50748209832799,5.563633972172844,5.679387133251941,5.714660640827969,5.7590480286715735,5.850056196223931,5.905214912152109,5.937061914572689,5.962827579152808,6.050993653895476,6.072298712551205,6.082981821336945,6.125862094812453,-0.12507632993187912,-0.1143240561407779,-0.08209207006410812,-0.06064949050632573,-0.04994917402111709,-0.028602554749292297,-0.007343755127785512,0.013808685588333924,0.04529878073073679,0.055723243372092224,0.0764514378034542,0.0867512175495384,0.0867512175495384,0.0867512175495384,0.0867512175495384,0.0867512175495384,0.0867512175495384,0.0867512175495384,0.0867512175495384,0.0867512175495384,0.0867512175495384,0.0867512175495384,0.0867512175495384,0.0867512175495384,0.0867512175495384,0.0867512175495384,0.0867512175495384,0.0867512175495384,0.0867512175495384,0.0867512175495384,0.0867512175495384,0.0867512175495384,0.0867512175495384,0.0867512175495384,0.0867512175495384,0.0867512175495384,0.0867512175495384,0.0867512175495384,0.09700557197360093,0.10721265903914268,0.1869657916306542,0.2384505470425593,0.28383149901904625,0.369534831251908,0.42207707528682414,0.45211588394158175,0.5087163460272963,0.5376531779611124,0.5511683705566914,0.5991736708162679,0.6055820534156884,0.6192490548751151,0.6534253910772206,0.6603218334655692,0.6673147264709025,0.6880924700589902,0.6952726299962219,0.702550235578571,0.7174026158718337,0.7249797798895503,0.7392939412069613,0.7470601721415543,0.7774305780324334,0.7774305780324334,0.7938508825574405,0.8022188880697331,0.8022188880697331,0.8022188880697331,0.8022188880697331,0.8022188880697331,0.8022188880697331,0.8022188880697331,0.8022188880697331,0.8022188880697331,0.8106932614727037,0.8192748032942619,0.8456697834612639,0.8638148787231319,0.8918656043912194,0.9612420678259943,1.0033457738862726,1.092729609036107,1.276306952973399,1.3278478936658011,1.3800251953105527,1.4720297141159397,1.5114147984154822,1.5505969355932514,1.5894586700113438,1.6023218738450329,1.6405839165518894,1.6405839165518894,1.6782769386679264,1.703043711834106,1.7153090747839437,1.7274918641363697,1.7395893318954851,1.7753444042837603,1.7753444042837603,1.7999794195416836,1.8119755572937943,1.8238623121856188,1.8356378607938697,1.858848829141419,1.858848829141419,1.858848829141419,1.858848829141419,1.858848829141419,1.858848829141419,1.858848829141419,1.870281377227375,1.875482275959706,1.875482275959706,1.875482275959706,1.875482275959706,1.875482275959706,1.8868994772779981,1.8868994772779981,1.8981948864250842,1.9149855242887788,1.9149855242887788,1.9149855242887788,1.926125813446061,1.926125813446061,1.926125813446061,1.9480223749609702,1.9480223749609702,1.9587779062720565,1.9587779062720565,1.9587779062720565,1.9587779062720565,1.9587779062720565,1.9694046578592608,1.9694046578592608,1.9694046578592608,1.9755690663190841,1.9755690663190841,1.9861394971336015,1.9861394971336015,1.9861394971336015,1.9861394971336015,1.9861394971336015,1.9861394971336015,1.9861394971336015,1.9861394971336015,1.9861394971336015,1.9861394971336015,1.9861394971336015,1.9861394971336015,1.9861394971336015,1.9861394971336015,1.9861394971336015,1.9861394971336015,1.9861394971336015,1.9965775313947338,1.9965775313947338,2.003015531980523,2.0133864212348973,2.0133864212348973,2.04047925434637,2.04047925434637,2.04047925434637,2.050499549676198,2.0574469619188918,2.0574469619188918,2.0574469619188918,2.0574469619188918,2.0574469619188918,2.0574469619188918,2.0574469619188918,2.0817954995667685,2.0817954995667685,2.0892211056563017,2.0991463380437794,2.0991463380437794,2.0991463380437794,2.0991463380437794,2.0991463380437794,2.0991463380437794,2.1067631657137045,2.1067631657137045,2.116577463463784,2.116577463463784,2.116577463463784,2.116577463463784,2.116577463463784,2.116577463463784,2.116577463463784,2.116577463463784,2.116577463463784,2.116577463463784,2.116577463463784,2.116577463463784,2.116577463463784,2.116577463463784,2.116577463463784,2.116577463463784,2.116577463463784,2.116577463463784,2.116577463463784,2.116577463463784,2.116577463463784,2.116577463463784,2.116577463463784,2.116577463463784,2.116577463463784,2.116577463463784,2.116577463463784,2.116577463463784,2.116577463463784,2.116577463463784,2.116577463463784,2.116577463463784,2.0943951023931953]],"response_history":["2"],"rt":18531,"trial_type":"polygon-arrow-question","trial_index":0,"trial_index_global":13,"time_elapsed":398874,"internal_chunk_id":"0-0.3-0"},{"nsides":6,"feedback":"Correct! 4 <img src=./images/hexagon_symbol.png style=width:14px;height:14px> 4 = 2 because 4 steps clockwise on the hexagon from 4 brings us to 2. Equivalently, 4 + 4 = 8 and 8 - 6 = 2.","orientation_history":[0],"rt":3950,"trial_type":"polygon-arrow-feedback","trial_index":0,"trial_index_global":14,"time_elapsed":402825,"internal_chunk_id":"0-0.3-0"},{"nsides":6,"question":"What is 1 <img src=./images/hexagon_symbol.png style=width:14px;height:14px> 3? Try to solve this problem using the arithmetic technique. <br /><br /> (Remember, to perform <img src=./images/hexagon_symbol.png style=width:14px;height:14px> by arithmetic, you start with the first number , and th en add the second one to it. If the sum is smaller than 6, that's your result. If the sum is 6 or bigger, you subtract 6 to get your result.)","response_type":"free","response_choices":[],"correct_response":"4","response":"4","explain":false,"explanation":"","explanation_history":[],"orientation_history":[[0],[0,0,0,0,0,0,0,0.027754583167621583,-6.213381161093105,-6.169205397542402,-6.061689228288519,-5.943043796494818,-5.701123227810413,-5.586710659483177,-5.534415705204827,-5.465668086277162,-5.373762634091858,-5.355567647228701,-5.321823122730581,-5.296792923779632,-5.269165294764638,-5.251828700083427,-5.24132916428189,-5.230686198400489,-5.219899303965112,-5.208968102897579,-5.208968102897579,-5.208968102897579,-5.202470468544906,-5.202470468544906,-5.202470468544906,-5.180338666095027,-5.180338666095027,-5.180338666095027,-5.180338666095027,-5.180338666095027,-5.180338666095027,-5.180338666095027,-5.180338666095027,-5.180338666095027,-5.191474792693171,-5.191474792693171,-5.202470468544906,-5.213325725412091,-5.213325725412091,-5.213325725412091,-5.213325725412091,-5.213325725412091,-5.213325725412091,-5.213325725412091,-5.213325725412091,-5.213325725412091,-5.213325725412091,-5.213325725412091,-5.213325725412091,-5.213325725412091,-5.213325725412091,-5.213325725412091,-5.213325725412091,-5.213325725412091,-5.213325725412091,-5.213325725412091,-5.213325725412091,-5.213325725412091,-5.213325725412091,-5.213325725412091,-5.213325725412091,-5.213325725412091,-5.213325725412091,1.0471975511965976],[1.0599033477277158,1.0599033477277158,1.0858546909900415,1.0990989496547705,1.1125209623948615,1.1261193988420353,1.139892632522636,1.1538387297046513,1.211301764652025,1.2712897641777094,1.2866495392601403,1.3177678955287124,1.3975978812409497,1.4301950263589027,1.5294255627773294,1.5627465586555767,1.5794116823695175,1.645887790544018,1.6788881855355668,1.7116365062650738,1.7601421185054573,1.7761152008073846,1.8077252217824409,1.8233489504029177,1.838843578051013,1.8542033531334439,1.8694228780572595,1.8844971130522188,1.9141913526591283,1.9432529357679416,1.9575376783553382,1.971654387606502,2.012972154916292,2.026394167656383,2.026394167656383,2.052703884909305,2.0655897695834375,2.0655897695834375,2.078295566114556,2.078295566114556,2.078295566114556,2.078295566114556,2.078295566114556,2.078295566114556,2.078295566114556,2.078295566114556,2.078295566114556,2.078295566114556,2.078295566114556,2.078295566114556,2.078295566114556,2.078295566114556,2.078295566114556,2.078295566114556,2.078295566114556,2.078295566114556,2.078295566114556,2.078295566114556,2.078295566114556,2.078295566114556,2.078295566114556,2.078295566114556,2.078295566114556,2.078295566114556,2.078295566114556,2.078295566114556,2.078295566114556,2.078295566114556,2.078295566114556,2.078295566114556,2.078295566114556,2.078295566114556,2.078295566114556,2.078295566114556,2.078295566114556,2.078295566114556,2.0655897695834375,1.971654387606502,1.971654387606502,1.7569875548369807,1.6445309392735727,1.5136058242395565,1.3843360593045362,1.306229946011253,1.2758078057248072,1.216610595086216,1.2021805581774707,1.1460442979161782,1.1189638859059354,1.0925630950088394,1.0668520672195165,1.0175194031183015,1.0128933759789915,0.997045089999399,0.9530866919434952,0.9424970726727552,0.9116698372110968,0.9017033898048897,0.8918890920548097,0.8822253339883622,0.8822253339883622,0.8822253339883622,0.8822253339883622,0.8822253339883622,0.8899140110618134,0.8899140110618134,0.8974571308250412,0.9070509324140404,0.9216377897958707,0.9579670058423958,0.9679873011722239,0.9679873011722239,0.9884417284808749,0.9988771998748764,1.0054510235380711,1.0373796848402606,1.0482952455965489,1.0482952455965489,1.0482952455965489,1.0482952455965489,1.0482952455965489,1.0705352918160105,1.0818592784602408,1.0818592784602408,1.1285022378587757,1.1772526917262474,1.228009721338762,1.4188211092673604,1.5192956632640457,1.5772382977210766,1.706672008043793,1.7629276266214653,1.8043122657509025,1.8974833959723914,1.9103534184114785,1.9357342804556377,1.9849977121068487,1.9969908794523779,1.9969908794523779,2.020580279674541,2.0436338388509125,2.0436338388509125,2.054957825495143,2.0661459430522306,2.0771978717146045,2.0988925806678114,2.0988925806678114,2.1200420937730824,2.1200420937730824,2.1200420937730824,2.1200420937730824,2.1200420937730824,2.1200420937730824,2.1200420937730824,2.1200420937730824,2.1200420937730824,2.1200420937730824,2.1200420937730824,2.1200420937730824,2.1200420937730824,2.1200420937730824,2.1200420937730824,2.1370513888302787,2.147347814775903,2.178616510595103,2.2755452683225306,2.3206287327675703,2.366661124121034,2.4713273841943013,2.5195238484425326,2.560576742561767,2.6510295904279966,2.6760680375544483,2.706915392323597,2.7633720576082563,2.7812341607763313,2.824892018373608,2.872064069738224,2.901678224601085,2.930884216302997,2.985974814136479,2.987914504879651,3.0043955953224533,3.0313361673432198,3.0313361673432198,3.0326211007831794,3.0326211007831794,3.0326211007831794,3.0326211007831794,3.0326211007831794,3.045166099305624,3.045166099305624,3.0829531766810887,3.0829531766810887,3.108231836307625,3.1967497173479336,3.2966381776607143,3.3814977302661644,3.5399613881066188,3.586881581305036,3.637369863891763,3.727756589250907,3.761524176121331,3.790617821162127,3.8325424994894743,3.872100335931952,3.8877012154176533,3.9189410488479215,3.9418378100693054,3.957090469718904,3.9643643282694985,3.9715241104588634,3.98650721628442,3.993429839061803,3.993429839061803,3.993429839061803,3.993429839061803,3.993429839061803,3.993429839061803,3.993429839061803,3.993429839061803,3.993429839061803,3.993429839061803,4.009600936048667,4.017853843584315,4.017853843584315,4.039564717428024,4.062974852336917,4.069312476855056,4.101500901978828,4.116336608697803,4.122201644086426,4.131084801852397,4.1657150421823195,4.171037029515996,4.171037029515996,4.171037029515996,4.171037029515996,4.171037029515996,4.171037029515996,4.171037029515996,4.171037029515996,4.171037029515996,4.171037029515996,4.171037029515996,4.171037029515996,4.171037029515996,4.171037029515996,4.171037029515996,4.171037029515996,4.171037029515996,4.171037029515996,4.171037029515996,4.171037029515996,4.171037029515996,4.171037029515996,4.171037029515996,4.171037029515996,4.171037029515996,4.171037029515996,4.171037029515996,4.171037029515996,4.171037029515996,4.171037029515996,4.171037029515996,4.171037029515996,4.1887902047863905]],"response_history":["4"],"rt":13945,"trial_type":"polygon-arrow-question","trial_index":0,"trial_index_global":15,"time_elapsed":416770,"internal_chunk_id":"0-0.3-0"},{"nsides":6,"feedback":"Correct! 1 <img src=./images/hexagon_symbol.png style=width:14px;height:14px> 3 = 4 because 1 + 3 = 4 and 4 - 6 = 4.  Equivalently, 3 steps clockwise on the hexagon from 1 brings us to 4.","orientation_history":[0],"rt":1391,"trial_type":"polygon-arrow-feedback","trial_index":0,"trial_index_global":16,"time_elapsed":418162,"internal_chunk_id":"0-0.3-0"},{"nsides":6,"question":"What is 4 <img src=./images/hexagon_symbol.png style=width:14px;height:14px> 3? <br /><br /> (Remember, to perform <img src=./images/hexagon_symbol.png style=width:14px;height:14px>, you can either use a method based on the hexagon at right, or a method based on arithmetic.<br /><br /><b>Hexagon method:</b> you can use the interactive diagram on the right, or perform the operation in your mind. Point the arrow at the first number, then move the arrow the second number of points clockwise around the hexagon. The number the arrow arrives at is your result. <br /><br /><b>Arithmetic method:</b> you start with the first number, and then add the second one to it. If the sum is smaller than 6, that's your result. If the sum is 6 or bigger, you subtract 6 to get your result.)","response_type":"free","response_choices":[],"correct_response":"1","response":"1","explain":false,"explanation":"","explanation_history":[],"orientation_history":[[0],[0,-0.1230949974048503,-0.20417720680844198,-0.3572172110530847,-0.4201784760837448,-0.4783446579281012,-0.5688812679283561,-0.6155421704804152,-0.6524164651738111,-0.6781501041438052,-0.8163297037535253,-0.9034579566286229,-1.0671847822178684,-1.1975339174588244,-1.2504257163245445,-1.383623096111391,-1.444414321557721,-1.5020101758210913,-1.5563045877293966,-1.6072807948047103,-1.6369374636745704,-1.6843136464025932,-1.6940407786897413,-1.7230584002020972,-1.7422502662851072,-1.7517953879780777,-1.7517953879780777,-1.7802090878597454,-1.7896015392660232,-1.7896015392660232,-1.8082598818480324,-1.8175231223439319,-1.8200164221916628,-1.8505391528405841,-1.8597644991692182,-1.8626717403454434,-1.8626717403454434,-1.8719202497681628,-1.8934385439066332,-1.8934385439066332,-1.9059117115197983,-1.9368109648417615,-1.9458523097894282,-1.9637344396305716,-1.9986788107061413,-2.0327720072031035,-2.0624797313499865,-2.087078084932303,-2.128764401547448,-2.128764401547448,-2.1443071912769636,-2.1443071912769636,-2.1443071912769636,-2.1443071912769636,-2.1443071912769636,-2.1443071912769636,-2.1443071912769636,-2.1443071912769636,-2.1443071912769636,-2.1443071912769636,-2.1443071912769636,-2.1443071912769636,-2.1443071912769636,-2.1443071912769636,-2.1443071912769636,-2.1443071912769636,-2.1443071912769636,-2.1443071912769636,-2.1443071912769636,-2.1443071912769636,-2.1443071912769636,-2.1443071912769636,-2.1443071912769636,-2.1443071912769636,-2.1443071912769636,-2.1443071912769636,-2.1443071912769636,-2.1443071912769636,-2.1443071912769636,-2.1443071912769636,-2.1443071912769636,-2.1443071912769636,-2.1443071912769636,-2.1443071912769636,-2.1443071912769636,-2.1443071912769636,-2.1365753865889285,-2.128764401547448,-2.123744537187246,-2.1079595702579432,-2.087078084932303,-2.0707559007884244,-2.02860998905995,-1.99821648988841,-1.989394026452703,-1.9256382454030216,-1.8999951947180005,-1.8717261127098368,-1.8037584933258746,-1.7738587068634049,-1.753700147579277,-1.6611815264596306,-1.6611815264596306,-1.5668305147611221,-1.5247361312416192,-1.430654257119551,-1.3997027107473814,-1.3792314329505215,-1.3488083612941946,-1.328737100318813,-1.3187699558337842,-1.3187699558337842,-1.3063259662685738,-1.3063259662685738,-1.3063259662685738,-1.3063259662685738,-1.3063259662685738,-1.3063259662685738,-1.3063259662685738,-1.3063259662685738,-1.2864554317909276,-1.2766004352657658,-1.2766004352657658,-1.2766004352657658,-1.2766004352657658,-1.2766004352657658,-1.2766004352657658,-1.2766004352657658,-1.2766004352657658,-1.2766004352657658,-1.266800915768009,-1.2570582721269208,-1.2473738438056552,-1.231296715862749,-1.1987387361529658,-1.1891307539111775,-1.139135110079593,-1.1159086015390534,-1.1159086015390534,-1.0880698549391932,-1.0789592053557246,-1.0789592053557246,-1.0789592053557246,-1.0789592053557246,-1.0789592053557246,-1.0789592053557246,-1.0789592053557246,-1.0789592053557246,-1.0789592053557246,-1.0789592053557246,-1.0789592053557246,-1.0789592053557246,-1.0789592053557246,-1.0789592053557246,-1.0789592053557246,-1.0789592053557246,-1.0789592053557246,-1.0789592053557246,-1.0789592053557246,-1.0789592053557246,-1.0789592053557246,-1.0789592053557246,-1.0789592053557246,-1.0789592053557246,-1.0789592053557246,-1.0789592053557246,-1.0789592053557246,-1.0789592053557246,-1.0789592053557246,-1.0789592053557246,-1.0789592053557246,-1.0789592053557246,-1.0609933566529763,-1.0609933566529763,-1.0472336993070135,-1.0053221000557588,-0.9855913275400372,-0.9481318092816675,-0.8980366198946719,-0.7931249896586676,-0.7486878590052299,-0.7043382605561241,-0.6749061339624634,-0.5851045479035175,-0.5593072742580549,-0.5276976708613788,-0.4865216477380896,-0.46758696232940533,-0.4584148645974295,-0.43037873434287377,-0.43037873434287377,-0.420861536086802,-0.4015727666583224,-0.4015727666583224,-0.3819495441529419,-0.34172791633065014,-0.3107431217882839,-0.28971675527373986,-0.21400490022636198,-0.18066668805117025,-0.1468833713551918,-0.11272447800238794,-0.07826458112264412,-0.06672456738523813,-0.055162834663068594,-0.04358242049745442,-0.04358242049745442,-0.04358242049745442,-0.04358242049745442,-0.04358242049745442,-0.04358242049745442,-0.04358242049745442,-0.04358242049745442,-0.04358242049745442,-0.04358242049745442,-0.04496192024315704,-0.12215142342558671,-0.2494719845602047,-0.3489013944297312,-0.5771079712696121,-0.6581788127415713,-0.7164149680912173,-0.8159210401064758,-0.8518105234871793,-0.8696830163996108,-0.9895753702058903,-1.0137252636034066,-1.0589618713825741,-1.1595959248381824,-1.20753358414549,-1.2729966233539427,-1.3892027877982915,-1.4405453700085857,-1.4995474299073033,-1.6002323548062858,-1.643042926405382,-1.672796048424047,-1.743558507462879,-1.753700147579277,-1.7838720751399801,-1.8136283027004847,-1.8332134270471547,-1.8525829456153158,-1.8906330951383215,-1.8999951947180005,-1.8999951947180005,-1.9185314654361676,-1.927703748514645,-1.927703748514645,-1.9458523097894282,-1.9548270333958166,-1.9548270333958166,-1.9548270333958166,-1.9548270333958166,-1.9548270333958166,-1.9637344396305716,-1.9637344396305716,-1.9813447806020523,-1.990046585323439,-1.990046585323439,-2.028426570133173,-2.028426570133173,-2.0368282315771236,-2.061594775828791,-2.061594775828791,-2.0697036388127152,-2.0857009124512587,-2.0857009124512587,-2.0935893020301677,-2.1168141204248014,-2.1168141204248014,-2.1244093202038243,-2.1393811227485404,-2.1393811227485404,-2.1393811227485404,-2.1467581667612095,-2.1467581667612095,-2.1467581667612095,-2.16845708467448,-2.16845708467448,-2.16845708467448,-2.16845708467448,-2.16845708467448,-2.16845708467448,-2.16845708467448,-2.16129584795976,-2.131931585489763,-1.976501301338672,-1.8813124595960442,-1.770365271293218,-1.5780402945711893,-1.4911794243950105,-1.4480339968689409,-1.3675668202092632,-1.3328279865887636,-1.3006596624514613,-1.258604378018096,-1.2482518067056203,-1.2379669893642928,-1.220666037401788,-1.2103373151166004,-1.189910176980156,-1.16569754403171,-1.141398830038522,-1.1216343725801519,-1.0450738754516067,-1.035846138278247,-1.0176804176663463,-0.9825055744058417,-0.9825055744058417,-0.9739516415854137,-0.9654930028057809,-0.9654930028057809,-0.9654930028057809,-0.9654930028057809,-0.9654930028057809,-0.9654930028057809,-0.9654930028057809,-0.9654930028057809,-0.9654930028057809,-0.9654930028057809,-0.9654930028057809,-0.9654930028057809,-0.9654930028057809,-0.9654930028057809,-0.9654930028057809,-0.9654930028057809,-0.9654930028057809,-0.9654930028057809,-0.9654930028057809,-0.9654930028057809,-0.9654930028057809,-0.9654930028057809,-0.9654930028057809,-0.9654930028057809,-0.9654930028057809,-0.9654930028057809,-0.9654930028057809,-0.9654930028057809,-0.9654930028057809,-0.9571292647430898,-0.9267746257302711,-0.8969945193965394,-0.8125490034305365,-0.7502197205521046,-0.6369614883852854,-0.45364014481012216,-0.3956356014759912,-0.33849864876141034,-0.2883931293094717,-0.25698674333341476,-0.24233471090430747,-0.20417720680844198,-0.20417720680844198,-0.19453120374076427,-0.17512187670888935,-0.17512187670888935,-0.16536176072697817,-0.1358796889416345,-0.1358796889416345,-0.12460420241657122,-0.1049371869528386,-0.1049371869528386,-0.09506778770844448,-0.09506778770844448,-0.09506778770844448,-0.09506778770844448,-0.09506778770844448,-0.09506778770844448,-0.09506778770844448,-0.09506778770844448,-0.09506778770844448,-0.08517691342566192,-0.03546665665644255,-6.248696234140936,-6.149264642095748,-5.940955061333531,-5.862595509796471,-5.8090945199893085,-5.749547453867564,-5.702638659321825,-5.69047060387555,-5.663702307883724,-5.644387309254219,-5.632185352326135,-5.60372885073864,-5.591155430388722,-5.566970539384034,-5.561060344319371,-5.502647827132093,-5.483295404716638,-5.476759550070707,-5.463690073859434,-5.443842203619599,-5.4307123431056965,-5.404511443727494,-5.3914492784519,-5.384282489836407,-5.377030541825559,-5.369692683960978,-5.369692683960978,-5.362268184907433,-5.362268184907433,-5.347156443863497,-5.339467850580189,-5.339467850580189,-5.339467850580189,-5.339467850580189,-5.323822035267979,-5.323822035267979,-5.315863626246115,-5.315863626246115,-5.315863626246115,-5.315863626246115,-5.315863626246115,-5.315863626246115,-5.315863626246115,-5.315863626246115,-5.315863626246115,-5.315863626246115,-5.307814144396257,-5.307814144396257,-5.307814144396257,-5.307814144396257,-5.307814144396257,-5.307814144396257,-5.307814144396257,-5.307814144396257,1.0471975511965976]],"response_history":["1"],"rt":18166,"trial_type":"polygon-arrow-question","trial_index":0,"trial_index_global":17,"time_elapsed":436329,"internal_chunk_id":"0-0.3-0"},{"nsides":6,"feedback":"Correct! 4 <img src=./images/hexagon_symbol.png style=width:14px;height:14px> 3 = 1 because 3 steps clockwise on the hexagon from 4 brings us to 1. Equivalently, 4 + 3 = 7 and 7 - 6 = 1.","orientation_history":[0],"rt":3459,"trial_type":"pol ygon-arrow-feedback","trial_index":0,"trial_index_global":18,"time_elapsed":439789,"internal_chunk_id":"0-0.3-0"},{"nsides":6,"question":"What is 0 <img src=./images/hexagon_symbol.png style=width:14px;height:14px> 5? <br /><br /> (Remember, to perform <img src=./images/hexagon_symbol.png style=width:14px;height:14px>, you can either use a method based on the hexagon at right, or a method based on arithmetic.<br /><br /><b>Hexagon method:</b> you can use the interactive diagram on the right, or perform the operation in your mind. Point the arrow at the first number, then move the arrow the second number of points clockwise around the hexagon. The number the arrow arrives at is your result. <br /><br /><b>Arithmetic method:</b> you start with the first number, and then add the second one to it. If the sum is smaller than 6, that's your result. If the sum is 6 or bigger, you subtract 6 to get your result.)","response_type":"free","response_choices":[],"correct_response":"5","response":"5","explain":false,"explanation":"","explanation_history":[],"orientation_history":[[0],[0,0,0,-6.268693568114086,-6.254201829048586,-6.1963562375754915,-6.1675901963777875,-6.12476811872587,-6.02712786101876,-5.916384843439944,-5.8172404765615315,-5.691760623096625,-5.465440159577086,-5.387933357814229,-5.331919960982612,-5.24806302167237,-5.191092898221889,-5.176249672697847,-5.1325674564684345,-5.118302592521933,-5.113961747043012,-5.109704546680906,-5.100011256970952,-5.100011256970952,-5.100011256970952,-5.100011256970952,-5.100011256970952,-5.090237385534706,-5.090237385534706,-5.080383813863122,-5.076442836630683,-5.076442836630683,-5.076442836630683,-5.076442836630683,-5.076442836630683,-5.076442836630683,-5.076442836630683,-5.076442836630683,-5.076442836630683,-5.076442836630683,-5.076442836630683,-5.076442836630683,-5.076442836630683,-5.076442836630683,-5.076442836630683,-5.076442836630683,-5.076442836630683,-5.076442836630683,-5.076442836630683,-5.076442836630683,-5.076442836630683,-5.076442836630683,-5.076442836630683,-5.076442836630683,-5.076442836630683,-5.076442836630683,-5.076442836630683,-5.086215959491655,-5.100011256970952,-5.118302592521933,-5.128064542669956,-5.147327798790507,-5.147327798790507,-5.15682790417159,-5.15682790417159,-5.15682790417159,-5.15682790417159,-5.166239651507491,-5.175562623681939,-5.184796473130459,-5.203972204615531,-5.222217953622612,-5.2311994240485635,-5.240086651246068,-5.240086651246068,-5.240086651246068,-5.240086651246068,-5.240086651246068,-5.240086651246068,-5.240086651246068,-5.240086651246068,-5.240086651246068,-5.240086651246068,-5.240086651246068,-5.240086651246068,-5.240086651246068,-5.240086651246068,-5.240086651246068,-5.240086651246068,-5.240086651246068,-5.240086651246068,-5.240086651246068,-5.240086651246068,-5.2311994240485635,-5.213142205005234,-5.166352505586687,-5.146982772927258,-5.096958189895323,-5.012401545735935,-4.9569992590986,-4.911457674799678,-4.805908966019236,-4.758065492474199,-4.721988964744111,-4.673805517894269,-4.625733612359532,-4.6137590007880185,-4.577993255954166,-4.5425329874676565,-4.530795441388084,-4.4958720849155975,-4.4728589548265845,-4.405335474915342,-4.361759190533622,-4.329916305174205,-4.27855559376916,-4.248811709711122,-4.23908051261236,-4.210444606133313,-4.210444606133313,-4.1918222780228485,-4.182652277633146,-4.182652277633146,-4.182652277633146,-4.182652277633146,-4.182652277633146,-4.182652277633146,-4.182652277633146,-4.182652277633146,-4.182652277633146,-4.17743879186804,-4.172128707329999,-4.157477741048606,-4.088091239871922,-4.045050610218416,-3.987985622855665,-3.8690481825302108,-3.833020833313535,-3.780527255705055,-3.6738897554135406,-3.6462470287708157,-3.6244436308711157,-3.557793425910801,-3.5209695252606545,-3.4942747483425123,-3.3862029323037035,-3.3445383339272405,-3.308976656251747,-3.2246167178118395,-3.1901750324212053,-3.1583407479545613,-3.0858871518659727,-3.0761247074489795,-3.047270928812056,-3.0284126538758867,-3.0186176029693215,-3.009992169957429,-3.0015511774157675,-2.982486475304353,-2.9729927979588666,-2.9635270389574346,-2.954090763847131,-2.954090763847131,-2.944685507441782,-2.944685507441782,-2.944685507441782,-2.944685507441782,-2.944685507441782,-2.944685507441782,-2.944685507441782,-2.944685507441782,-2.944685507441782,-2.9180779717180285,-2.901824135310238,-2.882122251397429,-2.812596610107548,-2.759927080706074,-2.691223942116908,-2.618790289513466,-2.483599805731009,-2.4117633337653004,-2.367338159648522,-2.3160673426051672,-2.2236107227077504,-2.1928128035173478,-2.1928128035173478,-2.160382976725355,-2.150779592804259,-2.150779592804259,-2.150779592804259,-2.150779592804259,-2.150779592804259,-2.150779592804259,-2.150779592804259,-2.150779592804259,-2.150779592804259,-2.150779592804259,-2.150779592804259,-2.150779592804259,-2.1311931889994886,-2.1311931889994886,-2.1110968148672917,-2.1008562958854338,-2.052727341134279,-1.8905026319948997,-1.7483526049701261,-1.6394458196178379,-1.431949593182635,-1.3509091985396289,-1.298297345865441,-1.2097657232954546,-1.1734058706834531,-1.1615134680296357,-1.1380802581501674,-1.1265423086327084,-1.1265423086327084,-1.1265423086327084,-1.1265423086327084,-1.1265423086327084,-1.1265423086327084,-1.1265423086327084,-1.1265423086327084,-1.1265423086327084,-1.1265423086327084,-1.1265423086327084,-1.1265423086327084,-1.1265423086327084,-1.1265423086327084,-1.1265423086327084,-1.1265423086327084,-1.1265423086327084,-1.1265423086327084,-1.1265423086327084,-1.1265423086327084,-1.1265423086327084,-1.1265423086327084,-1.1265423086327084,-1.1265423086327084,-1.1265423086327084,-1.1265423086327084,5.235987755982988]],"response_history":["5"],"rt":19704,"trial_type":"polygon-arrow-question","trial_index":0,"trial_index_global":19,"time_elapsed":459495,"internal_chunk_id":"0-0.3-0"},{"nsides":6,"feedback":"Correct! 0 <img src=./images/hexagon_symbol.png style=width:14px;height:14px> 5 =  5 becau se 5 steps clockwise on the hexagon from 0 brings us to 5. Equivalently, 0 + 5 = 5 and 5 is less than 6.","orientation_history":[0],"rt":2424,"trial_type":"polygon-arrow-feedback","trial_index":0,"trial_index_global":20,"time_elapsed":461920,"internal_chunk_id":"0-0.3-0"},{"nsides":6,"question":"What is 2 <img src=./images/hexagon_symbol.png style=width:14px;height:14px> 5? <br /><br /> (Remember, to perform <img src=./images/hexagon_symbol.png style=width:14px;height:14px>, you can either use a method based on the hexagon at right, or a method based on arithmetic.<br /><br /><b>Hexagon method:</b> you can use the interactive diagram on the right, or perform the operation in your mind. Point the arrow at the first number, then move the arrow the second number of points clockwise around the hexagon. The number the arrow arrives at is your result. <br /><br /><b>Arithmetic method:</b> you start with the first number, and then add the second one to it. If the su m is sma ller than 6, that's your result. If the sum is 6 or bigger, you subtract 6 to get your result.)","response_type":"free","response_choices":[],"correct_response":"1","response":"1","explain":false,"explanation":"","explanation_history":[],"orientation_history":[[0],[0,0,0,0.045689166147563576,0.06100010153457536,0.09170153134687187,-6.099263293879479,-6.068677400898838,-6.036369255215483,-5.985132087812064,-5.931492316485249,-5.9277450106851415,-5.89447220061132,-5.808679935446827,-5.787736527962184,-5.716305039861146,-5.644493579150497,-5.506641525347884,-5.413768676385985,-5.336883496343608,-5.105476930426327,-5.040589249047982,-4.959261580640973,-4.764600121975588,-4.616948372154613,-4.616948372154613,-4.4655729284205865,-4.441037975357851,-4.373842950670562,-4.281875141943572,-4.221232020309298,-4.182296417509721,-4.108264245412487,-4.090581201287218,-4.0395419752905575,-4.007188428717376,-3.991509029488811,-3.9761578279507797,-3.946426814174064,-3.9320393177851383,-3.917964751377116,-3.9041984120610618,-3.890735333245679,-3.890735333245679,-3.890735333245679,-3.890735333245679,-3.890735333245679,-3.890735333245679,-3.890735333245679,-3.890735333245679,-3.912541484269946,-3.9362920260478265,-3.9362920260478265,-4.0206147318666865,-4.058203855708543,-4.087837723945354,-4.133855926617738,-4.156346439015586,-4.156346439015586,-4.2064004070103564,-4.242541960049028,-4.242541960049028,-4.263101270037407,-4.263101270037407,-4.263101270037407,-4.263101270037407,-4.263101270037407,-4.263101270037407,-4.263101270037407,-4.263101270037407,-4.263101270037407,-4.263101270037407,-4.263101270037407,-4.263101270037407,-4.263101270037407,-4.263101270037407,-4.263101270037407,-4.263101270037407,-4.263101270037407,-4.263101270037407,-4.263101270037407,2.0943951023931953],[2.1153853627170074,2.1584034267347882,2.1657025671784855,2.2107847824932327,2.275495484332508,2.3348037931798626,2.3599435633598893,2.4334516211991595,2.4874531215751277,2.5729584152533325,2.7077018449658166,2.7718378981689864,2.8652197795149488,2.951100730575934,2.977410447828856,3.0429468568406715,3.0875033349768812,3.114196022786175,3.114196022786175,3.1337553434905048,3.1337553434905048,3.1337553434905048,3.1337553434905048,3.1337553434905048,3.1337553434905048,3.194580144451298,3.194580144451298,3.215222857495102,3.2351333325057117,3.309871400846506,3.327342741213307,3.3603466257749672,3.375932893495276,3.424226728706602,3.437999962387203,3.435340394189779,3.435340394189779,3.435340394189779,3.435340394189779,3.435340394189779,3.435340394189779,3.435340394189779,3.435340394189779,3.435340394189779,3.435340394189779,3.435340394189779,3.435340394189779,3.435340394189779,3.435340394189779,3.435340394189779,3.435340394189779,3.4670922811539797,3.482824797834739,3.482824797834739,3.5334536767199167,3.553388076710898,3.553388076710898,3.605470976546488,3.6437425737852385,3.6822884944987186,3.705259060543114,3.736498893973382,3.776477581096672,3.8009257333989357,3.8163288796856194,3.840956017447003,3.865853846854102,3.8806532810865364,3.909359500760527,3.933894453823263,3.947592227196129,3.9609962501184586,4.034444422184954,4.058249448370024,4.081501071180487,4.1143702310712005,4.124817612145848,4.135021339639803,4.144987787046009,4.154723223552612,4.154723223552612,4.173525574340976,4.173525574340976,4.173525574340976,4.173525574340976,4.173525574340976,4.173525574340976,4.173525574340976,4.173525574340976,4.1826044429167855,4.1826044429167855,4.1826044429167855,4.1826044429167855,4.1826044429167855,4.1826044429167855,4.1826044429167855,4.1826044429167855,4.1826044429167855,4.1826044429167855,4.194246866407408,4.206098813628779,4.218162571528243,4.2685753220350815,4.2685753220350815,4.387042139874978,4.5270783581550695,4.678498934352845,4.778167586844008,4.909127636690938,5.084765290218941,5.145598773597722,5.189783575336833,5.246559202620988,5.300716368315262,5.326773276584806,5.352136935847163,5.376803317275103,5.388874767304747,5.388874767304747,5.412495470188832,5.435423782308975,5.435423782308975,5.435423782308975,5.435423782308975,5.435423782308975,5.435423782308975,5.435423782308975,5.435423782308975,5.435423782308975,5.435423782308975,5.435423782308975,5.435423782308975,5.435423782308975,5.435423782308975,5.435423782308975,5.435423782308975,5.435423782308975,5.435423782308975,5.435423782308975,5.435423782308975,5.435423782308975,5.435423782308975,5.435423782308975,5.435423782308975,5.435423782308975,5.46229196269222,5.5584561853460475,5.618945108579599,5.680546586116147,5.785647652146936,5.830573542900254,5.897156558234748,5.957598945716372,5.977816778748828,6.005536109611445,6.019652818862607,6.033937561450005,6.048387422714951,6.062999144558818,6.077769119175642,6.11249277673212,6.1275051856316,6.14265177988767,6.157927325918045,6.173326260110901,6.173326260110901,6.173326260110901,6.173326260110901,6.188842694726345,6.188842694726345,6.188842694726345,6.188842694726345,6.188842694726345,6.188842694726345,6.188842694726345,6.188842694726345,6.188842694726345,6.220202942380965,6.220202942380965,6.2360334392113295,6.251954829345166,6.2840406306732355,6.332659557944373,0.1629940049112406,0.28867550410937337,0.37996862047630553,0.5090252893226042,0.6137719264052597,0.6740091297624935,0.7192612349303503,0.7923018002334696,0.8212947478778221,0.839884903510453,0.9085268926002872,0.9325284777720211,0.9553970924437104,1.0004297385239975,1.0223223768800869,1.0289641794728066,1.0648168155120623,1.079384169420612,1.079384169420612,1.091328993788471,1.091328993788471,1.091328993788471,1.091328993788471,1.091328993788471,1.091328993788471,1.0997676120427151,1.0997676120427151,1.0997676120427151,1.0997676120427151,1.0997676120427151,1.0997676120427151,1.0997676120427151,1.0997676120427151,1.0997676120427151,1.0997676120427151,1.0997676120427151,1.0997676120427151,1.0997676120427151,1.0997676120427151,1.0997676120427151,1.0997676120427151,1.0997676120427151,1.0997676120427151,1.0997676120427151,1.0997676120427151,1.0997676120427151,1.0997676120427151,1.0997676120427151,1.0997676120427151,1.0997676120427151,1.0997676120427151,1.0997676120427151,1.0997676120427151,1.0997676120427151,1.0997676120427151,1.0997676120427151,1.0997676120427151,1.0997676120427151,1.0997676120427151,1.0997676120427151,1.0997676120427151,1.0997676120427151,1.0997676120427151,1.0997676120427151,1.0997676120427151,1.0997676120427151,1.0471975511965976]],"response_history":["1"],"rt":14659,"trial_type":"polygon-arrow-question","trial_index":0,"trial_index_global":21,"time_elapsed":476581,"internal_chunk_id":"0-0.3-0"},{"nsides":6,"feedback":"Correct! 2 <img src=./images/hexagon_symbol.png style=width:14px;height:14px> 5 = 1 because 5 steps clockwise on the hexagon from 2 brings us to 1. Equivalently, 2 + 5 = 7 and 7 - 6 = 1.","orientation_history":[0],"rt":3539,"trial_type":"polygon-arrow-feedback","trial_index":0,"trial_index_global":22,"time_elapsed":480121,"internal_chunk_id":"0-0.3-0"},{"nsides":6,"instructions":"Now w e're going to discuss a couple special properties of this new operation, <img src=./images/hexagon_symbol.png style=width:14px;height:14px> that we've learned. First, notice that the number 0 behaves in a special way under <img src=./images/hexagon_symbol.png style=width:14px;height:14px>. Whenever we combine 0 with anything else, we get that same thing back. We'll say that 0 is the <i>identity</i> under <img src=./images/hexagon_symbol.png style=width:14px;height:14px>, because when you combine it with something it gives you that identical thing back.","orientation_history":[0],"rt":25360,"trial_type":"polygon-arrow-instructions","trial_index":0,"trial_index_global":23,"time_elapsed":505486,"internal_chunk_id":"0-0"},{"nsides":6,"instructions":"Now that we know 0 is the identity under <img src=./images/hexagon_symbol.png style=width:14px;height:14px>, we're going to make a new definition. We'll say that the <i>inverse</i> of a number is the e lement t hat you combine with it to produce the identity. For example, 5 <img src=./images/hexagon_symbol.png style=width:14px;height:14px> 1 = 0, so we say 1 is the inverse of 5 under <img src=./images/hexagon_symbol.png style=width:14px;height:14px>, (remember 0 is the identity under <img src=./images/hexagon_symbol.png style=width:14px;height:14px>). Similarly, 3 is its own inverse under <img src=./images/hexagon_symbol.png style=width:14px;height:14px>, because 3 <img src=./images/hexagon_symbol.png style=width:14px;height:14px> 3 = 0.","orientation_history":[0],"rt":58067,"trial_type":"polygon-arrow-instructions","trial_index":0,"trial_index_global":24,"time_elapsed":563553,"internal_chunk_id":"0-0"},{"nsides":6,"question":"Now you try! What is the inverse of 4 under <img src=./images/hexagon_symbol.png style=width:14px;height:14px>? <br /><br /> (Remember, the inverse of an element is the thing which you combine with it to produce  the ide ntity.)","response_type":"free","response_choices":[],"correct_response":"2","response":"2","explain":false,"explanation":"","explanation_history":[],"orientation_history":[[0],[-0.04851263101560743,-0.17686037932323995,-0.22864004711979913,-0.30843610078662653,-0.4482937292584035,-0.510712539254361,-0.5840391184690263,-0.6827094049822149,-0.7298275296394561,-0.7909992997439872,-0.8670037314560757,-0.9371460835861525,-0.9975059685539716,-1.1301672181453082,-1.1899697740542647,-1.2457395025100384,-1.374006670099468,-1.402925885517841,-1.4446001435190619,-1.5445224443129488,-1.5677306149968198,-1.5864517063572663,-1.6240582624713022,-1.6545640536463662,-1.6603193857827288,-1.6964195387147178,-1.716550312772478,-1.7431295740682664,-1.765415959914658,-1.8169701219038066,-1.8347213778189984,-1.8434978941031206,-1.869424012363691,-1.8779299209914972,-1.8863670559942465,-1.8947350615065393,-1.8947350615065393,-1.8947350615065393,-1.8947350615065393,-1.8947350615065393,-1.8947350615065393,-1.9030336261912089,-1.9112624821092599,-1.9275102059106155,-1.9275102059106155,-1.9434769128164708,-1.9558832241558397,-1.9558832241558397,-1.9761871058124099,-1.991596985201138,-1.991596985201138,-2.0040535953944394,-2.0040535953944394,-2.0040535953944394,-2.0240900143872587,-2.0240900143872587,-2.0343173054304176,-2.0343173054304176,-2.0343173054304176,-2.041813416894942,-2.0545182639171458,-2.059883738921166,-2.0745885612990174,-2.080083011502234,-2.080083011502234,4.1887902047863905],[4.1887902047863905,4.316676258103883,4.369200610151105,4.48695685527498,4.5696526528944394,4.693233893339967,4.898527196257908,4.991861578908761,5.089336257011267,5.176724348984869,5.206951360231565,5.235841573925551,5.263436637514328,5.281136351677314,5.2897824480322315,5.2897824480322315,5.2897824480322315,5.2897824480322315,5.2897824480322315,5.2897824480322315,5.2897824480322315,5.2897824480322315,5.2897824480322315,5.235987755982988],[5.391394289083234,5.391394289083234,5.440158716304664,5.45934455376095,5.488263622188525,5.544482147825468,5.573116034610478,5.618689908084829,5.691585596844474,5.709518639011425,5.756039363593176,5.853423028082897,5.881604767070707,5.953560899758843,6.035230462363895,6.0618708648317945,6.1220934026420055,6.187096591662219,6.2230170560245766,6.23502979411967,6.2711376973254005,0,0.012047609854185959,0.024091723424921163,0.03612885051277548,0.04815551305991539,0.07216362895965744,0.07216362895965744,0.07216362895965744,0.0841382405311708,0.0841382405311708,0.09608871551736686,0.09608871551736686,0.10801172470004627,0.10801172470004627,0.10801172470004627,0.10801172470004627,0.10801172470004627,0.10801172470004627,0.10801172470004627,0.10801172470004627,0.10801172470004627,0.10801172470004627,0.10801172470004627,0.10801172470004627,0.10801172470004627,0.10801172470004627,0.10801172470004627,0.10801172470004627,0.10801172470004627,0.09608871551736686,0.09608871551736686,0.0841382405311708,0.06016825115500968,0.06016825115500968,0.05945365930865676,0.04758310327698334,0.03569911267932402,0.03569911267932402,0.023805026185069966,0.011904199558309791,0,6.259380280994517,6.247486194500262,6.2356022039026024,6.223731647870929,6.211877842394296,6.211877842394296,6.211877842394296,6.211877842394296,6.211877842394296,6.211877842394296,6.211877842394296,6.211877842394296,6.211877842394296,6.211877842394296,6.211877842394296,6.211877842394296,6.211877842394296,6.211877842394296,6.211877842394296,6.211877842394296,6.211877842394296,6.211877842394296,6.211877842394296,6.211877842394296,6.211877842394296,6.211877842394296,6.211877842394296,6.223731647870929,6.223731647870929,6.223731647870929,6.2356022039026024,6.2356022039026024,6.2356022039026024,6.2356022039026024,6.2356022039026024,6.247486194500262,6.247486194500262,6.247486194500262,6.247486194500262,6.247486194500262,6.247486194500262,6.247486194500262,6.271281107621276,6.271281107621276,6.271281107621276,6.271281107621276,6.271281107621276,6.271281107621276,6.271281107621276,6.271281107621276,6.271281107621276,6.271281107621276,6.271281107621276,6.271281107621276,6.271281107621276,6.271281107621276,6.271281107621276,6.271281107621276,6.271281107621276,6.271281107621276,6.271281107621276,6.271281107621276,6.283185307179586]],"response_history":["2"],"rt":16027,"trial_type":"polygon-arrow-question","trial_index":0,"trial_index_global":25,"time_elapsed":579581,"internal_chunk_id":"0-0.7-0"},{"nsides":6,"feedback":"Correct! The inverse of 4 under <img src=./images/hexagon_symbol.png style=width:14px;height:14px> is 2 because 4 <img src=./images/hexagon_symbol.png style=width:14px;height:14px> 2 = 0, and 0 is the identity under <img src=./images/hexagon_symbol.png style=width:14px;height:14px>.","orientation_history":[0],"rt":6024,"trial_type":"polygon-arrow-feedback","trial_index":0,"trial_index_global":26,"time_elapsed":585606,"internal_chunk_id":"0-0.7-0"},{"nsides":6,"question":"What is the inverse of 1 under <img src=./ images/h exagon_symbol.png style=width:14px;height:14px>? <br /><br /> (Remember, the inverse of an element is the thing which you combine with it to produce the identity.)","response_type":"free","response_choices":[],"correct_response":"5","response":"5","explain":false,"explanation":"","explanation_history":[],"orientation_history":[[0],[0,0,0,0,-6.267801905398991,-6.22168078938448,-6.206340949516225,-6.175755056535584,-6.115152577003726,-6.100159467567775,-6.055658152394515,-6.026446414823587,-6.011993340783619,-6.011993340783619,-5.997648705687586,-5.997648705687586,-5.997648705687586,-5.997648705687586,-5.969302973812812,-5.955310345664472,-5.9038229488893466,-5.836401178833439,-5.757829845697578,-5.57127791681465,-5.50163214110125,-5.425860305056725,-5.343124482464696,-5.299292924739058,-5.292075202309635,-5.243794419493342,-5.243794419493342,-5.237425078874678,-5.237425078874678,-5.237425078874678,-5.237425078874678,-5.237425078874678,-5.237425078874678,-5.237425078874678,-5.237425078874678,-5.237425078874678,-5.237425078874678,-5.237425078874678,-5.237425078874678,-5.237425078874678,-5.237425078874678,-5.237425078874678,-5.237425078874678,-5.237425078874678,-5.237425078874678,-5.237425078874678,-5.237425078874678,-5.237425078874678,-5.237425078874678,-5.237425078874678,-5.237425078874678,-5.237425078874678,-5.237425078874678,1.0471975511965976],[1.0216434241158858,1.0216434241158858,1.0436503832084871,1.0777454295900855,1.0893991027375929,1.1623074337222692,1.20062549895268,1.2401174382184177,1.3505476034042077,1.4226363060630651,1.4814823338016743,1.6155425582495122,1.6601103197881188,1.6896366713626618,1.7335237014352776,1.8052120025187073,1.8471236017699617,1.8608832591159246,1.8745308126374833,1.8880626063167227,1.8880626063167227,1.8880626063167227,1.8880626063167227,1.8880626063167227,1.8880626063167227,1.92793033731569,1.9409671546371132,1.9409671546371132,1.979285219867524,2.0041501758769273,2.0284559834117895,2.075356765571142,2.0867218402601813,2.097942270381306,2.109018028406375,2.1199492294739075,2.1199492294739075,2.1199492294739075,2.1199492294739075,2.1199492294739075,2.1199492294739075,2.1199492294739075,2.1199492294739075,2.1199492294739075,2.1199492294739075,2.1199492294739075,2.1199492294739075,2.1199492294739075,2.1199492294739075,2.13353354955598,2.147729271812357,2.1625724973363996,2.2730532583039036,2.378413055519064,2.494834227326503,2.6632402222111358,2.7455112120254856,2.8095331860469077,2.9004749751383248,2.934909435105544,2.9660004916396128,2.988943325194528,3.0060649396042924,3.022752309022028,3.054854314913808,3.0692553230511983,3.0853141173010314,3.100519874999339,3.1142022451149307,3.1280799625764653,3.1282601102956473,3.1282601102956473,3.1282601102956473,3.1282601102956473,3.1282601102956473,3.1282601102956473,3.1282601102956473,3.1282601102956473,3.1282601102956473,3.1282601102956473,3.1282601102956473,3.1282601102956473,3.1282601102956473,3.1282601102956473,3.1282601102956473,3.1282601102956473,3.1282601102956473,3.154925196883939,3.1682530019643913,3.1948755051494855,3.234656382314211,3.2626198733989984,3.3023553942156276,3.437033490733513,3.51176348143201,3.579929213447751,3.706162047257893,3.76833555480084,3.807561890968903,3.8775262483856503,3.907385486130037,3.9269908169872414,3.985746639702964,3.9948476398435453,4.014148091541525,4.0440995615541055,4.052540554095767,4.060801794461833,4.0875027424691,4.0875027424691,4.116979104905957,4.124386376837123,4.135456035367229,4.135456035367229,4.135456035367229,4.135456035367229,4.135456035367229,4.135456035367229,4.135456035367229,4.135456035367229,4.135456035367229,4.135456035367229,4.135456035367229,4.135456035367229,4.135456035367229,4.135456035367229,4.146687511728512,4.158081484183139,4.169638482004979,4.181358875540507,4.193242866138167,4.217501537953615,4.326506310986616,4.418154415273502,4.5952802358178255,4.882167254353028,4.964078952142876,5.06802486468545,5.176036589385496,5.198631613472195,5.220699605395517,5.252808480655274,5.252808480655274,5.263246514916406,5.2837264602183165,5.2837264602183165,5.2837264602183165,5.2837264602183165,5.2837264602183165,5.2837264602183165,5.277293382415467,5.270988295728252,5.270988295728252,5.264807904705036,5.264807904705036,5.264807904705036,5.264807904705036,5.2587490048336685,5.2587490048336685,5.2587490048336685,5.2587490048336685,5.2587490048336685,5.2587490048336685,5.2587490048336685,5.2587490048336685,5.2587490048336685,5.268555210505143,5.287813630919974,5.322194981831958,5.369463916096343,5.4737917501902675,5.521782537374008,5.586980756373871,5.682644175800579,5.729330914707788,5.779358328738296,5.854699080133808,5.875317339205676,5.932457358931383,5.987259268715378,6.021065465914114,6.0671003348828,6.125957256203018,6.1618333066088224,6.185932108928021,6.222285098901598,6.234443455869655,6.246616251266045,6.246616251266045,6.246616251266045,6.246616251266045,6.258799898006868,6.258799898006868,6.270990789731334,0.01219451744825184,0.024385409172718475,0.036569055913541426,0.036569055913541426,0.036569055913541426,0.036569055913541426,0.03612885051277548,0.03612885051277548,0.03612885051277548,0.03612885051277548,0.03612885051277548,0.03612885051277548,0.03612885051277548,0.03612885051277548,0.03612885051277548,0.03569911267932402,0.03569911267932402,0.03569911267932402,0.03569911267932402,0.03569911267932402,0.03569911267932402,0.03569911267932402,0.03569911267932402,0.03569911267932402,0.03569911267932402,0.03569911267932402,0.03569911267932402,0.03569911267932402,0.03569911267932402,0.0348695815547897,0.0348695815547897,0.0348695815547897,0.0348695815547897,0.0348695815547897,0.0348695815547897,0.0348695815547897,0.0348695815547897,0.0348695815547897,0.0348695815547897,0.0348695815547897,0.0348695815547897,0.034077711587007675,0.034077711587007675,0.034077711587007675,0.022468128585825475,0.022468128585825475,0.022468128585825475,0.022468128585825475,0.022468128585825475,0.022468128585825475,0.022468128585825475,0.022468128585825475,0.022468128585825475,0.022468128585825475,0.022468128585825475,0.022468128585825475,0.022468128585825475,0.022468128585825475,0.022468128585825475,0.022468128585825475,0.022468128585825475,0.022468128585825475,0.022468128585825475,0.022468128585825475,0]],"response_history":["5"],"rt":15031,"trial_type":"polygon-arrow-question","trial_index":0,"trial_index_global":27,"time_elapsed":600638,"internal_chunk_id":"0-0.7-0"},{"nsides":6,"feedback":"Correct! The inverse of 1 under <img src=./images/hexagon_symbol.png style=width:14px;height:14px> is 5 because 1 <img src=./images/hexagon_symbol.png style=width:14px;height:14px> 5 = 0, and 0 is the identity under <img src=./images/hexagon_symbol.png style=width:14px;height:14px>.","orientation_history":[0],"rt":2159,"trial_type":"polygon-arrow-feedback","trial_index":0,"trial_index_global":28,"time_elapsed":602798,"internal_chunk_id":"0-0.7-0"},{"nsides":6,"question":"What is the inverse of 3 und er <img  src=./images/hexagon_symbol.png style=width:14px;height:14px>? <br /><br /> (Remember, the inverse of an element is the thing which you combine with it to produce the identity.)","response_type":"free","response_choices":[],"correct_response":"3","response":"3","explain":false,"explanation":"","explanation_history":[],"orientation_history":[[0]],"response_history":["3"],"rt":6015,"trial_type":"polygon-arrow-question","trial_index":0,"trial_index_global":29,"time_elapsed":608814,"internal_chunk_id":"0-0.7-0"},{"nsides":6,"feedback":"Correct! The inverse of 3 under <img src=./images/hexagon_symbol.png style=width:14px;height:14px> is 3 because 3 <img src=./images/hexagon_symbol.png style=width:14px;height:14px> 3 = 0, and 0 is the identity under <img src=./images/hexagon_symbol.png style=width:14px;height:14px>.","orientation_history":[0],"rt":1618,"trial_type":"polygon-arrow-feedback","trial_index":0,"trial_index_global":30,"time_elapsed":610432,"internal_chunk_id":"0-0.7-0"},{"nsides":6,"question":"What is the inverse of 2 under <img src=./images/hexagon_symbol.png style=width:14px;height:14px>? <br /><br /> (Remember, the inverse of an element is the thing which you combine with it to produce the identity.)","response_type":"free","response_choices":[],"correct_response":"4","response":"4","explain":false,"explanation":"","explanation_history":[],"orientation_history":[[0],[0,0,0,0,0,0.002926107230325936,0.005380424636644676,0.009068176819154061,0.07592872114918658,0.15762193783188816,0.2642796651208792,1.0129835870625818,1.3687711703913041,1.7983817504600301,2.113375650920887,2.1480438361303866,2.1913422847524293,2.2076896022480677,2.2456460474363817,2.2496230481214665,2.2827411708109215,2.301762445480351,2.30192188425451,2.3194666437825466,2.3271631850787733,2.326898844614404,2.334766604362638,2.3495115084342473,2.364155554261503,2.371303230552875,2.3920730823791643,2.3908913038145823,2.397509549446753,2.4040251258755476,2.4104398632619297,2.4104398632619297,2.4104398632619297,2.4104398632619297,2.4104398632619297,2.4104398632619297,2.4104398632619297,2.4104398632619297,2.4104398632619297,2.418268884796422,2.4423593522286886,2.479521313191069,2.575710924717067,2.594262931116223,2.6470838425601486,2.7096630690542964,2.739949718772066,2.7538737657381738,2.8047125796903494,2.8280585910983893,2.8409869835473978,2.880811674470478,2.882964854778762,2.8928332901399405,2.916315874375738,2.9180764359370186,2.937514111981815,2.9597667697672687,2.9597667697672687,2.9597667697672687,2.9597667697672687,2.9597667697672687,2.9597667697672687,2.961074935718861,2.961074935718861,2.961074935718861,2.961074935718861,2.961074935718861,2.961074935718861,2.961074935718861,2.961074935718861,2.961074935718861,2.9718143796214544,2.981292768751317,2.9907919349792738,3.0106640804900113,3.0208404833398763,3.0302273843869463,3.0302273843869463,3.040153270625037,3.049474370124886,3.0868238518607263,3.105514896475706,3.1335351519709995,3.2170721384709076,3.253730943753875,3.298950878347626,3.385860945413376,3.4267173555586385,3.4626661600194737,3.54227492311162,3.599443805422949,3.6227966456019667,3.653710488848565,3.686980959091832,3.7093767230427255,3.7152354287508444,3.7272487616395455,3.733407516833833,3.7396704829615004,3.7396704829615004,3.754437342002941,3.754437342002941,3.754437342002941,3.7841326862734084,3.797794593821898,3.8059543943288348,3.8512737776468895,3.8892009770831577,3.91186129748444,3.9571806808024945,3.965340481309431,3.995574829959007,4.017095251551165,4.03421686596093,4.049209975396881,4.058008081326605,4.066915487561359,4.094299318257274,4.142169929313006,4.224591477986368,4.349167695153221,4.627512499866073,4.771842639693347,4.911944364089977,5.177454022879888,5.242390351498397,5.301518502739621,5.35192775231171,5.374397230529018,5.3981534648858975,5.413623566697082,5.413623566697082,5.413623566697082,5.421124030930293,5.421124030930293,5.421124030930293,5.421124030930293,5.421124030930293,5.421124030930293,5.421124030930293,5.4287462093556105,5.436492181368771,5.452363864360561,5.460493766540505,5.4687558386685655,5.501504598776581,5.541557476952294,5.584915396657235,5.675477225415462,5.7228772513537844,5.768933117972964,5.846526448630835,5.887034079509806,5.923257723341264,5.934191288434345,5.9674366813793425,6.001305885558092,6.012723741265404,6.024201594277521,6.035736871354417,6.058968972955087,6.058968972955087,6.058968972955087,6.070660227826903,6.082397773906476,6.0941786341115405,6.105999761280083,6.117858042392985,6.141673312240642,6.153623787226838,6.177593776603,6.189606514698093,-0.04542327942157698,-0.021331555996655815,0.0027322336383384105,0.026740349538080466,0.026740349538080466,0.026740349538080466,0.026740349538080466,0.026740349538080466,0.026740349538080466,0.026740349538080466,0.026740349538080466,0.026740349538080466,0.026740349538080466,0.026740349538080466,0.026740349538080466,0.026740349538080466,0.026740349538080466,0.026740349538080466,0.026740349538080466,0.026740349538080466,0.026740349538080466,0.026740349538080466,0.026740349538080466,0.026740349538080466,0.026740349538080466,0.026740349538080466,0.026740349538080466,0.026740349538080466,0.026740349538080466,0.026740349538080466,0.026740349538080466,0]],"response_history":["4"],"rt":11760,"trial_type":"polygon-arrow-question","trial_index":0,"trial_index_global":31,"time_elapsed":622192,"internal_chunk_id":"0-0.7-0"},{"nsides":6,"feedback":"Correct! The inverse of 2 under <img src=./images/hexagon_symbol.png style=width:14px;height:14px> is 4 because 2 <img src=./images/hexagon_symbol.png style=width:14px;height:14px> 4 = 0, and 0 is the identity under <img src=./images/hexagon_symbol.png style=width:14px;height:14px>.","orientation_history":[0],"rt":1515,"trial_type":"polygon-arrow-feedback","trial_index":0,"trial_index_global":32,"time_elapsed":623708,"internal_chunk_id":"0-0.7-0"},{"nsides":6,"question":"What is t he inver se of 0 under <img src=./images/hexagon_symbol.png style=width:14px;height:14px>? <br /><br /> (Remember, the inverse of an element is the thing which you combine with it to produce the identity.)","response_type":"free","response_choices":[],"correct_response":"0","response":"6","explain":false,"explanation":"","explanation_history":[],"orientation_history":[[0],[0,0,0.013697773372865818,0.027390408474862404,0.027390408474862404,0.06838634359050344,0.08430673252620657,0.09966865249116186,0.20902294280626466,0.3019511618302493,0.37753019542353816,0.5619215622568152,0.6435011087932844,0.7202730000630624,0.8478169733934056,0.889190503854491,0.9420000403794636,0.9986026827869025,1.0182119765041824,1.0376406212872666,1.069192272605776,1.0816765212833679,1.10081968837