[{"nsides":6,"instructions":"Let's define a new operation <img src=./images/hexagon_symbol.png style=width:14px;height:14px>. This operation will give us a way of combining two of the numbers 0, 1, 2, 3, 4, 5 to get another one of them back. To perform <img src=./images/hexagon_symbol.png style=width:14px;height:14px>, you can either use a method based on the hexagon at right, or a method based on arithmetic.<br /><b>Hexagon method:</b> you can use the interactive diagram on the right, or perform the operation in your mind. Point the arrow at the first number on the hexagon by clicking, then click (or click and drag) to move the arrow the second number of points clockwise around the hexagon. The number the arrow arrives at is your result. (The operation is called <img src=./images/hexagon_symbol.png style=width:14px;height:14px> because it uses the hexagon, which has 6 sides.) <br ><b>Arithmetic method:</b> you start with the first number, and then add  the sec ond one to it. If the sum is smaller than 6, that's your result. If the sum is 6 or bigger, you subtract 6 to get your result. <br /><br />For example, 3 <img src=./images/hexagon_symbol.png style=width:14px;height:14px> 5 = 2, because 5 steps clockwise from 3 on the hexagon brings us to 2. Equivalently, 3 + 5 = 8, and 8 is bigger than 6, so we subtract 6, and 8 - 6 = 2. So 3 <img src=./images/hexagon_symbol.png style=width:14px;height:14px> 5 = 2.<br /><br />Similarly, 1 <img src=./images/hexagon_symbol.png style=width:14px;height:14px> 4 = 5, because 1 + 4 = 5, and 5 is less than 6 so we leave it alone. Equivalently, 4 steps clockwise from 1 on the hexagon brings us to 5. <br /><br />Click Continue when you're ready to move on.","orientation_history":[0,[4.323072258551549,4.323072258551549,4.323072258551549,4.323072258551549,4.323072258551549,4.323072258551549,4.1887902047863905],[5.2079406538705175,5.2079406538705175,5.2079406538705175,5.2079406538705175,5.2079406538705175,5.2079406538705175,5.235987755982988]],"rt":48099,"trial_type":"polygon-arrow-instructions","trial_index":0,"trial_index_global":1,"time_elapsed":54521,"internal_chunk_id":"0-0"},{"nsides":6,"instructions":"Do you see how the different ways of performing <img src=./images/hexagon_symbol.png style=width:14px;height:14px> give the same result? By labeling the points of the hexagon with the numbers from 0 to 5, we ensure that when we combine two numbers using the hexagon, we only produce numbers between 0 and 5. When we use the arithmetic strategy, adding the second number to the first mimics counting around the hexagon, and subtracting 6 each time we get above 5 makes sure the results correspond to the numbers on the points of the hexagon. <br /><br />Click Continue when you're ready to move on.","orientation_history":[0],"rt":11501,"trial_type":"polygon-arrow-instructions","trial_index":0,"trial_index_global":2,"time_elapsed":66025,"internal_chunk_id":"0-0"},{"nsides":6,"question":"Now try one on your own! What is 4 <img src=./images/hexagon_symbol.png style=width:14px;height:14px> 5? <br /><br /> (Remember, to perform <img src=./images/hexagon_symbol.png style=width:14px;height:14px>, you can either use a method based on the hexagon at right, or a method based on arithmetic.<br /><br /><b>Hexagon method:</b> you can use the interactive diagram on the right, or perform the operation in your mind. Point the arrow at the first number, then move the arrow the second number of points clockwise around the hexagon. The number the arrow arrives at is your result. <br /><br /><b>Arithmetic method:</b> you start with the first number, and then add the second one to it. If the sum is smaller than 6, that's your result. If the sum is 6 or bigger, you subtract 6 to get your result.)","response_type":"free","response_choices":[],"correct_response":"3","response":"3","explain":false,"explanation":"","explanation_history":[],"orientation_history":[[0]],"response_history":["3"],"rt":94989,"trial_type":"polygon-arrow-question","trial_index":0,"trial_index_global":3,"time_elapsed":161018,"internal_chunk_id":"0-0.3-0"},{"nsides":6,"feedback":"Correct! 4 <img src=./images/hexagon_symbol.png style=width:14px;height:14px> 5 = 3 because 5 steps clockwise on the hexagon from 4 brings us to 3. Equivalently, 4 + 5 = 9 and 9 - 6 = 3.","orientation_history":[0],"rt":8345,"trial_type":"polygon-arrow-feedback","trial_index":0,"trial_index_global":4,"time_elapsed":169369,"internal_chunk_id":"0-0.3-0"},{"nsides":6,"question":"What is 3 <img src=./images/hexagon_symbol.png style=width:14px;height:14px> 2? Try to solve this problem using the hexagon. <br /><br /> (Remember, to perform <img src=./images/hexagon_symbol.png style=width:14px;height:14px> on the hexagon, you can use the interactive diagram on the right, or perform the operation in your mind. Point the arrow at the first number on  the hex agon, and then move the arrow the second number of points clockwise around the hexagon.)","response_type":"free","response_choices":[],"correct_response":"5","response":"5","explain":false,"explanation":"","explanation_history":[],"orientation_history":[[0],[3.141592653589793,3.141592653589793,3.141592653589793,3.141592653589793,3.141592653589793,3.141592653589793,3.141592653589793,3.141592653589793,3.141592653589793,3.141592653589793,3.141592653589793],[2.1330811291374436,2.1330811291374436,2.1330811291374436,2.1330811291374436,2.1330811291374436,2.1330811291374436,2.1330811291374436,2.1330811291374436,2.0943951023931953],[3.063827713987061,3.0767486260365864,3.0903554861863745,3.103150063568605,3.103150063568605,3.103150063568605,3.103150063568605,3.103150063568605,3.141592653589793],[4.154957888808749,4.154957888808749,4.154957888808749,4.154957888808749,4.154957888808749,4.154957888808749,4.154957888808749,4.154957888808749,4.1887902047863905],[5.23311737179176,5.23311737179176,5.23311737179176,5.23311737179176,5.23311737179176,5.23311737179176,5.23311737179176,5.23311737179176,5.235987755982988]],"response_history":["5"],"rt":227392,"trial_type":"polygon-arrow-question","trial_index":0,"trial_index_global":5,"time_elapsed":396764,"internal_chunk_id":"0-0.3-0"},{"nsides":6,"feedback":"Correct! 3 <img src=./images/hexagon_symbol.png style=width:14px;height:14px> 2 = 5 because 2 steps clockwise on the hexagon from 3 brings us to 5. Equivalently, 3 + 2 = 5 and 5 is less than 6.","orientation_history":[0],"rt":5265,"trial_type":"polygon-arrow-feedback","trial_index":0,"trial_index_global":6,"time_elapsed":402031,"internal_chunk_id":"0-0.3-0"},{"nsides":6,"question":"What is 1 <img src=./images/hexagon_symbol.png style=width:14px;height:14px> 5? Try to solve this probem using the arithmetic technique. <br /><br /> (Remember, to perform <img src=./images/hexagon_symbol.png style=width:14px;height:14px> by arithmetic, you start wit h the fi rst number, and then add the second one to it. If the sum is smaller than 6, that's your result. If the sum is 6 or bigger, you subtract 6 to get your result.)","response_type":"free","response_choices":[],"correct_response":"0","response":"6","explain":false,"explanation":"","explanation_history":[],"orientation_history":[[0]],"response_history":["6"],"rt":5231,"trial_type":"polygon-arrow-question","trial_index":0,"trial_index_global":7,"time_elapsed":407263,"internal_chunk_id":"0-0.3-0"},{"nsides":6,"feedback":"Sorry, that was incorrect. 1 <img src=./images/hexagon_symbol.png style=width:14px;height:14px> 5 = 0 because 1 + 5 = 6 and 6 - 6 = 0.  Equivalently, 5 steps clockwise on the hexagon from 1 brings us to 0.","orientation_history":[0],"rt":4594,"trial_type":"polygon-arrow-feedback","trial_index":0,"trial_index_global":8,"time_elapsed":411859,"internal_chunk_id":"0-0.3-0"},{"nsides":6,"question":"What is 1 <img src=./images/hexagon_symbol.png style=width: 14px;hei ght:14px> 1? Try to solve this problem using the hexagon. <br /><br /> (Remember, to perform <img src=./images/hexagon_symbol.png style=width:14px;height:14px> on the hexagon, you can use the interactive diagram on the right, or perform the operation in your mind. Point the arrow at the first number on the hexagon, and then move the arrow the second number of points clockwise around the hexagon.)","response_type":"free","response_choices":[],"correct_response":"2","response":"2","explain":false,"explanation":"","explanation_history":[],"orientation_history":[[0],[1.1469287162651172,1.1469287162651172,1.1469287162651172,1.1469287162651172,1.1469287162651172,1.1469287162651172,1.1469287162651172,1.1469287162651172,1.1469287162651172,1.1469287162651172,1.1469287162651172,1.1469287162651172,1.1469287162651172,1.1469287162651172,1.1469287162651172,1.1469287162651172,1.1469287162651172,1.1469287162651172,1.1469287162651172,1.1469287162651172,1.0471975511965976]],"response_history":["2","2"],"rt":15865,"trial_type":"polygon-arrow-question","trial_index":0,"trial_index_global":9,"time_elapsed":427724,"internal_chunk_id":"0-0.3-0"},{"nsides":6,"feedback":"Correct! 1 <img src=./images/hexagon_symbol.png style=width:14px;height:14px> 1 = 2 because 1 step clockwise on the hexagon from 1 brings us to 2. Equivalently, 1 + 1 = 2 and 2 is less than 6.","orientation_history":[0],"rt":1182,"trial_type":"polygon-arrow-feedback","trial_index":0,"trial_index_global":10,"time_elapsed":428908,"internal_chunk_id":"0-0.3-0"},{"nsides":6,"question":"What is 3 <img src=./images/hexagon_symbol.png style=width:14px;height:14px> 0? Try to solve this problem using the arithmetic technique. <br /><br /> (Remember, to perform <img src=./images/hexagon_symbol.png style=width:14px;height:14px> using arithmetic, you start with the first number, and then add the second one to it. If the sum is smaller than 6, that's your result. If the sum is 6 or bigger,  you sub tract 6 to get your result.)","response_type":"free","response_choices":[],"correct_response":"3","response":"3","explain":false,"explanation":"","explanation_history":[],"orientation_history":[[0],[1.0714496051147664,1.0714496051147664,1.0714496051147664,1.0714496051147664,1.0714496051147664,1.0714496051147664,1.0471975511965976],[2.1280918619124023,2.1280918619124023,2.1280918619124023,2.1280918619124023,2.1280918619124023,2.1280918619124023,2.0943951023931953],[3.141592653589793,3.141592653589793,3.153086400304824,3.153086400304824,3.153086400304824,3.153086400304824,3.141592653589793]],"response_history":["3"],"rt":7168,"trial_type":"polygon-arrow-question","trial_index":0,"trial_index_global":11,"time_elapsed":436076,"internal_chunk_id":"0-0.3-0"},{"nsides":6,"feedback":"Correct! 3 <img src=./images/hexagon_symbol.png style=width:14px;height:14px> 0 = 3 because 3 + 0 = 3 and 3 - 6 = 3.  Equivalently, 0 steps clockwise on the hexagon from 3 brings us to 3.","orientation_history":[0],"rt":1106,"trial_type":"polygon-arrow-feedback","trial_index":0,"trial_index_global":12,"time_elapsed":437183,"internal_chunk_id":"0-0.3-0"},{"nsides":6,"question":"What is 4 <img src=./images/hexagon_symbol.png style=width:14px;height:14px> 4? Try to solve this problem using the hexagon. <br /><br /> (Remember, to perform <img src=./images/hexagon_symbol.png style=width:14px;height:14px> on the hexagon, you can use the interactive diagram on the right, or perform the operation in your mind. Point the arrow at the first number on the hexagon, and then move the arrow the second number of points clockwise around the hexagon.)","response_type":"free","response_choices":[],"correct_response":"2","response":"2","explain":false,"explanation":"","explanation_history":[],"orientation_history":[[0]],"response_history":["2"],"rt":3915,"trial_type":"polygon-arrow-question","trial_index":0,"trial_index_global":13,"time_elapsed":441099,"internal_chunk_id":"0- 0.3-0"},{"nsides":6,"feedback":"Correct! 4 <img src=./images/hexagon_symbol.png style=width:14px;height:14px> 4 = 2 because 4 steps clockwise on the hexagon from 4 brings us to 2. Equivalently, 4 + 4 = 8 and 8 - 6 = 2.","orientation_history":[0],"rt":852,"trial_type":"polygon-arrow-feedback","trial_index":0,"trial_index_global":14,"time_elapsed":441952,"internal_chunk_id":"0-0.3-0"},{"nsides":6,"question":"What is 1 <img src=./images/hexagon_symbol.png style=width:14px;height:14px> 3? Try to solve this problem using the arithmetic technique. <br /><br /> (Remember, to perform <img src=./images/hexagon_symbol.png style=width:14px;height:14px> by arithmetic, you start with the first number, and then add the second one to it. If the sum is smaller than 6, that's your result. If the sum is 6 or bigger, you subtract 6 to get your result.)","response_type":"free","response_choices":[],"correct_response":"4","response":"4","explain":false,"explanation":"","explanation_history":[],"orientation_history":[[0]],"response_history":["4"],"rt":2716,"trial_type":"polygon-arrow-question","trial_index":0,"trial_index_global":15,"time_elapsed":444669,"internal_chunk_id":"0-0.3-0"},{"nsides":6,"feedback":"Correct! 1 <img src=./images/hexagon_symbol.png style=width:14px;height:14px> 3 = 4 because 1 + 3 = 4 and 4 - 6 = 4.  Equivalently, 3 steps clockwise on the hexagon from 1 brings us to 4.","orientation_history":[0],"rt":797,"trial_type":"polygon-arrow-feedback","trial_index":0,"trial_index_global":16,"time_elapsed":445467,"internal_chunk_id":"0-0.3-0"},{"nsides":6,"question":"What is 4 <img src=./images/hexagon_symbol.png style=width:14px;height:14px> 3? <br /><br /> (Remember, to perform <img src=./images/hexagon_symbol.png style=width:14px;height:14px>, you can either use a method based on the hexagon at right, or a method based on arithmetic.<br /><br /><b>Hexagon method:</b> you can use the interactive diagram on the right, or  perform  the operation in your mind. Point the arrow at the first number, then move the arrow the second number of points clockwise around the hexagon. The number the arrow arrives at is your result. <br /><br /><b>Arithmetic method:</b> you start with the first number, and then add the second one to it. If the sum is smaller than 6, that's your result. If the sum is 6 or bigger, you subtract 6 to get your result.)","response_type":"free","response_choices":[],"correct_response":"1","response":"1","explain":false,"explanation":"","explanation_history":[],"orientation_history":[[0]],"response_history":["7","1"],"rt":7146,"trial_type":"polygon-arrow-question","trial_index":0,"trial_index_global":17,"time_elapsed":452616,"internal_chunk_id":"0-0.3-0"},{"nsides":6,"feedback":"Correct! 4 <img src=./images/hexagon_symbol.png style=width:14px;height:14px> 3 = 1 because 3 steps clockwise on the hexagon from 4 brings us to 1. Equivalently, 4 + 3 = 7 and 7 - 6 = 1.","orientation_history":[0],"rt":912,"trial_type":"polygon-arrow-feedback","trial_index":0,"trial_index_global":18,"time_elapsed":453528,"internal_chunk_id":"0-0.3-0"},{"nsides":6,"question":"What is 0 <img src=./images/hexagon_symbol.png style=width:14px;height:14px> 5? <br /><br /> (Remember, to perform <img src=./images/hexagon_symbol.png style=width:14px;height:14px>, you can either use a method based on the hexagon at right, or a method based on arithmetic.<br /><br /><b>Hexagon method:</b> you can use the interactive diagram on the right, or perform the operation in your mind. Point the arrow at the first number, then move the arrow the second number of points clockwise around the hexagon. The number the arrow arrives at is your result. <br /><br /><b>Arithmetic method:</b> you start with the first number, and then add the second one to it. If the sum is smaller than 6, that's your result. If the sum is 6 or bigger, you subtract 6 to get your result.)","response_type":"free","response_choices":[],"correct_response":"5","response":"5","explain":false,"explanation":"","explanation_history":[],"orientation_history":[[0]],"response_history":["5"],"rt":2291,"trial_type":"polygon-arrow-question","trial_index":0,"trial_index_global":19,"time_elapsed":455820,"internal_chunk_id":"0-0.3-0"},{"nsides":6,"feedback":"Correct! 0 <img src=./images/hexagon_symbol.png style=width:14px;height:14px> 5 = 5 because 5 steps clockwise on the hexagon from 0 brings us to 5. Equivalently, 0 + 5 = 5 and 5 is less than 6.","orientation_history":[0],"rt":1074,"trial_type":"polygon-arrow-feedback","trial_index":0,"trial_index_global":20,"time_elapsed":456895,"internal_chunk_id":"0-0.3-0"},{"nsides":6,"question":"What is 2 <img src=./images/hexagon_symbol.png style=width:14px;height:14px> 5? <br /><br /> (Remember, to perform <img src=./images/hexagon_symbol.png style=width:14px;height:14px>, you can either use a method based on the hexagon at right, or a method ba sed on a rithmetic.<br /><br /><b>Hexagon method:</b> you can use the interactive diagram on the right, or perform the operation in your mind. Point the arrow at the first number, then move the arrow the second number of points clockwise around the hexagon. The number the arrow arrives at is your result. <br /><br /><b>Arithmetic method:</b> you start with the first number, and then add the second one to it. If the sum is smaller than 6, that's your result. If the sum is 6 or bigger, you subtract 6 to get your result.)","response_type":"free","response_choices":[],"correct_response":"1","response":"1","explain":false,"explanation":"","explanation_history":[],"orientation_history":[[0]],"response_history":["1"],"rt":3063,"trial_type":"polygon-arrow-question","trial_index":0,"trial_index_global":21,"time_elapsed":459959,"internal_chunk_id":"0-0.3-0"},{"nsides":6,"feedback":"Correct! 2 <img src=./images/hexagon_symbol.png style=width:14px;height:14px> 5 = 1 because 5 steps clock wise on  the hexagon from 2 brings us to 1. Equivalently, 2 + 5 = 7 and 7 - 6 = 1.","orientation_history":[0],"rt":843,"trial_type":"polygon-arrow-feedback","trial_index":0,"trial_index_global":22,"time_elapsed":460803,"internal_chunk_id":"0-0.3-0"},{"nsides":6,"instructions":"Now we're going to discuss a couple special properties of this new operation, <img src=./images/hexagon_symbol.png style=width:14px;height:14px> that we've learned. First, notice that the number 0 behaves in a special way under <img src=./images/hexagon_symbol.png style=width:14px;height:14px>. Whenever we combine 0 with anything else, we get that same thing back. We'll say that 0 is the <i>identity</i> under <img src=./images/hexagon_symbol.png style=width:14px;height:14px>, because when you combine it with something it gives you that identical thing back.","orientation_history":[0],"rt":9304,"trial_type":"polygon-arrow-instructions","trial_index":0,"trial_index_global":23,"time_elapsed":470112,"internal_chunk_id":"0-0"},{"nsides":6,"instructions":"Now that we know 0 is the identity under <img src=./images/hexagon_symbol.png style=width:14px;height:14px>, we're going to make a new definition. We'll say that the <i>inverse</i> of a number is the element that you combine with it to produce the identity. For example, 5 <img src=./images/hexagon_symbol.png style=width:14px;height:14px> 1 = 0, so we say 1 is the inverse of 5 under <img src=./images/hexagon_symbol.png style=width:14px;height:14px>, (remember 0 is the identity under <img src=./images/hexagon_symbol.png style=width:14px;height:14px>). Similarly, 3 is its own inverse under <img src=./images/hexagon_symbol.png style=width:14px;height:14px>, because 3 <img src=./images/hexagon_symbol.png style=width:14px;height:14px> 3 = 0.","orientation_history":[0],"rt":2376,"trial_type":"polygon-arrow-instructions","trial_index":0,"trial_index_global":24,"time_elapsed":472488,"internal_chunk_id":"0-0"},{"nsides":6,"question":"Now you try! What is the inverse of 4 under <img src=./images/hexagon_symbol.png style=width:14px;height:14px>? <br /><br /> (Remember, the inverse of an element is the thing which you combine with it to produce the identity.)","response_type":"free","response_choices":[],"correct_response":"2","response":"2","explain":false,"explanation":"","explanation_history":[],"orientation_history":[[0],[4.0488332540071585,4.0488332540071585,4.0488332540071585,4.0488332540071585,4.0488332540071585,4.0488332540071585,4.0488332540071585,4.1887902047863905]],"response_history":["2"],"rt":29141,"trial_type":"polygon-arrow-question","trial_index":0,"trial_index_global":25,"time_elapsed":501631,"internal_chunk_id":"0-0.7-0"},{"nsides":6,"feedback":"Correct! The inverse of 4 under <img src=./images/hexagon_symbol.png style=width:14px;height:14px> is 2 because 4 <img src=./images/hexagon_symbol.png style=width:14px;height:14px> 2 = 0 , and 0 is the identity under <img src=./images/hexagon_symbol.png style=width:14px;height:14px>.","orientation_history":[0],"rt":12512,"trial_type":"polygon-arrow-feedback","trial_index":0,"trial_index_global":26,"time_elapsed":514144,"internal_chunk_id":"0-0.7-0"},{"nsides":6,"question":"What is the inverse of 1 under <img src=./images/hexagon_symbol.png style=width:14px;height:14px>? <br /><br /> (Remember, the inverse of an element is the thing which you combine with it to produce the identity.)","response_type":"free","response_choices":[],"correct_response":"5","response":"0","explain":false,"explanation":"","explanation_history":[],"orientation_history":[[0]],"response_history":["0"],"rt":25402,"trial_type":"polygon-arrow-question","trial_index":0,"trial_index_global":27,"time_elapsed":539548,"internal_chunk_id":"0-0.7-0"},{"nsides":6,"feedback":"Sorry, that was incorrect. The inverse of 1 under <img src=./images/hexagon_symbol.png style=width:14 px;heigh t:14px> is 5 because 1 <img src=./images/hexagon_symbol.png style=width:14px;height:14px> 5 = 0, and 0 is the identity under <img src=./images/hexagon_symbol.png style=width:14px;height:14px>.","orientation_history":[0],"rt":8867,"trial_type":"polygon-arrow-feedback","trial_index":0,"trial_index_global":28,"time_elapsed":548415,"internal_chunk_id":"0-0.7-0"},{"nsides":6,"question":"What is the inverse of 3 under <img src=./images/hexagon_symbol.png style=width:14px;height:14px>? <br /><br /> (Remember, the inverse of an element is the thing which you combine with it to produce the identity.)","response_type":"free","response_choices":[],"correct_response":"3","response":"3","explain":false,"explanation":"","explanation_history":[],"orientation_history":[[0]],"response_history":["2","3"],"rt":3676,"trial_type":"polygon-arrow-question","trial_index":0,"trial_index_global":29,"time_elapsed":552092,"internal_chunk_id":"0-0.7-0"},{"nsides":6,"feedback":" Correct!  The inverse of 3 under <img src=./images/hexagon_symbol.png style=width:14px;height:14px> is 3 because 3 <img src=./images/hexagon_symbol.png style=width:14px;height:14px> 3 = 0, and 0 is the identity under <img src=./images/hexagon_symbol.png style=width:14px;height:14px>.","orientation_history":[0],"rt":882,"trial_type":"polygon-arrow-feedback","trial_index":0,"trial_index_global":30,"time_elapsed":552975,"internal_chunk_id":"0-0.7-0"},{"nsides":6,"question":"What is the inverse of 2 under <img src=./images/hexagon_symbol.png style=width:14px;height:14px>? <br /><br /> (Remember, the inverse of an element is the thing which you combine with it to produce the identity.)","response_type":"free","response_choices":[],"correct_response":"4","response":"4","explain":false,"explanation":"","explanation_history":[],"orientation_history":[[0]],"response_history":["4"],"rt":1939,"trial_type":"polygon-arrow-question","trial_index":0,"trial_index_global":31,"time_elapsed":554915,"internal_chunk_id":"0-0.7-0"},{"nsides":6,"feedback":"Correct! The inverse of 2 under <img src=./images/hexagon_symbol.png style=width:14px;height:14px> is 4 because 2 <img src=./images/hexagon_symbol.png style=width:14px;height:14px> 4 = 0, and 0 is the identity under <img src=./images/hexagon_symbol.png style=width:14px;height:14px>.","orientation_history":[0],"rt":707,"trial_type":"polygon-arrow-feedback","trial_index":0,"trial_index_global":32,"time_elapsed":555623,"internal_chunk_id":"0-0.7-0"},{"nsides":6,"question":"What is the inverse of 0 under <img src=./images/hexagon_symbol.png style=width:14px;height:14px>? <br /><br /> (Remember, the inverse of an element is the thing which you combine with it to produce the identity.)","response_type":"free","response_choices":[],"correct_response":"0","response":"6","explain":false,"explanation":"","explanation_history":[],"orientation_history":[[0]],"response_history":["6 "],"rt":1808,"trial_type":"polygon-arrow-question","trial_index":0,"trial_index_global":33,"time_elapsed":557432,"internal_chunk_id":"0-0.7-0"},{"nsides":6,"feedback":"Sorry, that was incorrect. The inverse of 0 under <img src=./images/hexagon_symbol.png style=width:14px;height:14px> is 0 because 0 <img src=./images/hexagon_symbol.png style=width:14px;height:14px> 0 = 0, and 0 is the identity under <img src=./images/hexagon_symbol.png style=width:14px;height:14px>.","orientation_history":[0],"rt":2566,"trial_type":"polygon-arrow-feedback","trial_index":0,"trial_index_global":34,"time_elapsed":559999,"internal_chunk_id":"0-0.7-0"},{"nsides":6,"instructions":"It is also possible to successively apply <img src=./images/hexagon_symbol.png style=width:14px;height:14px>, and the operation can simply be performed starting with the left-most pair. For example, 2 <img src=./images/hexagon_symbol.png style=width:14px;height:14px> 3 <img src=./images/h exagon_s ymbol.png style=width:14px;height:14px> 4 = 5 <img src=./images/hexagon_symbol.png style=width:14px;height:14px> 4 = 3.","orientation_history":[0],"rt":5306,"trial_type":"polygon-arrow-instructions","trial_index":0,"trial_index_global":35,"time_elapsed":565308,"internal_chunk_id":"0-0"},{"nsides":6,"instructions":"We have one last definition to learn today, using the successive operations we just learned. Let's start with an example. Under our operation <img src=./images/hexagon_symbol.png style=width:14px;height:14px> we can make every other number using just 1: 2 = 1 <img src=./images/hexagon_symbol.png style=width:14px;height:14px> 1, 3 = 1 <img src=./images/hexagon_symbol.png style=width:14px;height:14px> 1 <img src=./images/hexagon_symbol.png style=width:14px;height:14px> 1, 4 = 1 <img src=./images/hexagon_symbol.png style=width:14px;height:14px> 1 <img src=./images/hexagon_symbol.png style=width:14px;height:14 px> 1  <img src=./images/hexagon_symbol.png style=width:14px;height:14px> 1, 5 = 1 <img src=./images/hexagon_symbol.png style=width:14px;height:14px> 1 <img src=./images/hexagon_symbol.png style=width:14px;height:14px> 1 <img src=./images/hexagon_symbol.png style=width:14px;height:14px> 1 <img src=./images/hexagon_symbol.png style=width:14px;height:14px> 1, and 0 = 1 <img src=./images/hexagon_symbol.png style=width:14px;height:14px> 1 <img src=./images/hexagon_symbol.png style=width:14px;height:14px> 1 <img src=./images/hexagon_symbol.png style=width:14px;height:14px> 1 <img src=./images/hexagon_symbol.png style=width:14px;height:14px> 1 <img src=./images/hexagon_symbol.png style=width:14px;height:14px> 1. Because 1 can make every other element under <img src=./images/hexagon_symbol.png style=width:14px;height:14px>, we say that 1 is a <i>generator</i> under <img src=./images/hexagon_symbol.pn g styl e=width:14px;height:14px>. <br /><br /> However, 2 is not a generator under <img src=./images/hexagon_symbol.png style=width:14px;height:14px>, because 4 = 2 <img src=./images/hexagon_symbol.png style=width:14px;height:14px> 2, and 0 = 2 <img src=./images/hexagon_symbol.png style=width:14px;height:14px> 2 <img src=./images/hexagon_symbol.png style=width:14px;height:14px> 2, but there is no way to make 1, 3, or 5 using just 2.","orientation_history":[0],"rt":8914,"trial_type":"polygon-arrow-instructions","trial_index":0,"trial_index_global":36,"time_elapsed":574224,"internal_chunk_id":"0-0"},{"nsides":6,"question":"Now you try! Is 3 a generator under <img src=./images/hexagon_symbol.png style=width:14px;height:14px>? <br /><br /> (Remember, a generator is an element which can make every other element.)","response_type":"multi","response_choices":["Yes","No"],"correct_response":"No","response":"Yes","explain":false,"explanation":"","explanation_history":[],"orientation_history":[[0]],"response_history":["Yes"],"rt":7967,"trial_type":"polygon-arrow-question","trial_index":0,"trial_index_global":37,"time_elapsed":582192,"internal_chunk_id":"0-0.10-0"},{"nsides":6,"feedback":"Sorry, that's incorrect. 3 is not a generator under <img src=./images/hexagon_symbol.png style=width:14px;height:14px>, because 3 = 3, 0 = 3 <img src=./images/hexagon_symbol.png style=width:14px;height:14px> 3, but there is no way to make 1, 2, 4, or 5 using just 3.","orientation_history":[0],"rt":1938,"trial_type":"polygon-arrow-feedback","trial_index":0,"trial_index_global":38,"time_elapsed":584131,"internal_chunk_id":"0-0.10-0"},{"nsides":6,"question":"Is 5 a generator under <img src=./images/hexagon_symbol.png style=width:14px;height:14px>? <br /><br /> (Remember, a generator is an element which can make every other element.)","response_type":"multi","response_choices":["Yes","No"],"correct_response":"Yes","response":"Yes","explain":false,"explanation":"","explanation_history":[],"orientation_history":[[0]],"response_history":["Yes"],"rt":2260,"trial_type":"polygon-arrow-question","trial_index":0,"trial_index_global":39,"time_elapsed":586392,"internal_chunk_id":"0-0.10-0"},{"nsides":6,"feedback":"Correct! 5 is a generator under <img src=./images/hexagon_symbol.png style=width:14px;height:14px>, because 5 = 5, 4 = 5 <img src=./images/hexagon_symbol.png style=width:14px;height:14px> 5, 3 = 5 <img src=./images/hexagon_symbol.png style=width:14px;height:14px> 5 <img src=./images/hexagon_symbol.png style=width:14px;height:14px> 5, 2 = 5 <img src=./images/hexagon_symbol.png style=width:14px;height:14px> 5 <img src=./images/hexagon_symbol.png style=width:14px;height:14px> 5 <img src=./images/hexagon_symbol.png style=width:14px;height:14px> 5, 1 = 5 <img src=./images/hexagon_symbol.png style=width:14px;height:14px> 5 <img src=./images/ hexagon_ symbol.png style=width:14px;height:14px> 5 <img src=./images/hexagon_symbol.png style=width:14px;height:14px> 5 <img src=./images/hexagon_symbol.png style=width:14px;height:14px> 5, and 0 = 5 <img src=./images/hexagon_symbol.png style=width:14px;height:14px> 5 <img src=./images/hexagon_symbol.png style=width:14px;height:14px> 5 <img src=./images/hexagon_symbol.png style=width:14px;height:14px> 5 <img src=./images/hexagon_symbol.png style=width:14px;height:14px> 5 <img src=./images/hexagon_symbol.png style=width:14px;height:14px> 5, so you can make all of the numbers under <img src=./images/hexagon_symbol.png style=width:14px;height:14px> using 5","orientation_history":[0],"rt":699,"trial_type":"polygon-arrow-feedback","trial_index":0,"trial_index_global":40,"time_elapsed":587091,"internal_chunk_id":"0-0.10-0"},{"nsides":6,"question":"Is 4 a generator under <img src=./images/hexagon_symbol.png style=w idth:14p x;height:14px>? <br /><br /> (Remember, a generator is an element which can make every other element.)","response_type":"multi","response_choices":["Yes","No"],"correct_response":"No","response":"No","explain":false,"explanation":"","explanation_history":[],"orientation_history":[[0]],"response_history":["No"],"rt":1720,"trial_type":"polygon-arrow-question","trial_index":0,"trial_index_global":41,"time_elapsed":588812,"internal_chunk_id":"0-0.10-0"},{"nsides":6,"feedback":"Correct! 4 is not a generator under <img src=./images/hexagon_symbol.png style=width:14px;height:14px>, because 4 = 4, 2 = 4 <img src=./images/hexagon_symbol.png style=width:14px;height:14px> 4, and 0 = 4 <img src=./images/hexagon_symbol.png style=width:14px;height:14px> 4 <img src=./images/hexagon_symbol.png style=width:14px;height:14px> 4, but there is no way to make 1, 3, or 5 using just 4.","orientation_history":[0],"rt":742,"trial_type":"polygon-arrow-feedback","trial_index":0,"trial_index_global":42,"time_elapsed":589555,"internal_chunk_id":"0-0.10-0"},{"nsides":6,"question":"Is 0 a generator under <img src=./images/hexagon_symbol.png style=width:14px;height:14px>? <br /><br /> (Remember, a generator is an element which can make every other element.)","response_type":"multi","response_choices":["Yes","No"],"correct_response":"No","response":"No","explain":false,"explanation":"","explanation_history":[],"orientation_history":[[0]],"response_history":["No"],"rt":4563,"trial_type":"polygon-arrow-question","trial_index":0,"trial_index_global":43,"time_elapsed":594119,"internal_chunk_id":"0-0.10-0"},{"nsides":6,"feedback":"Correct! 0 is not a generator under <img src=./images/hexagon_symbol.png style=width:14px;height:14px>, because 0 = 0, but there is no way to make 1, 2, 3, 4, or 5 using just 0.","orientation_history":[0],"rt":743,"trial_type":"polygon-arrow-feedback","trial_index":0,"trial_index_global":44,"time_elapsed":594863,"internal_chunk_id":"0-0.10-0"},{"nsides":9,"instructions":"Now we are going to ask you some questions about a new operation, <img src=./images/nonagon_symbol.png style=width:14px;height:14px>, on the numbers 0, 1, 2, 3, 4, 5, 6, 7, 8. It works exactly like <img src=./images/hexagon_symbol.png style=width:14px;height:14px>, except now you use the nonagon shown at the right. Equivalently, after adding the two numbers you subtract 9 if your result is 9 or greater.<br /><br />Do you see how the different ways of performing <img src=./images/nonagon_symbol.png style=width:14px;height:14px> give the same result, just like with <img src=./images/hexagon_symbol.png style=width:14px;height:14px>? By labeling the points of the nonagon with the numbers from 0 to 8, we ensure that when we combine two numbers under <img src=./images/nonagon_symbol.png style=width:14px;height:14px>, we only produce numbers between 0 and 8. When we use the arithmetic strategy , adding  the second number to the first mimics counting around the nonagon, and subtracting 9 each time we get above 8 makes sure the results correspond to the numbers on the points of the nonagon.<br /><br />We'll give you one practice question with feedback to make sure you understand the new operation. After that, try to complete the remaining questions as accurately as possible.","orientation_history":[0],"rt":1793941,"trial_type":"polygon-arrow-instructions","trial_index":0,"trial_index_global":45,"time_elapsed":2388805,"internal_chunk_id":"0-0"},{"nsides":9,"question":"Practice: What is 5 <img src=./images/nonagon_symbol.png style=width:14px;height:14px> 5?","response_type":"free","response_choices":[],"correct_response":"1","response":"1","explain":false,"explanation":"","explanation_history":[],"orientation_history":[[0]],"response_history":["1"],"rt":2575,"trial_type":"polygon-arrow-question","trial_index":0,"trial_index_global":46,"time_elapsed":2391381,"internal_chunk_id":"0-0.12-0"},{"nsides":9,"feedback":"Correct! 5 <img src=./images/nonagon_symbol.png style=width:14px;height:14px> 5 = 1 because 5 steps clockwise on the nonagon from 5 brings us to 1. Equivalently, 5 + 5 = 10 and 10 - 9 = 1.","orientation_history":[0],"rt":1155,"trial_type":"polygon-arrow-feedback","trial_index":0,"trial_index_global":47,"time_elapsed":2392537,"internal_chunk_id":"0-0.12-0"},{"nsides":9,"question":"What is 3 <img src=./images/nonagon_symbol.png style=width:14px;height:14px> 3?","response_type":"free","response_choices":[],"correct_response":"6","response":"6","explain":false,"explanation":"","explanation_history":[],"orientation_history":[[0]],"response_history":["6"],"rt":2439,"trial_type":"polygon-arrow-question","trial_index":0,"trial_index_global":48,"time_elapsed":2394976,"internal_chunk_id":"0-0.12-0"},{"nsides":9,"question":"What is 7 <img src=./images/nonagon_symbol.png style=width:14px;height:14px> 4?","response_type":"free","response_choices":[],"correct_response":"2","response":"2","explain":false,"explanation":"","explanation_history":[],"orientation_history":[[0]],"response_history":["2"],"rt":2259,"trial_type":"polygon-arrow-question","trial_index":0,"trial_index_global":49,"time_elapsed":2397236,"internal_chunk_id":"0-0.12-0"},{"nsides":9,"question":"What is 1 <img src=./images/nonagon_symbol.png style=width:14px;height:14px> 8?","response_type":"free","response_choices":[],"correct_response":"0","response":"9","explain":false,"explanation":"","explanation_history":[],"orientation_history":[[0]],"response_history":["9"],"rt":2146,"trial_type":"polygon-arrow-question","trial_index":0,"trial_index_global":50,"time_elapsed":2399384,"internal_chunk_id":"0-0.12-0"},{"nsides":9,"question":"What is 5 <img src=./images/nonagon_symbol.png style=width:14px;height:14px> 4?","response_type":"free","response_choices":[],"correct_response":"0","response":"9","explain":false,"explanation":"","explanation_history":[],"orientation_history":[[0]],"response_history":["9"],"rt":2896,"trial_type":"polygon-arrow-question","trial_index":0,"trial_index_global":51,"time_elapsed":2402280,"internal_chunk_id":"0-0.12-0"},{"nsides":9,"question":"What is 6 <img src=./images/nonagon_symbol.png style=width:14px;height:14px> 6?","response_type":"free","response_choices":[],"correct_response":"3","response":"3","explain":false,"explanation":"","explanation_history":[],"orientation_history":[[0]],"response_history":["3"],"rt":1803,"trial_type":"polygon-arrow-question","trial_index":0,"trial_index_global":52,"time_elapsed":2404084,"internal_chunk_id":"0-0.12-0"},{"nsides":9,"instructions":"On the following question, and several others later in the HIT, we will ask you to explain how you got your answer. On these questions, you will be given one box for your answer to the question, and a second for your explanation. Please explain your thought process in as much detail as possible (at l east one  sentence, and more if you can).","orientation_history":[0],"rt":2083,"trial_type":"polygon-arrow-instructions","trial_index":0,"trial_index_global":53,"time_elapsed":2406168,"internal_chunk_id":"0-0.12-0"},{"nsides":9,"question":"What is 4 <img src=./images/nonagon_symbol.png style=width:14px;height:14px> 1? Please explain in words how you got your answer.","response_type":"free","response_choices":[],"correct_response":"5","response":"5","explain":true,"explanation":"4 + 1 = 5 which is < 9","explanation_history":["4 _","4 _ 1 ","4 _ 1","4 _ ","4 _","4 _","4 + 1 = 5 wj","4 + 1 = 5 which is < 9"],"orientation_history":[[0]],"response_history":["4","5"],"rt":23419,"trial_type":"polygon-arrow-question","trial_index":0,"trial_index_global":54,"time_elapsed":2429588,"internal_chunk_id":"0-0.12-0"},{"nsides":9,"question":"What is 8 <img src=./images/nonagon_symbol.png style=width:14px;height:14px> 4? Please explain in words how you got your answer.","response_type":"free","response_choices":[],"correct_response":"3","response":"3","explain":true,"explanation":"8 + 4 = 12 which is > 9 so you subtract 9 from 12 and get 3","explanation_history":["8 + 4 -","8 + 4 = 12 -","8 + 4 = 12 wj","8 + 4 = 12 which is > 9 so you subtract 9 from 12 and get 3"],"orientation_history":[[0]],"response_history":["3"],"rt":25467,"trial_type":"polygon-arrow-question","trial_index":0,"trial_index_global":55,"time_elapsed":2455057,"internal_chunk_id":"0-0.12-0"},{"nsides":9,"question":"What is the identity under <img src=./images/nonagon_symbol.png style=width:14px;height:14px>? Please explain in words how you got your answer.","response_type":"free","response_choices":[],"correct_response":"0","response":"0","explain":true,"explanation":"The arrow indicates this and it is between 8 and 1","explanation_history":["The arrow indicates this and it is between 8 and 1"],"orientation_history":[[0]],"response_history":["0"],"rt":24799,"trial_type":"polygon-arrow-qu estion","trial_index":0,"trial_index_global":56,"time_elapsed":2479856,"internal_chunk_id":"0-0.12-0"},{"nsides":9,"question":"What is the inverse of 5 under <img src=./images/nonagon_symbol.png style=width:14px;height:14px>?","response_type":"free","response_choices":[],"correct_response":"4","response":"4","explain":false,"explanation":"","explanation_history":[],"orientation_history":[[0]],"response_history":["4"],"rt":15627,"trial_type":"polygon-arrow-question","trial_index":0,"trial_index_global":57,"time_elapsed":2495484,"internal_chunk_id":"0-0.12-0"},{"nsides":9,"question":"What is the inverse of 2 under <img src=./images/nonagon_symbol.png style=width:14px;height:14px>?","response_type":"free","response_choices":[],"correct_response":"7","response":"7","explain":false,"explanation":"","explanation_history":[],"orientation_history":[[0]],"response_history":["7"],"rt":5541,"trial_type":"polygon-arrow-question","trial_index":0,"trial_index_global":58,"time_elapsed":2501025,"internal_chunk_id":"0-0.12-0"},{"nsides":9,"question":"What is the inverse of 0 under <img src=./images/nonagon_symbol.png style=width:14px;height:14px>?","response_type":"free","response_choices":[],"correct_response":"0","response":"0","explain":false,"explanation":"","explanation_history":[],"orientation_history":[[0]],"response_history":["0"],"rt":4715,"trial_type":"polygon-arrow-question","trial_index":0,"trial_index_global":59,"time_elapsed":2505741,"internal_chunk_id":"0-0.12-0"},{"nsides":9,"question":"What is the inverse of 3 under <img src=./images/nonagon_symbol.png style=width:14px;height:14px>? Please explain in words how you got your answer.","response_type":"free","response_choices":[],"correct_response":"6","response":"6","explain":true,"explanation":"It is 3 away counter-clockwise","explanation_history":["It is 3 away counter-clockwise"],"orientation_history":[[0]],"response_history":["6"],"rt":16438,"trial_type":"polygon-arrow-question ","trial_index":0,"trial_index_global":60,"time_elapsed":2522180,"internal_chunk_id":"0-0.12-0"},{"nsides":9,"question":"Is 2 a generator under <img src=./images/nonagon_symbol.png style=width:14px;height:14px>? Please explain in words how you got your answer.","response_type":"multi","response_choices":["Yes","No"],"correct_response":"Yes","response":"No","explain":true,"explanation":"It can not add up to all the others","explanation_history":["It can not add up to all the others"],"orientation_history":[[0]],"response_history":["No"],"rt":17026,"trial_type":"polygon-arrow-question","trial_index":0,"trial_index_global":61,"time_elapsed":2539207,"internal_chunk_id":"0-0.12-0"},{"nsides":9,"question":"Is 3 a generator under <img src=./images/nonagon_symbol.png style=width:14px;height:14px>? Please explain in words how you got your answer.","response_type":"multi","response_choices":["Yes","No"],"correct_response":"No","response":"Yes","explain":true,"explanation":"It  is an in teger of 9","explanation_history":["It is an integer of 9"],"orientation_history":[[0]],"response_history":["Yes"],"rt":11019,"trial_type":"polygon-arrow-question","trial_index":0,"trial_index_global":62,"time_elapsed":2550227,"internal_chunk_id":"0-0.12-0"},{"nsides":9,"question":"Is 5 a generator under <img src=./images/nonagon_symbol.png style=width:14px;height:14px>? Please explain in words how you got your answer.","response_type":"multi","response_choices":["Yes","No"],"correct_response":"Yes","response":"No","explain":true,"explanation":"It can not add up to all the others equally","explanation_history":["It can not add up to all the others equally"],"orientation_history":[[0]],"response_history":["No"],"rt":13023,"trial_type":"polygon-arrow-question","trial_index":0,"trial_index_global":63,"time_elapsed":2563251,"internal_chunk_id":"0-0.12-0"},{"nsides":9,"question":"Is 6 a generator under <img src=./images/nonagon_symbol.png style=width:14px;height:14p x>? Pl ease explain in words how you got your answer.","response_type":"multi","response_choices":["Yes","No"],"correct_response":"No","response":"Yes","explain":true,"explanation":"It's an integer of 9","explanation_history":["It's an integer of 9"],"orientation_history":[[0]],"response_history":["Yes"],"rt":7863,"trial_type":"polygon-arrow-question","trial_index":0,"trial_index_global":64,"time_elapsed":2571115,"internal_chunk_id":"0-0.12-0"},{"nsides":"n","instructions":"Now we'd like to ask you some questions about <img src=./images/ngon_symbol.png style=width:14px;height:14px>, where n could be any postive counting number. For example, n could be 3, and the polygon a triangle, or n could be any other counting number you can think of, in which case the corresponding polygon would have n sides. Just as before, you can use either the polygon or arithmetic methods. If you need to write the operation, you can use (n), and your answers can include n to stand in for the a rbitrary  value if necessary. (You can use the polygon at the right to think, but it doesn't necessarily correspond to the real polygon, which is why we've left most of it dashed.)","orientation_history":[0],"rt":2031,"trial_type":"polygon-arrow-instructions","trial_index":0,"trial_index_global":65,"time_elapsed":2573147,"internal_chunk_id":"0-0"},{"nsides":"n","question":"What is the formula for the inverse of 1 under <img src=./images/ngon_symbol.png style=width:14px;height:14px>?","response_type":"free","response_choices":[],"correct_response":"n-1","response":"1","explain":false,"explanation":"","explanation_history":[],"orientation_history":[[0],[6.2718221599152955,6.2718221599152955,6.2718221599152955,6.2718221599152955,6.2718221599152955,6.271949824921624,6.271949824921624,6.271949824921624,0,0.011363147264290774,0.03446910099950795,0.09275632018814362,0.12869650127801413,0.1996838853751015,0.28147929852804254,0.3507279482482035,0.44394572508799723,0.5070985043923368,0.540419500270584,0.5937496667107711,0.6393859056861728,0.6947382761967031,0.7306583833475675,0.7513976659250272,0.7652666552670457,0.798730706691594,0.818066275799364,0.8311179147937366,0.8441539861131709,0.8441539861131709,0.8441539861131709,0.850242190950655,0.857170096333268,0.857170096333268,0.8631631030001806,0.8701618925100659,0.8760580505981934,0.883125070756167,0.9089486528884919,0.9162255594715052,0.9162255594715052,0.9162255594715052,0.9162255594715052,0.9162255594715052,0.9162255594715052,0.9162255594715052,0.9162255594715052,0.9162255594715052,0.9162255594715052,0.9162255594715052,0.9162255594715052,0.9162255594715052,0.9162255594715052,0.9162255594715052,0.9162255594715052,0.9162255594715052,0.9162255594715052,0.9162255594715052,0.9162255594715052,0.9162255594715052,0.9162255594715052,0.9162255594715052,0.9162255594715052,0.9162255594715052,0.9162255594715052,0.9162255594715052,0.9162255594715052,0.9162255594715052,0.9162255594715052,0.9162255594715052,0.9162255594715052,0.9162255594715052,0.9162255594715052,0.9162255594715052,0.9162255594715052,0.9162255594715052,0.9162255594715052,0.9162255594715052,0.9162255594715052,0.9162255594715052,0.9162255594715052,0.9162255594715052,0.9162255594715052,0.9162255594715052,0.9162255594715052,0.9162255594715052,0.9162255594715052,0.9162255594715052,0.9162255594715052,0.9162255594715052,0.9162255594715052,0.9162255594715052,0.9162255594715052,0.9162255594715052,0.9162255594715052,0.9162255594715052,0.9162255594715052,0.9162255594715052,0.9162255594715052,0.9162255594715052,0.9162255594715052,0.9162255594715052,0.9162255594715052,0.9162255594715052,0.9162255594715052,0.9162255594715052,0.9162255594715052,0.9162255594715052,0.9162255594715052,0.9162255594715052,0.9162255594715052,0.9162255594715052,0.9162255594715052,0.9162255594715052,0.9162255594715052,0.9162255594715052,0.9162255594715052,0.9162255594715052,0.9162255594715052,0.9162255594715052,0.9162255594715052,0.9162255594715052,0.9162255594715052,0.9162255594715052,0.9162255594715052,0.9162255594715052,0.9162255594715052,0.9162255594715052,0.9162255594715052,0.9162255594715052,0.9162255594715052,0.9162255594715052,0.9162255594715052,0.9162255594715052,0.9162255594715052,0.9162255594715052,0.9162255594715052,0.9162255594715052,0.9162255594715052,0.9162255594715052,0.9162255594715052,0.9162255594715052,0.9162255594715052,0.9162255594715052,0.9162255594715052,0.9162255594715052,0.9162255594715052,0.9162255594715052,0.9162255594715052,0.9162255594715052,0.9162255594715052,0.9162255594715052,0.9162255594715052,0.9162255594715052,0.9162255594715052,0.9162255594715052,0.9162255594715052,0.9162255594715052,0.9162255594715052,0.9162255594715052,0.9162255594715052,0.9162255594715052,0.9162255594715052,0.9162255594715052,0.9162255594715052,0.9162255594715052,0.9162255594715052,0.9162255594715052,0.9162255594715052,0.9162255594715052,0.9162255594715052,0.9162255594715052,0.9162255594715052,0.9162255594715052,0.9162255594715052,0.9162255594715052,0.9162255594715052,0.9162255594715052,0.9162255594715052,0.9162255594715052,0.9162255594715052,0.9162255594715052,0.9162255594715052,0.9162255594715052,0.9162255594715052,0.9162255594715052,0.9162255594715052,0.9162255594715052,0.9162255594715052,0.9162255594715052,0.9162255594715052,0.9162255594715052,0.9162255594715052,0.9162255594715052,0.9162255594715052,0.9162255594715052,0.9162255594715052,0.9162255594715052,0.9162255594715052,0.9162255594715052,0.9162255594715052,0.9162255594715052,0.9162255594715052,0.9162255594715052,0.9162255594715052,0.9162255594715052,0.9162255594715052,0.9162255594715052,0.9162255594715052,0.9162255594715052,0.9162255594715052,0.9162255594715052,0.9162255594715052,0.9162255594715052,0.9162255594715052,0.9162255594715052,0.9162255594715052,0.9162255594715052,0.9162255594715052,0.9162255594715052,0.9162255594715052,0.9162255594715052,0.9162255594715052,0.9162255594715052,0.9162255594715052,0.9162255594715052,0.9162255594715052,0.9162255594715052,0.9162255594715052,0.9162255594715052,0.9162255594715052,0.9162255594715052,0.9162255594715052,0.9162255594715052,0.9162255594715052,0.9162255594715052,0.9162255594715052,0.9162255594715052,0.9162255594715052,0.9162255594715052,0.9162255594715052,0.9162255594715052,0.9162255594715052,0.9162255594715052,0.9162255594715052,0.9162255594715052,0.9162255594715052,0.9162255594715052,0.9162255594715052,0.9162255594715052,0.9162255594715052,0.9162255594715052,0.9162255594715052,0.9162255594715052,0.9162255594715052,0.9162255594715052,0.9162255594715052,0.9162255594715052,0.9162255594715052,0.9162255594715052,0.9162255594715052,0.9162255594715052,0.9162255594715052,0.9162255594715052,0.9162255594715052,0.9162255594715052,0.9162255594715052,0.9162255594715052,0.9162255594715052,0.9162255594715052,0.9162255594715052,0.9162255594715052,0.9162255594715052,0.9162255594715052,0.9162255594715052,0.9162255594715052,0.9162255594715052,0.9162255594715052,0.9162255594715052,0.9162255594715052,0.9162255594715052,0.9162255594715052,0.9162255594715052,0.9162255594715052,0.9162255594715052,0.9162255594715052,0.9162255594715052,0.9162255594715052,0.9162255594715052,0.9162255594715052,0.9162255594715052,0.9162255594715052,0.9162255594715052,0.9162255594715052,0.9162255594715052,0.9162255594715052,0.9162255594715052,0.9162255594715052,0.9162255594715052,0.9162255594715052,0.9162255594715052,0.9162255594715052,0.9162255594715052,0.9162255594715052,0.9162255594715052,0.9162255594715052,0.9162255594715052,0.9162255594715052,0.9162255594715052,0.8797121147246287,0.8066715494215094,0.7028792089644667,0.578714944913199,0.5093011440020119,0.32932616704783757,0.2567083304333857,0.23040243605886146,0.2044212053771466,0.15536425385153319,0.14358339364646855,0.11848995915813765,0.09495170634275629,0.05875582271572255,0.02325162281046289,6.237240651371467,6.1588303126328245,6.136518813382393,6.085789747329706,6.075129170388561,6.075129170388561,6.075129170388561,6.075129170388561,6.075129170388561,6.075129170388561,6.075129170388561,6.075129170388561,6.075129170388561,6.075129170388561,6.075129170388561,6.075129170388561,6.075129170388561,6.075129170388561,6.075129170388561,6.075129170388561,6.075129170388561,6.075129170388561,6.075129170388561,6.075129170388561,6.075129170388561,6.075129170388561,6.075129170388561,6.075129170388561,6.075129170388561,6.075129170388561,6.075129170388561,6.075129170388561,6.075129170388561,6.075129170388561,6.075129170388561,6.075129170388561,6.075129170388561,6.075129170388561,6.075129170388561,6.075129170388561,6.075129170388561,6.075129170388561,6.075129170388561,6.075129170388561,6.075129170388561,6.075129170388561,6.075129170388561,6.075129170388561,6.075129170388561,6.075129170388561,6.075129170388561,6.075129170388561,6.075129170388561,6.075129170388561,6.075129170388561,6.075129170388561,6.075129170388561,6.075129170388561,6.075129170388561,6.075129170388561,6.075129170388561,6.075129170388561,6.075129170388561,6.075129170388561,6.075129170388561,6.075129170388561,6.075129170388561,6.075129170388561,6.075129170388561,6.075129170388561,6.075129170388561,6.075129170388561,6.075129170388561,6.075129170388561,6.075129170388561,6.075129170388561,6.075129170388561,6.075129170388561,6.075129170388561,6.075129170388561,6.075129170388561,6.075129170388561,6.075129170388561,6.075129170388561,6.075129170388561,6.075129170388561,6.064516361305644,6.128866531253467,6.24949019983357,0.09275632018814362,0.19739555984988066,0.26725909815591087,0.27032534637866634,0.27032534637866634,0.28147929852804254,0.28147929852804254,0.28147929852804254,0.29256176640384757,0.30357073932366374,0.3290496948403394,0.36551820619189646,0.41822432957922895,0.49845941046667885,0.5177818586126866,0.5423027372156046,0.5516549825285468,0.5516549825285468,0.5516549825285468,0.5516549825285468,0.5516549825285468,0.5516549825285468,0.5516549825285468,0.5516549825285468,0.5516549825285468,0.5516549825285468,0.5516549825285468,0.5516549825285468,0.5516549825285468,0.5516549825285468,0.5516549825285468,0.5516549825285468,0.5516549825285468,0.5516549825285468,0.5516549825285468,0.5516549825285468,0.5609008072523718,0.5790742693677308,0.5790742693677308,0.5790742693677308,0.5790742693677308,0.5790742693677308,0.5790742693677308,0.5880026035475675,0.5880026035475675,0.5880026035475675,0.5880026035475675,0.6028383102665414,0.6028383102665414,0.6028383102665414,0.6028383102665414,0.6028383102665414,0.6028383102665414,0.6028383102665414,0.6028383102665414,0.6028383102665414,0.6028383102665414,0.6028383102665414,0.6028383102665414,0.6028383102665414,0.6028383102665414,0.6028383102665414,0.6028383102665414,0.6028383102665414,0.6028383102665414,0.6028383102665414,0.6028383102665414,0.6028383102665414,0.6028383102665414,0.6028383102665414,0.6028383102665414,0.6028383102665414,0.6028383102665414,0.6028383102665414,0.6028383102665414,0.6028383102665414,0.6028383102665414,0.6028383102665414,0.6028383102665414,0.6028383102665414,0.6028383102665414,0.6028383102665414,0.6028383102665414,0.6028383102665414,0.6028383102665414,0.6028383102665414,0.6028383102665414,0.6028383102665414,0.6028383102665414,0.6028383102665414,0.6028383102665414,0.6028383102665414,0.6028383102665414,0.6028383102665414,0.6028383102665414,0.6028383102665414,0.6028383102665414,0.6028383102665414,0.6028383102665414,0.6028383102665414,0.6028383102665414,0.6028383102665414,0.6028383102665414,0.6028383102665414,0.6028383102665414,0.6028383102665414],[0.6028383102665414,0.6028383102665414,0.6028383102665414,0.6028383102665414,0.6028383102665414,0.6028383102665414,0.6028383102665414,0.6028383102665414,0.6028383102665414,0.6028383102665414,0.6028383102665414,0.6423619531213385,0.7276002460459626,0.8675322295819395,0.9499290615266719,1.0091610746825919,1.0390068991340375,1.0533400327206706,1.1028146848135694,1.1378966768800591,1.143727514589009,1.169003029654692,1.1882662857752426,1.2071781384922269,1.2381824499840555,1.2690515010805554,1.3188385025116065,1.339691094510759,1.3611385994911327,1.3753439440918767,1.3892571418474504,1.3908836375298215,1.3908836375298215,1.3908836375298215,1.3908836375298215,1.3908836375298215,1.3908836375298215,1.3908836375298215,1.3908836375298215,1.3908836375298215,1.3908836375298215,1.3908836375298215,1.3908836375298215,1.3908836375298215,1.3908836375298215,1.3908836375298215,1.3908836375298215,1.3908836375298215,1.3908836375298215,1.3908836375298215,1.3908836375298215,1.3908836375298215,1.3908836375298215,1.3908836375298215,1.3908836375298215,1.3908836375298215,1.3908836375298215,1.3908836375298215,1.3908836375298215,1.3908836375298215,1.3908836375298215,1.3908836375298215,1.3908836375298215,1.3908836375298215,1.3908836375298215,1.3908836375298215,1.3908836375298215,1.3908836375298215,1.3908836375298215,1.3908836375298215,1.3908836375298215,1.3908836375298215,1.3908836375298215,1.3908836375298215,1.3908836375298215,1.3908836375298215,1.3908836375298215,1.3789238810656714,1.3789238810656714,1.3670058407248047,1.3551326656999967,1.343307430947252,1.343307430947252,1.3315331330389881,1.319812686324227,1.296544571932718,1.296544571932718,1.285002291737713,1.285002291737713,1.273524632279965,1.273524632279965,1.273524632279965,1.273524632279965,1.273524632279965,1.273524632279965,1.273524632279965,1.273524632279965,1.273524632279965,1.273524632279965,1.273524632279965,1.273524632279965,1.273524632279965,1.273524632279965,1.273524632279965,1.273524632279965,1.273524632279965,1.273524632279965,1.273524632279965,1.273524632279965,1.273524632279965,1.273524632279965,1.273524632279965,1.273524632279965,1.273524632279965,1.273524632279965,1.273524632279965,1.273524632279965,1.2621140504359007,1.2621140504359007,1.2621140504359007,1.2507729046111296,1.2507729046111296,1.2507729046111296,1.2507729046111296,1.2507729046111296,1.2507729046111296,1.2507729046111296,1.2507729046111296,1.2507729046111296,1.2507729046111296,1.2507729046111296,1.2507729046111296,1.2507729046111296,1.2507729046111296,1.2507729046111296,1.2507729046111296,1.2507729046111296,1.2507729046111296,1.2507729046111296,1.2507729046111296,1.2507729046111296,1.2507729046111296,1.2507729046111296,1.2507729046111296,1.2507729046111296,1.2507729046111296,1.2507729046111296,1.2507729046111296,1.2507729046111296,1.2507729046111296,1.2507729046111296,1.2507729046111296,1.2507729046111296,1.2507729046111296,1.2507729046111296,1.2507729046111296,1.2507729046111296,1.2507729046111296,1.2507729046111296,1.2507729046111296,1.2507729046111296,1.2507729046111296,1.2507729046111296,1.2507729046111296,1.2507729046111296,1.2507729046111296,1.2507729046111296,1.2507729046111296,1.2507729046111296,1.2507729046111296,1.2507729046111296,1.2507729046111296,1.2507729046111296,1.2507729046111296,1.2507729046111296,1.2507729046111296,1.2507729046111296,1.2507729046111296,1.2507729046111296,1.2507729046111296,1.2507729046111296,1.2507729046111296,1.2507729046111296,1.2507729046111296,1.2507729046111296,1.236178444650748,1.0495370086211988,0.8437126670341593,0.6633491833700019,0.5414401684540446,0.5350910474200684,0.5254670861521175,0.5254670861521175,0.5254670861521175,0.5254670861521175,0.5254670861521175,0.5254670861521175,0.5254670861521175,0.5254670861521175,0.5254670861521175,0.5254670861521175,0.5254670861521175,0.5254670861521175,0.5254670861521175,0.5254670861521175,0.5254670861521175,0.5254670861521175,0.5254670861521175,0.5254670861521175,0.5254670861521175,0.5254670861521175,0.5254670861521175,0.5254670861521175,0.5254670861521175,0.5254670861521175,0.5254670861521175,0.5254670861521175,0.5254670861521175,0.5254670861521175,0.5254670861521175,0.5254670861521175,0.5254670861521175,0.5254670861521175,0.5254670861521175,0.5254670861521175,0.5254670861521175,0.5254670861521175,0.5254670861521175,0.5254670861521175,0.5254670861521175,0.5254670861521175,0.5254670861521175,0.5254670861521175,0.5254670861521175,0.5254670861521175,0.5254670861521175,0.5254670861521175,0.5254670861521175,0.5254670861521175,0.5254670861521175,0.5254670861521175,0.5254670861521175,0.5254670861521175,0.5254670861521175,0.5254670861521175,0.5254670861521175,0.5254670861521175,0.5254670861521175,0.5254670861521175,0.5254670861521175,0.5254670861521175,0.5254670861521175,0.5254670861521175,0.5254670861521175,0.5254670861521175,0.5254670861521175,0.5254670861521175,0.5254670861521175,0.5254670861521175,0.5254670861521175,0.5254670861521175,0.5254670861521175,0.5254670861521175,0.5254670861521175,0.5254670861521175,0.5254670861521175,0.5254670861521175,0.5254670861521175,0.5254670861521175,0.5254670861521175,0.5254670861521175,0.5254670861521175,0.5254670861521175,0.5254670861521175,0.5254670861521175,0.5254670861521175,0.5254670861521175,0.5254670861521175,0.5254670861521175,0.5254670861521175,0.5254670861521175,0.5254670861521175,0.5254670861521175,0.5254670861521175,0.5254670861521175,0.5254670861521175,0.5254670861521175,0.5254670861521175,0.5254670861521175,0.5254670861521175,0.46832234131070194,0.2576460592457167,0.09086371040342034,-0.006583747970232978,-0.036758827614226885,-0.04656243509352287,-0.04656243509352287,-0.04656243509352287,-0.04656243509352287,-0.04656243509352287,-0.04656243509352287,-0.04656243509352287,-0.04656243509352287,-0.04656243509352287,-0.04656243509352287,-0.04656243509352287,-0.04656243509352287,-0.04656243509352287,-0.04656243509352287,-0.04656243509352287,-0.04656243509352287,-0.04656243509352287,-0.04656243509352287,-0.04656243509352287,-0.04656243509352287,-0.04656243509352287,-0.04656243509352287,-0.04656243509352287,-0.04656243509352287,-0.04656243509352287,-0.04656243509352287,-0.04656243509352287,-0.04656243509352287,-0.04656243509352287,-0.04656243509352287,-0.04656243509352287,-0.04656243509352287,-0.04656243509352287,-0.04656243509352287,-0.04656243509352287,-0.04656243509352287,-0.04656243509352287,-0.04656243509352287,-0.04656243509352287,-0.04656243509352287,-0.04656243509352287,-0.04656243509352287,-0.04656243509352287,-0.04656243509352287,-0.04656243509352287,-0.04656243509352287,-0.04656243509352287,-0.04656243509352287,-0.027334035993815786,0.0010206681834604714,0.028766455734817176,0.038140075776134874,0.04662482667535628,0.04662482667535628,0.04662482667535628,0.04662482667535628,0.04662482667535628,0.04662482667535628,0.04662482667535628,0.04662482667535628,0.04662482667535628,0.04662482667535628,0.04662482667535628,0.04662482667535628,0.04662482667535628,0.04662482667535628,0.04662482667535628,0.04662482667535628,0.04662482667535628,0.04662482667535628,0.04662482667535628,0.04662482667535628,0.04662482667535628,0.04662482667535628,0.04662482667535628,0.04662482667535628,0.04662482667535628,0.04662482667535628,0.04662482667535628,0.04662482667535628,0.04662482667535628,0.04576689963807612,0.04492458177798497,0.04409745210722227,0.03434166406170769,0.03291580951468365,0.03291580951468365,0.03291580951468365,0.03291580951468365,0.03291580951468365,0.03291580951468365,0.023498147544932402,0.023498147544932402,0.023498147544932402,0.023498147544932402,0.023498147544932402,0.022890890901799188,0.013709303590870081,0.005115649388906962,0.0042412689646987856,0.0042412689646987856,0.0042412689646987856,0.0042412689646987856,0.0042412689646987856,0.0042412689646987856,0.0042412689646987856,0.0042412689646987856,-0.004214886072947066,-0.004214886072947066,-0.004214886072947066,-0.004214886072947066,-0.004214886072947066,-0.004214886072947066,-0.004214886072947066,-0.004214886072947066,-0.004214886072947066,-0.004214886072947066,-0.004214886072947066,-0.004214886072947066,-0.004214886072947066,-0.004214886072947066,-0.004214886072947066,-0.004214886072947066,-0.004214886072947066,-0.004214886072947066,-0.004214886072947066,-0.004214886072947066,-0.004214886072947066,-0.004214886072947066,-0.004214886072947066,-0.004214886072947066,-0.004214886072947066,-0.004214886072947066,-0.004214886072947066,-0.004214886072947066,-0.004214886072947066,-0.004214886072947066,-0.004214886072947066,-0.004214886072947066,-0.004214886072947066,-0.004214886072947066,-0.004214886072947066,-0.004214886072947066,-0.004214886072947066,-0.004214886072947066,-0.004214886072947066,-0.004214886072947066,-0.004214886072947066,-0.004214886072947066,-0.004214886072947066,-0.004214886072947066,-0.004214886072947066,-0.004214886072947066,-0.004214886072947066,-0.004214886072947066,-0.004214886072947066,-0.004214886072947066,-0.004214886072947066,-0.004214886072947066,-0.004214886072947066,-0.004214886072947066,-0.004214886072947066,-0.004214886072947066,-0.004214886072947066,-0.004214886072947066,-0.004214886072947066,-0.004214886072947066,-0.004214886072947066,-0.004214886072947066,-0.004214886072947066,-0.004214886072947066],[0.6963485807629505,0.6963485807629505,0.6963485807629505,0.6963485807629505,0.6963485807629505,0.6963485807629505,0.6963485807629505,0.6963485807629505,0.6963485807629505,0.7059199187892417,0.7153375807589928]],"response_history":["1"],"rt":32200,"trial_type":"polygon-arrow-question","trial_index":0,"trial_index_global":66,"time_elapsed":2605348,"internal_chunk_id":"0-0.14-0"},{"nsides":"n","question":"What is the formula for the inverse of an element x under <img src=./images/ngon_symbol.png style=width:14px;height:14px>? Please explain in words how you got your answer.","response_type":"free","response_choices":[],"correct_response":"n-x","response":"I don't know","explain":true,"explanation":"N/A","explanation_history":["N/A"],"orientation_history":[[0]],"response_history":["N","I don't know"],"rt":16319,"trial_type":"polygon-arrow-question","trial_index":0,"trial_index_global":67,"time_elapsed":2621668,"internal_chunk_id":"0-0.14-0"},{"nsides":"n","question":"Is there a pattern to which elements are generators? How can you know if an element x is a generator under <img src=./images/ngon_symbol.png style=width:14px;height:14px> without seeing whether it can make all the elements?.","response_type":"free","response_choices":[],"correct_response":"","response":"By  factoring in all of the elements together","explain":false,"explanation":"","explanation_history":[],"orientation_history":[[0]],"response_history":["By factoring in all of the le","By factoring in all of the l","By factoring in all of the elements together"],"rt":61661,"trial_type":"polygon-arrow-question","trial_index":0,"trial_index_global":68,"time_elapsed":2683332,"internal_chunk_id":"0-0.14-0"},{"nsides":"n","question":"True or false: If x is an odd number, it must be a generator under <img src=./images/ngon_symbol.png style=width:14px;height:14px>.","response_type":"multi","response_choices":["True","False"],"correct_response":"False","response":"False","explain":false,"explanation":"","explanation_history":[],"orientation_history":[[0]],"response_history":["False"],"rt":9579,"trial_type":"polygon-arrow-question","trial_index":0,"trial_index_global":69,"time_elapsed":2692912,"internal_chunk_id":"0-0.14-0"},{"nsides":"n","question":"True or false: If x is an ev en numbe r, it must not be a generator under <img src=./images/ngon_symbol.png style=width:14px;height:14px>.","response_type":"multi","response_choices":["True","False"],"correct_response":"False","response":"False","explain":false,"explanation":"","explanation_history":[],"orientation_history":[[0]],"response_history":["False"],"rt":3930,"trial_type":"polygon-arrow-question","trial_index":0,"trial_index_global":70,"time_elapsed":2696844,"internal_chunk_id":"0-0.14-0"},{"nsides":"n","question":"True or false: If x is not a generator under <img src=./images/ngon_symbol.png style=width:14px;height:14px>, x must be a divisor of n, that is, x must divide n evenly, with no remainder.","response_type":"multi","response_choices":["True","False"],"correct_response":"False","response":"True","explain":false,"explanation":"","explanation_history":[],"orientation_history":[[0]],"response_history":["True"],"rt":6359,"trial_type":"polygon-arrow-question","trial_index":0,"trial_index_global":71,"time_elapsed":2703204,"internal_chunk_id":"0-0.14-0"},{"nsides":"n","question":"True or false: If x is not a generator under <img src=./images/ngon_symbol.png style=width:14px;height:14px>, x must be a multiple of a divisor of n. Please explain in words how you got your answer.","response_type":"multi","response_choices":["True","False"],"correct_response":"True","response":"False","explain":true,"explanation":"I think it would need to be generator in order for it to be a divisor of n","explanation_history":["I think it would need to be generator in order for it to be a divios","I think it would need to be generator in order for it to be a divio","I think it would need to be generator in order for it to be a divisor of n"],"orientation_history":[[0]],"response_history":["False"],"rt":47247,"trial_type":"polygon-arrow-question","trial_index":0,"trial_index_global":72,"time_elapsed":2750452,"internal_chunk_id":"0-0.14-0"},{"nsides":"n","question":"If an element  x is a  generator under <img src=./images/ngon_symbol.png style=width:14px;height:14px>, is its inverse a generator under <img src=./images/ngon_symbol.png style=width:14px;height:14px> always, sometimes, or never?","response_type":"multi","response_choices":["Always","Sometimes","Never"],"correct_response":"Always","response":"Sometimes","explain":false,"explanation":"","explanation_history":[],"orientation_history":[[0]],"response_history":["Sometimes"],"rt":14978,"trial_type":"polygon-arrow-question","trial_index":0,"trial_index_global":73,"time_elapsed":2765431,"internal_chunk_id":"0-0.14-0"},{"nsides":"n","question":"if an element x is a generator under <img src=./images/ngon_symbol.png style=width:14px;height:14px>, is x <img src=./images/ngon_symbol.png style=width:14px;height:14px> x a generator under <img src=./images/ngon_symbol.png style=width:14px;height:14px> always, sometimes, or never? Please explain in words how you got your an swer.","response_type":"multi","response_choices":["Always","Sometimes","Never"],"correct_response":"Sometimes","response":"Always","explain":true,"explanation":"A multiple of X would have to be a generator under n in this case","explanation_history":["I","X would hav ","X would hav","A multiple of x ","A multiple of x","A multiple of x","A multiple of X which is a genea","A multiple of X which is a generator ","A multiple of X would have to be  ","A multiple of X would have to be a generator under n in this case"],"orientation_history":[[0]],"response_history":["Always"],"rt":68143,"trial_type":"polygon-arrow-question","trial_index":0,"trial_index_global":74,"time_elapsed":2833575,"internal_chunk_id":"0-0.14-0"},{"nsides":"n","question":"If an element x is not a generator under <img src=./images/ngon_symbol.png style=width:14px;height:14px>, is x <img src=./images/ngon_symbol.png style=width:14px;height:14px> x a generator under <img src=./images/ngon_symbol.png  style=width:14px;height:14px> always, sometimes, or never?","response_type":"multi","response_choices":["Always","Sometimes","Never"],"correct_response":"Never","response":"Never","explain":false,"explanation":"","explanation_history":[],"orientation_history":[[0]],"response_history":["Never"],"rt":7579,"trial_type":"polygon-arrow-question","trial_index":0,"trial_index_global":75,"time_elapsed":2841156,"internal_chunk_id":"0-0.14-0"},{"instructions":"Now we'd like you to do a few of the questions and tell us how much you're using the arithmetic and polygon methods to solve them. We'll give you a demonstration of the response screen first.<br /><br />Press continue when you're ready to begin.","rt":1763,"trial_type":"instructions","trial_index":0,"trial_index_global":76,"time_elapsed":2842920,"internal_chunk_id":"0-0.15-0"},{"nsides":9,"added_prompt":"<i>This is a demo response screen. You can respond independently to both questions, so it's okay to say you used both methods.</i ><br />< br />","polygon_response":"1","modular_response":"4","rt":6154,"trial_type":"polygon-arrow-which-representation","trial_index":0,"trial_index_global":77,"time_elapsed":2849076,"internal_chunk_id":"0-0.15-0"},{"question":"<i>This is a demo response screen.</i><br /><br />Please describe in as much detail as possible how you used the arithmetic method, polygon method, or both for the problem.","response_type":"free","response_choices":[],"correct_response":"","response":"I think the arithmetic method was the simplest and most familiar.  I added and subtracted according to the rule given","explain":false,"explanation":"","explanation_history":[],"response_history":["I think the arithmetic method was the smi","I think the arithmetic method was the sm","I think the arithmetic method was the simplest and most familiar.  I added and then sub","I think the arithmetic method was the simplest and most familiar.  I added and then su","I think the arithmetic method was the simplest and  most fam iliar.  I added and then s","I think the arithmetic method was the simplest and most familiar.  I added and then ","I think the arithmetic method was the simplest and most familiar.  I added and then","I think the arithmetic method was the simplest and most familiar.  I added and the","I think the arithmetic method was the simplest and most familiar.  I added and th","I think the arithmetic method was the simplest and most familiar.  I added and t","I think the arithmetic method was the simplest and most familiar.  I added and ","I think the arithmetic method was the simplest and most familiar.  I added and, if inci","I think the arithmetic method was the simplest and most familiar.  I added and, if inc","I think the arithmetic method was the simplest and most familiar.  I added and, if indicated by the rule, substr","I think the arithmetic method was the simplest and most familiar.  I added and, if indicated by the rule, subst","I think the arithmetic method was the simples t and mo st familiar.  I added and, if indicated by the rule, subs","I think the arithmetic method was the simplest and most familiar.  I added and, if indicated by the rule, subtracted according to the rules ","I think the arithmetic method was the simplest and most familiar.  I added and, if indicated by the rule, subtracted according to the rules","I think the arithmetic method was the simplest and most familiar.  I added and, if indicated by the rule, subtracted according to the rule given","I think the arithmetic method was the simplest and most familiar.  I added and, subtracted according to the rule given","I think the arithmetic method was the simplest and most familiar.  I added and,subtracted according to the rule given","I think the arithmetic method was the simplest and most familiar.  I added andsubtracted according to the rule given","I think the arithmetic method was the simplest and most familiar.  I added and subtracted according to the rule given"],"rt":93094,"trial_type":" question","trial_index":0,"trial_index_global":78,"time_elapsed":2942171,"internal_chunk_id":"0-0.15-0"},{"instructions":"Great! Now we have a few questions for you to do (some of which you may have seen earlier), and after each question you will tell us how much you used the polygon and arithmetic methods.<br /><br />Press continue when you're ready to begin.","rt":2225,"trial_type":"instructions","trial_index":0,"trial_index_global":79,"time_elapsed":2944398,"internal_chunk_id":"0-0.15-0"},{"nsides":9,"question":"Please answer the following question:<br /><br />What is the inverse of 4 under <img src=./images/nonagon_symbol.png style=width:14px;height:14px>?","response_type":"free","response_choices":[],"correct_response":"5","response":"5","explain":false,"explanation":"","explanation_history":[],"orientation_history":[[0]],"response_history":["5"],"rt":7239,"trial_type":"polygon-arrow-question","trial_index":0,"trial_index_global":80,"time_elapsed":2951638,"internal_chunk_id":"0-0.15-0"},{"nsides":9,"question":"Please answer the following question:<br /><br />What is the inverse of 4 under <img src=./images/nonagon_symbol.png style=width:14px;height:14px>?","added_prompt":"","polygon_response":"0","modular_response":"4","rt":11420,"trial_type":"polygon-arrow-which-representation","trial_index":0,"trial_index_global":81,"time_elapsed":2963059,"internal_chunk_id":"0-0.15-0"},{"question":"Please describe in as much detail as possible how you used the arithmetic method, polygon method, or both for the problem.","response_type":"free","response_choices":[],"correct_response":"","response":"I counted in the opposite direction","explain":false,"explanation":"","explanation_history":[],"response_history":["I counted in the opposite diret","I counted in the opposite direction"],"rt":105311,"trial_type":"question","trial_index":0,"trial_index_global":82,"time_elapsed":3068373,"internal_chunk_id":"0-0.15-0"},{"nsides":9,"question":"Please answ er the f ollowing question:<br /><br />What is the inverse of 0 under <img src=./images/nonagon_symbol.png style=width:14px;height:14px>?","response_type":"free","response_choices":[],"correct_response":"0","response":"0","explain":false,"explanation":"","explanation_history":[],"orientation_history":[[0]],"response_history":["0"],"rt":7605,"trial_type":"polygon-arrow-question","trial_index":0,"trial_index_global":83,"time_elapsed":3075979,"internal_chunk_id":"0-0.15-0"},{"nsides":9,"question":"Please answer the following question:<br /><br />What is the inverse of 0 under <img src=./images/nonagon_symbol.png style=width:14px;height:14px>?","added_prompt":"","polygon_response":"0","modular_response":"0","rt":3795,"trial_type":"polygon-arrow-which-representation","trial_index":0,"trial_index_global":84,"time_elapsed":3079776,"internal_chunk_id":"0-0.15-0"},{"question":"Please describe in as much detail as possible how you used the arithmetic method, polygon method, or  both for  the problem.","response_type":"free","response_choices":[],"correct_response":"","response":"I believe the inverse of 0 can only be 0","explain":false,"explanation":"","explanation_history":[],"response_history":["I believe the inverse of 9 ","I believe the inverse of 9","I believe the inverse of 0 can only be 9","I believe the inverse of 0 can only be 0"],"rt":14282,"trial_type":"question","trial_index":0,"trial_index_global":85,"time_elapsed":3094059,"internal_chunk_id":"0-0.15-0"},{"nsides":9,"question":"Please answer the following question:<br /><br />Is 4 a generator under <img src=./images/nonagon_symbol.png style=width:14px;height:14px>?","response_type":"Multi","response_choices":["Yes","No"],"correct_response":"Yes","response":"No","explain":false,"explanation":"","explanation_history":[],"orientation_history":[[0]],"response_history":["No"],"rt":14319,"trial_type":"polygon-arrow-question","trial_index":0,"trial_index_global":86,"time_elapsed":3108379,"internal_chunk_id":"0-0.15-0"},{"nsides":9,"question":"Please answer the following question:<br /><br />Is 4 a generator under <img src=./images/nonagon_symbol.png style=width:14px;height:14px>?","added_prompt":"","polygon_response":"0","modular_response":"2","rt":6975,"trial_type":"polygon-arrow-which-representation","trial_index":0,"trial_index_global":87,"time_elapsed":3115355,"internal_chunk_id":"0-0.15-0"},{"question":"Please describe in as much detail as possible how you used the arithmetic method, polygon method, or both for the problem.","response_type":"free","response_choices":[],"correct_response":"","response":"4 is not a divisor of 9","explain":false,"explanation":"","explanation_history":[],"response_history":["4 is not a divisor of 9"],"rt":10266,"trial_type":"question","trial_index":0,"trial_index_global":88,"time_elapsed":3125623,"internal_chunk_id":"0-0.15-0"},{"nsides":"n","question":"Please answer the following question:<br /><br />True or false: If x divides  n, it m ust not be a generator under <img src=./images/ngon_symbol.png style=width:14px;height:14px>.","response_type":"multi","response_choices":["True","False"],"correct_response":"True","response":"False","explain":false,"explanation":"","explanation_history":[],"orientation_history":[[0]],"response_history":["False"],"rt":10096,"trial_type":"polygon-arrow-question","trial_index":0,"trial_index_global":89,"time_elapsed":3135719,"internal_chunk_id":"0-0.15-0"},{"nsides":"n","question":"Please answer the following question:<br /><br />True or false: If x divides n, it must not be a generator under <img src=./images/ngon_symbol.png style=width:14px;height:14px>.","added_prompt":"","polygon_response":"0","modular_response":"0","rt":4719,"trial_type":"polygon-arrow-which-representation","trial_index":0,"trial_index_global":90,"time_elapsed":3140440,"internal_chunk_id":"0-0.15-0"},{"question":"Please describe in as much detail as possible how you used the arithmetic met hod, pol ygon method, or both for the problem.","response_type":"free","response_choices":[],"correct_response":"","response":"I simply tried to remember the relevant rule","explain":false,"explanation":"","explanation_history":[],"response_history":["I simply tried to remember the relevant rule"],"rt":14251,"trial_type":"question","trial_index":0,"trial_index_global":91,"time_elapsed":3154691,"internal_chunk_id":"0-0.15-0"},{"instructions":"We would like to ask you some questions about your background. Please press Continue to continue.","rt":1291,"trial_type":"instructions","trial_index":0,"trial_index_global":92,"time_elapsed":3155983,"internal_chunk_id":"0-0.16-0"},{"question":"What is your age?","response_type":"free","response_choices":[],"correct_response":"","response":"28","explain":false,"explanation":"","explanation_history":[],"response_history":["29","28"],"rt":3075,"trial_type":"question","trial_index":0,"trial_index_global":93,"time_elapsed":3159059,"internal_chunk_id":"0- 0.16-0"},{"question":"What is your level of education?","response_type":"multi","response_choices":["Did not graduate high school","High school diploma","Some college, no degree","Associates Degree","Bachelors Degree","Some graduate school, no degree","Masters Degree","Doctorate, M.D., etc."],"correct_response":"","response":"Some graduate school, no degree","explain":false,"explanation":"","explanation_history":[],"response_history":["Bachelors Degree","Some graduate school, no degree"],"rt":4937,"trial_type":"question","trial_index":0,"trial_index_global":94,"time_elapsed":3163996,"internal_chunk_id":"0-0.16-0"},{"question":"What is the most advanced math class you've completed? If you have multiple classes and you're not sure which one is most advanced, please list them.","response_type":"free","response_choices":[],"correct_response":"","response":"Calculus I; Advanced Statistical Methods","explain":false,"explanation":"","explanation_history":[],"response_history":["Cal ucu","Ca luc","Calu","Calculus I; Advanced Statistical Methods"],"rt":44890,"trial_type":"question","trial_index":0,"trial_index_global":95,"time_elapsed":3208887,"internal_chunk_id":"0-0.16-0"},{"question":"How familiar are you with the concept of modular arithmetic?","response_type":"multi","response_choices":["1 - never heard of it","2 - heard of it but didn't know what it was","3 - seen it used or explained","4 - used it but not often or recently","5 - used it, remember and understand it"],"correct_response":"1","response":"1 - never heard of it","explain":false,"explanation":"","explanation_history":[],"response_history":["1 - never heard of it"],"rt":3259,"trial_type":"question","trial_index":0,"trial_index_global":96,"time_elapsed":3212147,"internal_chunk_id":"0-0.16-0"},{"question":"How familiar are you with the concept of a mathematical group?","response_type":"multi","response_choices":["1 - never heard of it","2 - heard of it but didn't know what it was","3 - seen it used  or expla ined","4 - used it but not often or recently","5 - used it, remember and understand it"],"correct_response":"1","response":"1 - never heard of it","explain":false,"explanation":"","explanation_history":[],"response_history":["1 - never heard of it"],"rt":2288,"trial_type":"question","trial_index":0,"trial_index_global":97,"time_elapsed":3214435,"internal_chunk_id":"0-0.16-0"},{"question":"Do you feel you learned something from this HIT?","response_type":"multi","response_choices":["1 - not at all","2 - somewhat","3 - definitely"],"correct_response":"1","response":"2 - somewhat","explain":false,"explanation":"","explanation_history":[],"response_history":["2 - somewhat"],"rt":2783,"trial_type":"question","trial_index":0,"trial_index_global":98,"time_elapsed":3217219,"internal_chunk_id":"0-0.16-0"},{"question":"Do you feel you understood the concepts in this HIT?","response_type":"multi","response_choices":["1 - not at all","2 - somewhat","3 - definitely"],"correct_response":" 1","response":"2 - somewhat","explain":false,"explanation":"","explanation_history":[],"response_history":["2 - somewhat"],"rt":5699,"trial_type":"question","trial_index":0,"trial_index_global":99,"time_elapsed":3222919,"internal_chunk_id":"0-0.16-0"},{"question":"Did you enjoy this HIT?","response_type":"multi","response_choices":["1 - not at all","2 - somewhat","3 - definitely"],"correct_response":"1","response":"1 - not at all","explain":false,"explanation":"","explanation_history":[],"response_history":["1 - not at all"],"rt":2195,"trial_type":"question","trial_index":0,"trial_index_global":100,"time_elapsed":3225115,"internal_chunk_id":"0-0.16-0"},{"question":"What is your gender?","response_type":"multi","response_choices":["Female","Male","Other"],"correct_response":"","response":"Male","explain":false,"explanation":"","explanation_history":[],"response_history":["Male"],"rt":1595,"trial_type":"question","trial_index":0,"trial_index_global":101,"time_elapsed":3226711,"internal_chunk_id":"0-0.16-0"},{"question":"What is/are your native language(s)? (The languages spoken in your household when you were a child.)","response_type":"free","response_choices":[],"correct_response":"","response":"English","explain":false,"explanation":"","explanation_history":[],"response_history":["English"],"rt":5110,"trial_type":"question","trial_index":0,"trial_index_global":102,"time_elapsed":3231822,"internal_chunk_id":"0-0.16-0"},{"question":"Did you use pen and paper at any point on this HIT?","response_type":"free","response_choices":[],"correct_response":"","response":"No","explain":false,"explanation":"","explanation_history":[],"response_history":["No"],"rt":3375,"trial_type":"question","trial_index":0,"trial_index_global":103,"time_elapsed":3235198,"internal_chunk_id":"0-0.16-0"},{"question":"Do you have any comments on this HIT?","response_type":"free","response_choices":[],"correct_response":"","response":"","explain":false,"explanation":"","explanation_history":[],"response_history":[],"rt":2639,"trial_type":"question","trial_index":0,"trial_index_global":104,"time_elapsed":3237838,"internal_chunk_id":"0-0.16-0"}]