[{"nsides":6,"instructions":"Let's define a new operation <img src=./images/hexagon_symbol.png style=width:14px;height:14px>. This operation will give us a way of combining two of the numbers 0, 1, 2, 3, 4, 5 to get another one of them back. To perform <img src=./images/hexagon_symbol.png style=width:14px;height:14px>, you can either use a method based on the hexagon at right, or a method based on arithmetic.<br /><b>Hexagon method:</b> you can use the interactive diagram on the right, or perform the operation in your mind. Point the arrow at the first number on the hexagon by clicking, then click (or click and drag) to move the arrow the second number of points clockwise around the hexagon. The number the arrow arrives at is your result. (The operation is called <img src=./images/hexagon_symbol.png style=width:14px;height:14px> because it uses the hexagon, which has 6 sides.) <br ><b>Arithmetic method:</b> you start with the first number, and then add  the sec ond one to it. If the sum is smaller than 6, that's your result. If the sum is 6 or bigger, you subtract 6 to get your result. <br /><br />For example, 3 <img src=./images/hexagon_symbol.png style=width:14px;height:14px> 5 = 2, because 5 steps clockwise from 3 on the hexagon brings us to 2. Equivalently, 3 + 5 = 8, and 8 is bigger than 6, so we subtract 6, and 8 - 6 = 2. So 3 <img src=./images/hexagon_symbol.png style=width:14px;height:14px> 5 = 2.<br /><br />Similarly, 1 <img src=./images/hexagon_symbol.png style=width:14px;height:14px> 4 = 5, because 1 + 4 = 5, and 5 is less than 6 so we leave it alone. Equivalently, 4 steps clockwise from 1 on the hexagon brings us to 5. <br /><br />Click Continue when you're ready to move on.","orientation_history":[0],"rt":47598,"trial_type":"polygon-arrow-instructions","trial_index":0,"trial_index_global":1,"time_elapsed":52331,"internal_chunk_id":"0-0"},{"nsides":6,"instructions":"Do you see how the differe nt ways  of performing <img src=./images/hexagon_symbol.png style=width:14px;height:14px> give the same result? By labeling the points of the hexagon with the numbers from 0 to 5, we ensure that when we combine two numbers using the hexagon, we only produce numbers between 0 and 5. When we use the arithmetic strategy, adding the second number to the first mimics counting around the hexagon, and subtracting 6 each time we get above 5 makes sure the results correspond to the numbers on the points of the hexagon. <br /><br />Click Continue when you're ready to move on.","orientation_history":[0],"rt":24499,"trial_type":"polygon-arrow-instructions","trial_index":0,"trial_index_global":2,"time_elapsed":76838,"internal_chunk_id":"0-0"},{"nsides":6,"question":"Now try one on your own! What is 4 <img src=./images/hexagon_symbol.png style=width:14px;height:14px> 5? <br /><br /> (Remember, to perform <img src=./images/hexagon_symbol.png style=width:14px;height:14px> , you ca n either use a method based on the hexagon at right, or a method based on arithmetic.<br /><br /><b>Hexagon method:</b> you can use the interactive diagram on the right, or perform the operation in your mind. Point the arrow at the first number, then move the arrow the second number of points clockwise around the hexagon. The number the arrow arrives at is your result. <br /><br /><b>Arithmetic method:</b> you start with the first number, and then add the second one to it. If the sum is smaller than 6, that's your result. If the sum is 6 or bigger, you subtract 6 to get your result.)","response_type":"free","response_choices":[],"correct_response":"3","response":"1","explain":false,"explanation":"","explanation_history":[],"orientation_history":[[0]],"response_history":["1"],"rt":89682,"trial_type":"polygon-arrow-question","trial_index":0,"trial_index_global":3,"time_elapsed":166525,"internal_chunk_id":"0-0.3-0"},{"nsides":6,"feedback":"Sorry, that was incorrect. 4 <img src= ./imag es/hexagon_symbol.png style=width:14px;height:14px> 5 = 3 because 5 steps clockwise on the hexagon from 4 brings us to 3. Equivalently, 4 + 5 = 9 and 9 - 6 = 3.","orientation_history":[0],"rt":31196,"trial_type":"polygon-arrow-feedback","trial_index":0,"trial_index_global":4,"time_elapsed":197732,"internal_chunk_id":"0-0.3-0"},{"nsides":6,"question":"What is 3 <img src=./images/hexagon_symbol.png style=width:14px;height:14px> 2? Try to solve this problem using the hexagon. <br /><br /> (Remember, to perform <img src=./images/hexagon_symbol.png style=width:14px;height:14px> on the hexagon, you can use the interactive diagram on the right, or perform the operation in your mind. Point the arrow at the first number on the hexagon, and then move the arrow the second number of points clockwise around the hexagon.)","response_type":"free","response_choices":[],"correct_response":"5","response":"5","explain":false,"explanation":"","explanation_history":[],"orientation_history":[[0]],"response_history":["5"],"rt":11305,"trial_type":"polygon-arrow-question","trial_index":0,"trial_index_global":5,"time_elapsed":209041,"internal_chunk_id":"0-0.3-0"},{"nsides":6,"feedback":"Correct! 3 <img src=./images/hexagon_symbol.png style=width:14px;height:14px> 2 = 5 because 2 steps clockwise on the hexagon from 3 brings us to 5. Equivalently, 3 + 2 = 5 and 5 is less than 6.","orientation_history":[0],"rt":6390,"trial_type":"polygon-arrow-feedback","trial_index":0,"trial_index_global":6,"time_elapsed":215437,"internal_chunk_id":"0-0.3-0"},{"nsides":6,"question":"What is 1 <img src=./images/hexagon_symbol.png style=width:14px;height:14px> 5? Try to solve this probem using the arithmetic technique. <br /><br /> (Remember, to perform <img src=./images/hexagon_symbol.png style=width:14px;height:14px> by arithmetic, you start with the first number, and then add the second one to it. If the sum is smaller than 6, that's your result. If  the sum  is 6 or bigger, you subtract 6 to get your result.)","response_type":"free","response_choices":[],"correct_response":"0","response":"0","explain":false,"explanation":"","explanation_history":[],"orientation_history":[[0]],"response_history":["0"],"rt":21089,"trial_type":"polygon-arrow-question","trial_index":0,"trial_index_global":7,"time_elapsed":236530,"internal_chunk_id":"0-0.3-0"},{"nsides":6,"feedback":"Correct! 1 <img src=./images/hexagon_symbol.png style=width:14px;height:14px> 5 = 0 because 1 + 5 = 6 and 6 - 6 = 0.  Equivalently, 5 steps clockwise on the hexagon from 1 brings us to 0.","orientation_history":[0],"rt":16270,"trial_type":"polygon-arrow-feedback","trial_index":0,"trial_index_global":8,"time_elapsed":252804,"internal_chunk_id":"0-0.3-0"},{"nsides":6,"question":"What is 1 <img src=./images/hexagon_symbol.png style=width:14px;height:14px> 1? Try to solve this problem using the hexagon. <br /><br /> (Remember, to perform <img src=./images/h exagon_s ymbol.png style=width:14px;height:14px> on the hexagon, you can use the interactive diagram on the right, or perform the operation in your mind. Point the arrow at the first number on the hexagon, and then move the arrow the second number of points clockwise around the hexagon.)","response_type":"free","response_choices":[],"correct_response":"2","response":"2","explain":false,"explanation":"","explanation_history":[],"orientation_history":[[0]],"response_history":["2"],"rt":5071,"trial_type":"polygon-arrow-question","trial_index":0,"trial_index_global":9,"time_elapsed":257883,"internal_chunk_id":"0-0.3-0"},{"nsides":6,"feedback":"Correct! 1 <img src=./images/hexagon_symbol.png style=width:14px;height:14px> 1 = 2 because 1 step clockwise on the hexagon from 1 brings us to 2. Equivalently, 1 + 1 = 2 and 2 is less than 6.","orientation_history":[0],"rt":823,"trial_type":"polygon-arrow-feedback","trial_index":0,"trial_index_global":10,"time_elapsed":258714,"internal_chunk_id":"0-0.3-0"},{"nsides":6,"question":"What is 3 <img src=./images/hexagon_symbol.png style=width:14px;height:14px> 0? Try to solve this problem using the arithmetic technique. <br /><br /> (Remember, to perform <img src=./images/hexagon_symbol.png style=width:14px;height:14px> using arithmetic, you start with the first number, and then add the second one to it. If the sum is smaller than 6, that's your result. If the sum is 6 or bigger, you subtract 6 to get your result.)","response_type":"free","response_choices":[],"correct_response":"3","response":"3","explain":false,"explanation":"","explanation_history":[],"orientation_history":[[0]],"response_history":["3"],"rt":4796,"trial_type":"polygon-arrow-question","trial_index":0,"trial_index_global":11,"time_elapsed":263514,"internal_chunk_id":"0-0.3-0"},{"nsides":6,"feedback":"Correct! 3 <img src=./images/hexagon_symbol.png style=width:14px;height:14px> 0 = 3 because 3 + 0 = 3 and 3 - 6 = 3.  Equivale ntly, 0  steps clockwise on the hexagon from 3 brings us to 3.","orientation_history":[0],"rt":894,"trial_type":"polygon-arrow-feedback","trial_index":0,"trial_index_global":12,"time_elapsed":264419,"internal_chunk_id":"0-0.3-0"},{"nsides":6,"question":"What is 4 <img src=./images/hexagon_symbol.png style=width:14px;height:14px> 4? Try to solve this problem using the hexagon. <br /><br /> (Remember, to perform <img src=./images/hexagon_symbol.png style=width:14px;height:14px> on the hexagon, you can use the interactive diagram on the right, or perform the operation in your mind. Point the arrow at the first number on the hexagon, and then move the arrow the second number of points clockwise around the hexagon.)","response_type":"free","response_choices":[],"correct_response":"2","response":"2","explain":false,"explanation":"","explanation_history":[],"orientation_history":[[0]],"response_history":["2"],"rt":6408,"trial_type":"polygon-arrow-question","trial_index":0,"trial_index_global":13,"time_elapsed":270839,"internal_chunk_id":"0-0.3-0"},{"nsides":6,"feedback":"Correct! 4 <img src=./images/hexagon_symbol.png style=width:14px;height:14px> 4 = 2 because 4 steps clockwise on the hexagon from 4 brings us to 2. Equivalently, 4 + 4 = 8 and 8 - 6 = 2.","orientation_history":[0],"rt":960,"trial_type":"polygon-arrow-feedback","trial_index":0,"trial_index_global":14,"time_elapsed":271806,"internal_chunk_id":"0-0.3-0"},{"nsides":6,"question":"What is 1 <img src=./images/hexagon_symbol.png style=width:14px;height:14px> 3? Try to solve this problem using the arithmetic technique. <br /><br /> (Remember, to perform <img src=./images/hexagon_symbol.png style=width:14px;height:14px> by arithmetic, you start with the first number, and then add the second one to it. If the sum is smaller than 6, that's your result. If the sum is 6 or bigger, you subtract 6 to get your result.)","response_type":"free","response_choices":[],"correct_response":"4","response":"4","explain":false,"explanation":"","explanation_history":[],"orientation_history":[[0]],"response_history":["4"],"rt":3661,"trial_type":"polygon-arrow-question","trial_index":0,"trial_index_global":15,"time_elapsed":275476,"internal_chunk_id":"0-0.3-0"},{"nsides":6,"feedback":"Correct! 1 <img src=./images/hexagon_symbol.png style=width:14px;height:14px> 3 = 4 because 1 + 3 = 4 and 4 - 6 = 4.  Equivalently, 3 steps clockwise on the hexagon from 1 brings us to 4.","orientation_history":[0],"rt":814,"trial_type":"polygon-arrow-feedback","trial_index":0,"trial_index_global":16,"time_elapsed":276296,"internal_chunk_id":"0-0.3-0"},{"nsides":6,"question":"What is 4 <img src=./images/hexagon_symbol.png style=width:14px;height:14px> 3? <br /><br /> (Remember, to perform <img src=./images/hexagon_symbol.png style=width:14px;height:14px>, you can either use a method based on the hexagon at right, or a method based on arithmetic.<br /><br /><b>Hexag on metho d:</b> you can use the interactive diagram on the right, or perform the operation in your mind. Point the arrow at the first number, then move the arrow the second number of points clockwise around the hexagon. The number the arrow arrives at is your result. <br /><br /><b>Arithmetic method:</b> you start with the first number, and then add the second one to it. If the sum is smaller than 6, that's your result. If the sum is 6 or bigger, you subtract 6 to get your result.)","response_type":"free","response_choices":[],"correct_response":"1","response":"1","explain":false,"explanation":"","explanation_history":[],"orientation_history":[[0]],"response_history":["1"],"rt":4709,"trial_type":"polygon-arrow-question","trial_index":0,"trial_index_global":17,"time_elapsed":281011,"internal_chunk_id":"0-0.3-0"},{"nsides":6,"feedback":"Correct! 4 <img src=./images/hexagon_symbol.png style=width:14px;height:14px> 3 = 1 because 3 steps clockwise on the hexagon from 4 brings us t o 1. Equ ivalently, 4 + 3 = 7 and 7 - 6 = 1.","orientation_history":[0],"rt":1039,"trial_type":"polygon-arrow-feedback","trial_index":0,"trial_index_global":18,"time_elapsed":282062,"internal_chunk_id":"0-0.3-0"},{"nsides":6,"question":"What is 0 <img src=./images/hexagon_symbol.png style=width:14px;height:14px> 5? <br /><br /> (Remember, to perform <img src=./images/hexagon_symbol.png style=width:14px;height:14px>, you can either use a method based on the hexagon at right, or a method based on arithmetic.<br /><br /><b>Hexagon method:</b> you can use the interactive diagram on the right, or perform the operation in your mind. Point the arrow at the first number, then move the arrow the second number of points clockwise around the hexagon. The number the arrow arrives at is your result. <br /><br /><b>Arithmetic method:</b> you start with the first number, and then add the second one to it. If the sum is smaller than 6, that's your result. If the sum is 6 or bigger, y ou subtr act 6 to get your result.)","response_type":"free","response_choices":[],"correct_response":"5","response":"5","explain":false,"explanation":"","explanation_history":[],"orientation_history":[[0]],"response_history":["5"],"rt":3912,"trial_type":"polygon-arrow-question","trial_index":0,"trial_index_global":19,"time_elapsed":285978,"internal_chunk_id":"0-0.3-0"},{"nsides":6,"feedback":"Correct! 0 <img src=./images/hexagon_symbol.png style=width:14px;height:14px> 5 = 5 because 5 steps clockwise on the hexagon from 0 brings us to 5. Equivalently, 0 + 5 = 5 and 5 is less than 6.","orientation_history":[0],"rt":980,"trial_type":"polygon-arrow-feedback","trial_index":0,"trial_index_global":20,"time_elapsed":286961,"internal_chunk_id":"0-0.3-0"},{"nsides":6,"question":"What is 2 <img src=./images/hexagon_symbol.png style=width:14px;height:14px> 5? <br /><br /> (Remember, to perform <img src=./images/hexagon_symbol.png style=width:14px;height:14px>, you can ei ther use  a method based on the hexagon at right, or a method based on arithmetic.<br /><br /><b>Hexagon method:</b> you can use the interactive diagram on the right, or perform the operation in your mind. Point the arrow at the first number, then move the arrow the second number of points clockwise around the hexagon. The number the arrow arrives at is your result. <br /><br /><b>Arithmetic method:</b> you start with the first number, and then add the second one to it. If the sum is smaller than 6, that's your result. If the sum is 6 or bigger, you subtract 6 to get your result.)","response_type":"free","response_choices":[],"correct_response":"1","response":"1","explain":false,"explanation":"","explanation_history":[],"orientation_history":[[0]],"response_history":["1"],"rt":4077,"trial_type":"polygon-arrow-question","trial_index":0,"trial_index_global":21,"time_elapsed":291042,"internal_chunk_id":"0-0.3-0"},{"nsides":6,"feedback":"Correct! 2 <img src=./images/hexagon_symbol.png style= width:14px;height:14px> 5 = 1 because 5 steps clockwise on the hexagon from 2 brings us to 1. Equivalently, 2 + 5 = 7 and 7 - 6 = 1.","orientation_history":[0],"rt":955,"trial_type":"polygon-arrow-feedback","trial_index":0,"trial_index_global":22,"time_elapsed":292000,"internal_chunk_id":"0-0.3-0"},{"nsides":6,"instructions":"Now we're going to discuss a couple special properties of this new operation, <img src=./images/hexagon_symbol.png style=width:14px;height:14px> that we've learned. First, notice that the number 0 behaves in a special way under <img src=./images/hexagon_symbol.png style=width:14px;height:14px>. Whenever we combine 0 with anything else, we get that same thing back. We'll say that 0 is the <i>identity</i> under <img src=./images/hexagon_symbol.png style=width:14px;height:14px>, because when you combine it with something it gives you that identical thing back.","orientation_history":[0],"rt":21760,"trial_type":"polygon-arrow-ins truction s","trial_index":0,"trial_index_global":23,"time_elapsed":313769,"internal_chunk_id":"0-0"},{"nsides":6,"instructions":"Now that we know 0 is the identity under <img src=./images/hexagon_symbol.png style=width:14px;height:14px>, we're going to make a new definition. We'll say that the <i>inverse</i> of a number is the element that you combine with it to produce the identity. For example, 5 <img src=./images/hexagon_symbol.png style=width:14px;height:14px> 1 = 0, so we say 1 is the inverse of 5 under <img src=./images/hexagon_symbol.png style=width:14px;height:14px>, (remember 0 is the identity under <img src=./images/hexagon_symbol.png style=width:14px;height:14px>). Similarly, 3 is its own inverse under <img src=./images/hexagon_symbol.png style=width:14px;height:14px>, because 3 <img src=./images/hexagon_symbol.png style=width:14px;height:14px> 3 = 0.","orientation_history":[0],"rt":36936,"trial_type":"polygon-arrow-instructi ons","trial_index":0,"trial_index_global":24,"time_elapsed":350710,"internal_chunk_id":"0-0"},{"nsides":6,"question":"Now you try! What is the inverse of 4 under <img src=./images/hexagon_symbol.png style=width:14px;height:14px>? <br /><br /> (Remember, the inverse of an element is the thing which you combine with it to produce the identity.)","response_type":"free","response_choices":[],"correct_response":"2","response":"0","explain":false,"explanation":"","explanation_history":[],"orientation_history":[[0]],"response_history":["0"],"rt":7069,"trial_type":"polygon-arrow-question","trial_index":0,"trial_index_global":25,"time_elapsed":357785,"internal_chunk_id":"0-0.7-0"},{"nsides":6,"feedback":"Sorry, that was incorrect. The inverse of 4 under <img src=./images/hexagon_symbol.png style=width:14px;height:14px> is 2 because 4 <img src=./images/hexagon_symbol.png style=width:14px;height:14px> 2 = 0, and 0 is the identity under <img src=./images/hexagon_symbol .png s tyle=width:14px;height:14px>.","orientation_history":[0],"rt":18563,"trial_type":"polygon-arrow-feedback","trial_index":0,"trial_index_global":26,"time_elapsed":376352,"internal_chunk_id":"0-0.7-0"},{"nsides":6,"question":"What is the inverse of 1 under <img src=./images/hexagon_symbol.png style=width:14px;height:14px>? <br /><br /> (Remember, the inverse of an element is the thing which you combine with it to produce the identity.)","response_type":"free","response_choices":[],"correct_response":"5","response":"5","explain":false,"explanation":"","explanation_history":[],"orientation_history":[[0]],"response_history":["5"],"rt":7029,"trial_type":"polygon-arrow-question","trial_index":0,"trial_index_global":27,"time_elapsed":383387,"internal_chunk_id":"0-0.7-0"},{"nsides":6,"feedback":"Correct! The inverse of 1 under <img src=./images/hexagon_symbol.png style=width:14px;height:14px> is 5 because 1 <img src=./images/hexagon_symbol.png style=width:14p x;height :14px> 5 = 0, and 0 is the identity under <img src=./images/hexagon_symbol.png style=width:14px;height:14px>.","orientation_history":[0],"rt":971,"trial_type":"polygon-arrow-feedback","trial_index":0,"trial_index_global":28,"time_elapsed":384361,"internal_chunk_id":"0-0.7-0"},{"nsides":6,"question":"What is the inverse of 3 under <img src=./images/hexagon_symbol.png style=width:14px;height:14px>? <br /><br /> (Remember, the inverse of an element is the thing which you combine with it to produce the identity.)","response_type":"free","response_choices":[],"correct_response":"3","response":"3","explain":false,"explanation":"","explanation_history":[],"orientation_history":[[0]],"response_history":["3"],"rt":8563,"trial_type":"polygon-arrow-question","trial_index":0,"trial_index_global":29,"time_elapsed":392928,"internal_chunk_id":"0-0.7-0"},{"nsides":6,"feedback":"Correct! The inverse of 3 under <img src=./images/hexagon_symbol.png style=width:14px;heig ht:14px> is 3 because 3 <img src=./images/hexagon_symbol.png style=width:14px;height:14px> 3 = 0, and 0 is the identity under <img src=./images/hexagon_symbol.png style=width:14px;height:14px>.","orientation_history":[0],"rt":910,"trial_type":"polygon-arrow-feedback","trial_index":0,"trial_index_global":30,"time_elapsed":393842,"internal_chunk_id":"0-0.7-0"},{"nsides":6,"question":"What is the inverse of 2 under <img src=./images/hexagon_symbol.png style=width:14px;height:14px>? <br /><br /> (Remember, the inverse of an element is the thing which you combine with it to produce the identity.)","response_type":"free","response_choices":[],"correct_response":"4","response":"4","explain":false,"explanation":"","explanation_history":[],"orientation_history":[[0]],"response_history":["4"],"rt":3239,"trial_type":"polygon-arrow-question","trial_index":0,"trial_index_global":31,"time_elapsed":397085,"internal_chunk_id":"0-0.7-0"},{"nsides":6,"feedback":"Correct! The  inverse  of 2 under <img src=./images/hexagon_symbol.png style=width:14px;height:14px> is 4 because 2 <img src=./images/hexagon_symbol.png style=width:14px;height:14px> 4 = 0, and 0 is the identity under <img src=./images/hexagon_symbol.png style=width:14px;height:14px>.","orientation_history":[0],"rt":882,"trial_type":"polygon-arrow-feedback","trial_index":0,"trial_index_global":32,"time_elapsed":397971,"internal_chunk_id":"0-0.7-0"},{"nsides":6,"question":"What is the inverse of 0 under <img src=./images/hexagon_symbol.png style=width:14px;height:14px>? <br /><br /> (Remember, the inverse of an element is the thing which you combine with it to produce the identity.)","response_type":"free","response_choices":[],"correct_response":"0","response":"0","explain":false,"explanation":"","explanation_history":[],"orientation_history":[[0]],"response_history":["0"],"rt":4583,"trial_type":"polygon-arrow-question","trial_index":0,"trial_index_global":33,"time_elapsed":402558,"internal_chunk_id":"0-0.7-0"},{"nsides":6,"feedback":"Correct! The inverse of 0 under <img src=./images/hexagon_symbol.png style=width:14px;height:14px> is 0 because 0 <img src=./images/hexagon_symbol.png style=width:14px;height:14px> 0 = 0, and 0 is the identity under <img src=./images/hexagon_symbol.png style=width:14px;height:14px>.","orientation_history":[0],"rt":863,"trial_type":"polygon-arrow-feedback","trial_index":0,"trial_index_global":34,"time_elapsed":403424,"internal_chunk_id":"0-0.7-0"},{"nsides":6,"instructions":"It is also possible to successively apply <img src=./images/hexagon_symbol.png style=width:14px;height:14px>, and the operation can simply be performed starting with the left-most pair. For example, 2 <img src=./images/hexagon_symbol.png style=width:14px;height:14px> 3 <img src=./images/hexagon_symbol.png style=width:14px;height:14px> 4 = 5 <img src=./images/hexagon_symbol.png style=width: 14px;hei ght:14px> 4 = 3.","orientation_history":[0],"rt":7744,"trial_type":"polygon-arrow-instructions","trial_index":0,"trial_index_global":35,"time_elapsed":411172,"internal_chunk_id":"0-0"},{"nsides":6,"instructions":"We have one last definition to learn today, using the successive operations we just learned. Let's start with an example. Under our operation <img src=./images/hexagon_symbol.png style=width:14px;height:14px> we can make every other number using just 1: 2 = 1 <img src=./images/hexagon_symbol.png style=width:14px;height:14px> 1, 3 = 1 <img src=./images/hexagon_symbol.png style=width:14px;height:14px> 1 <img src=./images/hexagon_symbol.png style=width:14px;height:14px> 1, 4 = 1 <img src=./images/hexagon_symbol.png style=width:14px;height:14px> 1 <img src=./images/hexagon_symbol.png style=width:14px;height:14px> 1 <img src=./images/hexagon_symbol.png style=width:14px;height:14px> 1, 5 = 1 <img src=./images/hex agon_sym bol.png style=width:14px;height:14px> 1 <img src=./images/hexagon_symbol.png style=width:14px;height:14px> 1 <img src=./images/hexagon_symbol.png style=width:14px;height:14px> 1 <img src=./images/hexagon_symbol.png style=width:14px;height:14px> 1, and 0 = 1 <img src=./images/hexagon_symbol.png style=width:14px;height:14px> 1 <img src=./images/hexagon_symbol.png style=width:14px;height:14px> 1 <img src=./images/hexagon_symbol.png style=width:14px;height:14px> 1 <img src=./images/hexagon_symbol.png style=width:14px;height:14px> 1 <img src=./images/hexagon_symbol.png style=width:14px;height:14px> 1. Because 1 can make every other element under <img src=./images/hexagon_symbol.png style=width:14px;height:14px>, we say that 1 is a <i>generator</i> under <img src=./images/hexagon_symbol.png style=width:14px;height:14px>. <br /><br /> However, 2 is not a generator under <img src=./images/hexagon _symbol. png style=width:14px;height:14px>, because 4 = 2 <img src=./images/hexagon_symbol.png style=width:14px;height:14px> 2, and 0 = 2 <img src=./images/hexagon_symbol.png style=width:14px;height:14px> 2 <img src=./images/hexagon_symbol.png style=width:14px;height:14px> 2, but there is no way to make 1, 3, or 5 using just 2.","orientation_history":[0],"rt":11695,"trial_type":"polygon-arrow-instructions","trial_index":0,"trial_index_global":36,"time_elapsed":422871,"internal_chunk_id":"0-0"},{"nsides":6,"question":"Now you try! Is 3 a generator under <img src=./images/hexagon_symbol.png style=width:14px;height:14px>? <br /><br /> (Remember, a generator is an element which can make every other element.)","response_type":"multi","response_choices":["Yes","No"],"correct_response":"No","response":"Yes","explain":false,"explanation":"","explanation_history":[],"orientation_history":[[0]],"response_history":["Yes"],"rt":7888,"trial_type":"polygon-arr ow-quest ion","trial_index":0,"trial_index_global":37,"time_elapsed":430763,"internal_chunk_id":"0-0.10-0"},{"nsides":6,"feedback":"Sorry, that's incorrect. 3 is not a generator under <img src=./images/hexagon_symbol.png style=width:14px;height:14px>, because 3 = 3, 0 = 3 <img src=./images/hexagon_symbol.png style=width:14px;height:14px> 3, but there is no way to make 1, 2, 4, or 5 using just 3.","orientation_history":[0],"rt":31001,"trial_type":"polygon-arrow-feedback","trial_index":0,"trial_index_global":38,"time_elapsed":461768,"internal_chunk_id":"0-0.10-0"},{"nsides":6,"question":"Is 5 a generator under <img src=./images/hexagon_symbol.png style=width:14px;height:14px>? <br /><br /> (Remember, a generator is an element which can make every other element.)","response_type":"multi","response_choices":["Yes","No"],"correct_response":"Yes","response":"No","explain":false,"explanation":"","explanation_history":[],"orientation_history":[[0]],"response_history":["No"],"rt":3643,"trial_type":"polygon-arrow-question","trial_index":0,"trial_index_global":39,"time_elapsed":465416,"internal_chunk_id":"0-0.10-0"},{"nsides":6,"feedback":"Sorry, that's incorrect. 5 is a generator under <img src=./images/hexagon_symbol.png style=width:14px;height:14px>, because 5 = 5, 4 = 5 <img src=./images/hexagon_symbol.png style=width:14px;height:14px> 5, 3 = 5 <img src=./images/hexagon_symbol.png style=width:14px;height:14px> 5 <img src=./images/hexagon_symbol.png style=width:14px;height:14px> 5, 2 = 5 <img src=./images/hexagon_symbol.png style=width:14px;height:14px> 5 <img src=./images/hexagon_symbol.png style=width:14px;height:14px> 5 <img src=./images/hexagon_symbol.png style=width:14px;height:14px> 5, 1 = 5 <img src=./images/hexagon_symbol.png style=width:14px;height:14px> 5 <img src=./images/hexagon_symbol.png style=width:14px;height:14px> 5 <img src=./images/hexagon_symbol.png s tyle=w idth:14px;height:14px> 5 <img src=./images/hexagon_symbol.png style=width:14px;height:14px> 5, and 0 = 5 <img src=./images/hexagon_symbol.png style=width:14px;height:14px> 5 <img src=./images/hexagon_symbol.png style=width:14px;height:14px> 5 <img src=./images/hexagon_symbol.png style=width:14px;height:14px> 5 <img src=./images/hexagon_symbol.png style=width:14px;height:14px> 5 <img src=./images/hexagon_symbol.png style=width:14px;height:14px> 5, so you can make all of the numbers under <img src=./images/hexagon_symbol.png style=width:14px;height:14px> using 5","orientation_history":[0],"rt":38183,"trial_type":"polygon-arrow-feedback","trial_index":0,"trial_index_global":40,"time_elapsed":503603,"internal_chunk_id":"0-0.10-0"},{"nsides":6,"question":"Is 4 a generator under <img src=./images/hexagon_symbol.png style=width:14px;height:14px>? <br /><br /> (Remember, a generator is an element which can make every  other el ement.)","response_type":"multi","response_choices":["Yes","No"],"correct_response":"No","response":"No","explain":false,"explanation":"","explanation_history":[],"orientation_history":[[0]],"response_history":["No"],"rt":9311,"trial_type":"polygon-arrow-question","trial_index":0,"trial_index_global":41,"time_elapsed":512919,"internal_chunk_id":"0-0.10-0"},{"nsides":6,"feedback":"Correct! 4 is not a generator under <img src=./images/hexagon_symbol.png style=width:14px;height:14px>, because 4 = 4, 2 = 4 <img src=./images/hexagon_symbol.png style=width:14px;height:14px> 4, and 0 = 4 <img src=./images/hexagon_symbol.png style=width:14px;height:14px> 4 <img src=./images/hexagon_symbol.png style=width:14px;height:14px> 4, but there is no way to make 1, 3, or 5 using just 4.","orientation_history":[0],"rt":6676,"trial_type":"polygon-arrow-feedback","trial_index":0,"trial_index_global":42,"time_elapsed":519607,"internal_chunk_id":"0-0.10-0"},{"nsides":6,"question":"Is 0 a generator under <img src=./images/hexagon_symbol.png style=width:14px;height:14px>? <br /><br /> (Remember, a generator is an element which can make every other element.)","response_type":"multi","response_choices":["Yes","No"],"correct_response":"No","response":"Yes","explain":false,"explanation":"","explanation_history":[],"orientation_history":[[0]],"response_history":["Yes"],"rt":3361,"trial_type":"polygon-arrow-question","trial_index":0,"trial_index_global":43,"time_elapsed":522972,"internal_chunk_id":"0-0.10-0"},{"nsides":6,"feedback":"Sorry, that's incorrect. 0 is not a generator under <img src=./images/hexagon_symbol.png style=width:14px;height:14px>, because 0 = 0, but there is no way to make 1, 2, 3, 4, or 5 using just 0.","orientation_history":[0],"rt":2679,"trial_type":"polygon-arrow-feedback","trial_index":0,"trial_index_global":44,"time_elapsed":525655,"internal_chunk_id":"0-0.10-0"},{"nsides":9,"instructions":"Now we are going to  ask you  some questions about a new operation, <img src=./images/nonagon_symbol.png style=width:14px;height:14px>, on the numbers 0, 1, 2, 3, 4, 5, 6, 7, 8. It works exactly like <img src=./images/hexagon_symbol.png style=width:14px;height:14px>, except now you use the nonagon shown at the right. Equivalently, after adding the two numbers you subtract 9 if your result is 9 or greater.<br /><br />Do you see how the different ways of performing <img src=./images/nonagon_symbol.png style=width:14px;height:14px> give the same result, just like with <img src=./images/hexagon_symbol.png style=width:14px;height:14px>? By labeling the points of the nonagon with the numbers from 0 to 8, we ensure that when we combine two numbers under <img src=./images/nonagon_symbol.png style=width:14px;height:14px>, we only produce numbers between 0 and 8. When we use the arithmetic strategy, adding the second number to the first mimics counting around the nonagon, a nd subtr acting 9 each time we get above 8 makes sure the results correspond to the numbers on the points of the nonagon.<br /><br />We'll give you one practice question with feedback to make sure you understand the new operation. After that, try to complete the remaining questions as accurately as possible.","orientation_history":[0],"rt":36108,"trial_type":"polygon-arrow-instructions","trial_index":0,"trial_index_global":45,"time_elapsed":561776,"internal_chunk_id":"0-0"},{"nsides":9,"question":"Practice: What is 5 <img src=./images/nonagon_symbol.png style=width:14px;height:14px> 5?","response_type":"free","response_choices":[],"correct_response":"1","response":"1","explain":false,"explanation":"","explanation_history":[],"orientation_history":[[0]],"response_history":["1"],"rt":8114,"trial_type":"polygon-arrow-question","trial_index":0,"trial_index_global":46,"time_elapsed":569899,"internal_chunk_id":"0-0.12-0"},{"nsides":9,"feedback":"Correct! 5 <img src=./images/nonag on_symbo l.png style=width:14px;height:14px> 5 = 1 because 5 steps clockwise on the nonagon from 5 brings us to 1. Equivalently, 5 + 5 = 10 and 10 - 9 = 1.","orientation_history":[0],"rt":10921,"trial_type":"polygon-arrow-feedback","trial_index":0,"trial_index_global":47,"time_elapsed":580826,"internal_chunk_id":"0-0.12-0"},{"nsides":9,"question":"What is 3 <img src=./images/nonagon_symbol.png style=width:14px;height:14px> 3?","response_type":"free","response_choices":[],"correct_response":"6","response":"6","explain":false,"explanation":"","explanation_history":[],"orientation_history":[[0]],"response_history":["3","6"],"rt":9530,"trial_type":"polygon-arrow-question","trial_index":0,"trial_index_global":48,"time_elapsed":590359,"internal_chunk_id":"0-0.12-0"},{"nsides":9,"question":"What is 7 <img src=./images/nonagon_symbol.png style=width:14px;height:14px> 4?","response_type":"free","response_choices":[],"correct_response":"2","response":"2","explain":false,"explanation":"","explanation_history":[],"orientation_history":[[0]],"response_history":["2"],"rt":4241,"trial_type":"polygon-arrow-question","trial_index":0,"trial_index_global":49,"time_elapsed":594611,"internal_chunk_id":"0-0.12-0"},{"nsides":9,"question":"What is 1 <img src=./images/nonagon_symbol.png style=width:14px;height:14px> 8?","response_type":"free","response_choices":[],"correct_response":"0","response":"0","explain":false,"explanation":"","explanation_history":[],"orientation_history":[[0]],"response_history":["9","0"],"rt":10083,"trial_type":"polygon-arrow-question","trial_index":0,"trial_index_global":50,"time_elapsed":604698,"internal_chunk_id":"0-0.12-0"},{"nsides":9,"question":"What is 5 <img src=./images/nonagon_symbol.png style=width:14px;height:14px> 4?","response_type":"free","response_choices":[],"correct_response":"0","response":"0","explain":false,"explanation":"","explanation_history":[],"orientation_history":[[0]],"response_history":["0"],"rt":4708,"trial_type":"polygon-arrow-question","trial_index":0,"trial_index_global":51,"time_elapsed":609409,"internal_chunk_id":"0-0.12-0"},{"nsides":9,"question":"What is 6 <img src=./images/nonagon_symbol.png style=width:14px;height:14px> 6?","response_type":"free","response_choices":[],"correct_response":"3","response":"3","explain":false,"explanation":"","explanation_history":[],"orientation_history":[[0]],"response_history":["3"],"rt":6693,"trial_type":"polygon-arrow-question","trial_index":0,"trial_index_global":52,"time_elapsed":616107,"internal_chunk_id":"0-0.12-0"},{"nsides":9,"instructions":"On the following question, and several others later in the HIT, we will ask you to explain how you got your answer. On these questions, you will be given one box for your answer to the question, and a second for your explanation. Please explain your thought process in as much detail as possible (at least one sentence, and more if you can).","orientation_history":[0],"rt":9947,"trial_type":"polygon-arrow-instructions","trial_index":0,"trial_index_global":53,"time_elapsed":626057,"internal_chunk_id":"0-0.12-0"},{"nsides":9,"question":"What is 4 <img src=./images/nonagon_symbol.png style=width:14px;height:14px> 1? Please explain in words how you got your answer.","response_type":"free","response_choices":[],"correct_response":"5","response":"5","explain":true,"explanation":"Because when you go 1 over from 4, that equals 5 and 9-4= 5.","explanation_history":["Because when you go from ","Because when you go from","Because when you go fro","Because when you go fr","Because when you go f","Because when you go 1 over from 4, that rqua","Because when you go 1 over from 4, that rqu","Because when you go 1 over from 4, that rq","Because when you go 1 over from 4, that r","Because when you go 1 over from 4, that equals 5 and ","Because when you go 1 over from 4, that equals 5.","Because when you go 1 over from 4, that equals 5 and 9-4 ","Because when you go  1 over  from 4, that equals 5 and 9-4= 5."],"orientation_history":[[0]],"response_history":["5"],"rt":79502,"trial_type":"polygon-arrow-question","trial_index":0,"trial_index_global":54,"time_elapsed":705564,"internal_chunk_id":"0-0.12-0"},{"nsides":9,"question":"What is 8 <img src=./images/nonagon_symbol.png style=width:14px;height:14px> 4? Please explain in words how you got your answer.","response_type":"free","response_choices":[],"correct_response":"3","response":"3","explain":true,"explanation":"Because 4 going clockwise from 8 equals 12, and 12-9= 3","explanation_history":["Because 4 o","Because 4 going clockwise from 8 equals 12, and 9","Because 4 going clockwise from 8 equals 12, and 12-9= 3"],"orientation_history":[[0]],"response_history":["3"],"rt":36355,"trial_type":"polygon-arrow-question","trial_index":0,"trial_index_global":55,"time_elapsed":741922,"internal_chunk_id":"0-0.12-0"},{"nsides":9,"question":"What is the identity under <img src=./images/nonagon_sy mbol.png  style=width:14px;height:14px>? Please explain in words how you got your answer.","response_type":"free","response_choices":[],"correct_response":"0","response":"0","explain":true,"explanation":"Because 0 is equal to 9, since 9-9 = 0.","explanation_history":["Because  0","Because  ","Because 0 is equal to 9, since 9-9 = 0."],"orientation_history":[[0]],"response_history":["0"],"rt":20062,"trial_type":"polygon-arrow-question","trial_index":0,"trial_index_global":56,"time_elapsed":761993,"internal_chunk_id":"0-0.12-0"},{"nsides":9,"question":"What is the inverse of 5 under <img src=./images/nonagon_symbol.png style=width:14px;height:14px>?","response_type":"free","response_choices":[],"correct_response":"4","response":"0","explain":false,"explanation":"","explanation_history":[],"orientation_history":[[0]],"response_history":["0"],"rt":29442,"trial_type":"polygon-arrow-question","trial_index":0,"trial_index_global":57,"time_elapsed":791439,"internal_chunk_id":"0- 0.12-0"},{"nsides":9,"question":"What is the inverse of 2 under <img src=./images/nonagon_symbol.png style=width:14px;height:14px>?","response_type":"free","response_choices":[],"correct_response":"7","response":"7","explain":false,"explanation":"","explanation_history":[],"orientation_history":[[0]],"response_history":["7"],"rt":10020,"trial_type":"polygon-arrow-question","trial_index":0,"trial_index_global":58,"time_elapsed":801463,"internal_chunk_id":"0-0.12-0"},{"nsides":9,"question":"What is the inverse of 0 under <img src=./images/nonagon_symbol.png style=width:14px;height:14px>?","response_type":"free","response_choices":[],"correct_response":"0","response":"0","explain":false,"explanation":"","explanation_history":[],"orientation_history":[[0]],"response_history":["0"],"rt":1792,"trial_type":"polygon-arrow-question","trial_index":0,"trial_index_global":59,"time_elapsed":803259,"internal_chunk_id":"0-0.12-0"},{"nsides":9,"question":"What is the inverse of 3 un der <img  src=./images/nonagon_symbol.png style=width:14px;height:14px>? Please explain in words how you got your answer.","response_type":"free","response_choices":[],"correct_response":"6","response":"6","explain":true,"explanation":"Because 3 going counter clockwise from 9 (or 0) is 6","explanation_history":["Because 3 going counter cockwise","Because 3 going counter cockwis","Because 3 going counter cockwi","Because 3 going counter cockw","Because 3 going counter cock","Because 3 going counter coc","Because 3 going counter co","Because 3 going counter c","Because 3 going counter clockwise from 9 (or 0) is 6"],"orientation_history":[[0]],"response_history":["6"],"rt":38816,"trial_type":"polygon-arrow-question","trial_index":0,"trial_index_global":60,"time_elapsed":842079,"internal_chunk_id":"0-0.12-0"},{"nsides":9,"question":"Is 2 a generator under <img src=./images/nonagon_symbol.png style=width:14px;height:14px>? Please explain in words how you got your answer.","response_type":"multi","response_choices":["Yes","No"],"correct_response":"Yes","response":"No","explain":true,"explanation":"Yes, because 2 can't make up 1,3,5,or 7","explanation_history":["Yes, because 2 can make up","Yes, because 2 can make u","Yes, because 2 cac","Yes, because 2 can't make up 1,3,5,or 7"],"orientation_history":[[0]],"response_history":["Yes","No"],"rt":49286,"trial_type":"polygon-arrow-question","trial_index":0,"trial_index_global":61,"time_elapsed":891372,"internal_chunk_id":"0-0.12-0"},{"nsides":9,"question":"Is 3 a generator under <img src=./images/nonagon_symbol.png style=width:14px;height:14px>? Please explain in words how you got your answer.","response_type":"multi","response_choices":["Yes","No"],"correct_response":"No","response":"No","explain":true,"explanation":"No because 3 can't make up 1,2,4,5,7,8","explanation_history":["No because 3 a","No because 3 can't make up 2,","No because 3 can't make up 2","No because 3 can't make up 1,2,4,5,7,8"],"orientation_history":[[0]],"response_history":["No"],"rt":28009,"trial_type":"polygon-arrow-question","trial_index":0,"trial_index_global":62,"time_elapsed":919386,"internal_chunk_id":"0-0.12-0"},{"nsides":9,"question":"Is 5 a generator under <img src=./images/nonagon_symbol.png style=width:14px;height:14px>? Please explain in words how you got your answer.","response_type":"multi","response_choices":["Yes","No"],"correct_response":"Yes","response":"No","explain":true,"explanation":"No because 5 can't make up any of the numbers besides 5.","explanation_history":["N becua","N becu","N bec","N be","N b","N ","No because 5 ca","No because 5 cn't mak","No because 5 cn't ma","No because 5 cn't m","No because 5 cn't ","No because 5 cn't","No because 5 cn'","No because 5 cn","No because 5 can't make up any of the numbers besides 5."],"orientation_history":[[0]],"response_history":["No"],"rt":36312,"trial_type":"polygon-arrow-question","trial_index":0,"trial_index_global":63,"time_elapsed":955702,"internal_chunk_id":"0-0.12-0"},{"nsides":9,"question":"Is 6 a generator under <img src=./images/nonagon_symbol.png style=width:14px;height:14px>? Please explain in words how you got your answer.","response_type":"multi","response_choices":["Yes","No"],"correct_response":"No","response":"No","explain":true,"explanation":"Yes I think so because 6 can make up all of the numbers. ","explanation_history":["No because 6 can't make up any of the numbers besides 6","Yes, b","Yes, ","Yes,","Yes I think so because 6 can make a","Yes I think so because 6 can make all of the numbers. ","Yes I think so because 6 can make uall of the numbers. ","Yes I think so because 6 can make upall of the numbers. ","Yes I think so because 6 can make up all of the numbers. "],"orientation_history":[[0]],"response_history":["No"],"rt":81593,"trial_type":"polygon-arrow-question","trial_index":0,"trial_index_global":64,"time_elapsed":1037299,"internal_chunk_id":"0-0.12-0"},{"nsides":"n","instructions":"Now we'd like to ask you some questions about <img src=./images/ngon_symbol.png style=width:14px;height:14px>, where n could be any postive counting number. For example, n could be 3, and the polygon a triangle, or n could be any other counting number you can think of, in which case the corresponding polygon would have n sides. Just as before, you can use either the polygon or arithmetic methods. If you need to write the operation, you can use (n), and your answers can include n to stand in for the arbitrary value if necessary. (You can use the polygon at the right to think, but it doesn't necessarily correspond to the real polygon, which is why we've left most of it dashed.)","orientation_history":[0],"rt":12004,"trial_type":"polygon-arrow-instructions","trial_index":0,"trial_index_global":65,"time_elapsed":1049309,"internal_chunk_id":"0-0"},{"nsides":"n","question":"What is the formula for the inverse of 1 under <img src=./images/ngon_symbol.png st yle=wi dth:14px;height:14px>?","response_type":"free","response_choices":[],"correct_response":"n-1","response":"8","explain":false,"explanation":"","explanation_history":[],"orientation_history":[[0]],"response_history":["8"],"rt":14431,"trial_type":"polygon-arrow-question","trial_index":0,"trial_index_global":66,"time_elapsed":1063748,"internal_chunk_id":"0-0.14-0"},{"nsides":"n","question":"What is the formula for the inverse of an element x under <img src=./images/ngon_symbol.png style=width:14px;height:14px>? Please explain in words how you got your answer.","response_type":"free","response_choices":[],"correct_response":"n-x","response":"9","explain":true,"explanation":"Because the inverse of 0 (which is n) is 9","explanation_history":["I went counter clockwise from 0","E","Because the inverse,","Because the inverse of 0 (which is n) is 9"],"orientation_history":[[0]],"response_history":["I went counter closeck","I went counter closec","I went counter closewise from  0","I w ent counter cloewise from 0","I went counter clocewise from 0","I went counter clockewise from 0","I went counter clockwise from 0","0","9"],"rt":65659,"trial_type":"polygon-arrow-question","trial_index":0,"trial_index_global":67,"time_elapsed":1129411,"internal_chunk_id":"0-0.14-0"},{"nsides":"n","question":"Is there a pattern to which elements are generators? How can you know if an element x is a generator under <img src=./images/ngon_symbol.png style=width:14px;height:14px> without seeing whether it can make all the elements?.","response_type":"free","response_choices":[],"correct_response":"","response":"I believe you numbers like 1 is a generator because it can make up all of the numbers.","explain":false,"explanation":"","explanation_history":[],"orientation_history":[[0]],"response_history":["I believe to","I believe t","I believe you know","I believe you kno","I believe you kn","I believe you k","I believe you bu","I believe you b","I believe you numbers like  1 is a  generator because it can make upp ","I believe you numbers like 1 is a generator because it can make upp","I believe you numbers like 1 is a generator because it can make up all of the numbers."],"rt":124486,"trial_type":"polygon-arrow-question","trial_index":0,"trial_index_global":68,"time_elapsed":1253902,"internal_chunk_id":"0-0.14-0"},{"nsides":"n","question":"True or false: If x is an odd number, it must be a generator under <img src=./images/ngon_symbol.png style=width:14px;height:14px>.","response_type":"multi","response_choices":["True","False"],"correct_response":"False","response":"False","explain":false,"explanation":"","explanation_history":[],"orientation_history":[[0]],"response_history":["False"],"rt":34392,"trial_type":"polygon-arrow-question","trial_index":0,"trial_index_global":69,"time_elapsed":1288298,"internal_chunk_id":"0-0.14-0"},{"nsides":"n","question":"True or false: If x is an even number, it must not be a generator under <img src=./image s/ngon_s ymbol.png style=width:14px;height:14px>.","response_type":"multi","response_choices":["True","False"],"correct_response":"False","response":"False","explain":false,"explanation":"","explanation_history":[],"orientation_history":[[0]],"response_history":["False"],"rt":9147,"trial_type":"polygon-arrow-question","trial_index":0,"trial_index_global":70,"time_elapsed":1297458,"internal_chunk_id":"0-0.14-0"},{"nsides":"n","question":"True or false: If x is not a generator under <img src=./images/ngon_symbol.png style=width:14px;height:14px>, x must be a divisor of n, that is, x must divide n evenly, with no remainder.","response_type":"multi","response_choices":["True","False"],"correct_response":"False","response":"True","explain":false,"explanation":"","explanation_history":[],"orientation_history":[[0]],"response_history":["True"],"rt":12693,"trial_type":"polygon-arrow-question","trial_index":0,"trial_index_global":71,"time_elapsed":1310155,"internal_chunk_id":"0- 0.14-0"},{"nsides":"n","question":"True or false: If x is not a generator under <img src=./images/ngon_symbol.png style=width:14px;height:14px>, x must be a multiple of a divisor of n. Please explain in words how you got your answer.","response_type":"multi","response_choices":["True","False"],"correct_response":"True","response":"True","explain":true,"explanation":"I got my answer based off of whether or not the number could equally form the other elements and divide evenly.","explanation_history":["I d","I got my answer based off oof","I got my answer based off oo","I got my answer based off of whether or not the number could equally form the other ","I got my answer based off of whether or not the number could equally form the other elements and divide amongst","I got my answer based off of whether or not the number could equally form the other elements and divide amongs","I got my answer based off of whether or not the number could equally form the other elements and div ide amon g","I got my answer based off of whether or not the number could equally form the other elements and divide amon","I got my answer based off of whether or not the number could equally form the other elements and divide amo","I got my answer based off of whether or not the number could equally form the other elements and divide am","I got my answer based off of whether or not the number could equally form the other elements and divide a","I got my answer based off of whether or not the number could equally form the other elements and divide eac","I got my answer based off of whether or not the number could equally form the other elements and divide ea","I got my answer based off of whether or not the number could equally form the other elements and divide e","I got my answer based off of whether or not the number could equally form the other elements and divide in","I got my answer based off of whether or not the number could equally form the other elements and divide i","I g ot my an swer based off of whether or not the number could equally form the other elements and divide evenly."],"orientation_history":[[0]],"response_history":["True"],"rt":47501,"trial_type":"polygon-arrow-question","trial_index":0,"trial_index_global":72,"time_elapsed":1357676,"internal_chunk_id":"0-0.14-0"},{"nsides":"n","question":"If an element x is a generator under <img src=./images/ngon_symbol.png style=width:14px;height:14px>, is its inverse a generator under <img src=./images/ngon_symbol.png style=width:14px;height:14px> always, sometimes, or never?","response_type":"multi","response_choices":["Always","Sometimes","Never"],"correct_response":"Always","response":"Sometimes","explain":false,"explanation":"","explanation_history":[],"orientation_history":[[0]],"response_history":["Sometimes"],"rt":8130,"trial_type":"polygon-arrow-question","trial_index":0,"trial_index_global":73,"time_elapsed":1365817,"internal_chunk_id":"0-0.14-0"},{"nsides":"n","question":"if  an elem ent x is a generator under <img src=./images/ngon_symbol.png style=width:14px;height:14px>, is x <img src=./images/ngon_symbol.png style=width:14px;height:14px> x a generator under <img src=./images/ngon_symbol.png style=width:14px;height:14px> always, sometimes, or never? Please explain in words how you got your answer.","response_type":"multi","response_choices":["Always","Sometimes","Never"],"correct_response":"Sometimes","response":"Sometimes","explain":true,"explanation":"Sometimes it won't make up all of the numbers evenly. ","explanation_history":["Sometimes it won't make up all of the numbers evenly. "],"orientation_history":[[0]],"response_history":["Sometimes"],"rt":46230,"trial_type":"polygon-arrow-question","trial_index":0,"trial_index_global":74,"time_elapsed":1412051,"internal_chunk_id":"0-0.14-0"},{"nsides":"n","question":"If an element x is not a generator under <img src=./images/ngon_symbol.png style=width:14px;height:14px>, i s x <img  src=./images/ngon_symbol.png style=width:14px;height:14px> x a generator under <img src=./images/ngon_symbol.png style=width:14px;height:14px> always, sometimes, or never?","response_type":"multi","response_choices":["Always","Sometimes","Never"],"correct_response":"Never","response":"Never","explain":false,"explanation":"","explanation_history":[],"orientation_history":[[0]],"response_history":["Sometimes","Never"],"rt":14723,"trial_type":"polygon-arrow-question","trial_index":0,"trial_index_global":75,"time_elapsed":1426778,"internal_chunk_id":"0-0.14-0"},{"instructions":"Now we'd like you to do a few of the questions and tell us how much you're using the arithmetic and polygon methods to solve them. We'll give you a demonstration of the response screen first.<br /><br />Press continue when you're ready to begin.","rt":3419,"trial_type":"instructions","trial_index":0,"trial_index_global":76,"time_elapsed":1430200,"internal_chunk_id":"0-0.15-0"},{"nsides":9,"added_prompt":"<i>This is a demo response screen. You can respond independently to both questions, so it's okay to say you used both methods.</i><br /><br />","polygon_response":"1","modular_response":"3","rt":9670,"trial_type":"polygon-arrow-which-representation","trial_index":0,"trial_index_global":77,"time_elapsed":1439873,"internal_chunk_id":"0-0.15-0"},{"question":"<i>This is a demo response screen.</i><br /><br />Please describe in as much detail as possible how you used the arithmetic method, polygon method, or both for the problem.","response_type":"free","response_choices":[],"correct_response":"","response":"I preferred the arithmetic method because it was personally easier for me to understand when using that method. I basically just counted clockwise/counter clockwise with the given numbers. ","explain":false,"explanation":"","explanation_history":[],"response_history":["I prefered thear ","I prefered thear","I prefer","I preferred the arithemetic em","I preferred the  aritheme ti","I preferred the arithemet","I preferred the aritheme","I preferred the arithem","I preferred the arithe","I preferred the arithmetic metho ","I preferred the arithmetic method because it was personally easier for me to unsd","I preferred the arithmetic method because it was personally easier for me to uns","I preferred the arithmetic method because it was personally easier for me to understand th","I preferred the arithmetic method because it was personally easier for me to understand t","I preferred the arithmetic method because it was personally easier for me to understand ","I preferred the arithmetic method because it was personally easier for me to understand, u","I preferred the arithmetic method because it was personally easier for me to understand, ","I preferred the arithmetic method because it was personally easier for me to understand,","I preferred the arithmetic method because it was personally easier for me to understand when using that method. I basically  just co unted clockwise/clockwi","I preferred the arithmetic method because it was personally easier for me to understand when using that method. I basically just counted clockwise/clockw","I preferred the arithmetic method because it was personally easier for me to understand when using that method. I basically just counted clockwise/clock","I preferred the arithmetic method because it was personally easier for me to understand when using that method. I basically just counted clockwise/cloc","I preferred the arithmetic method because it was personally easier for me to understand when using that method. I basically just counted clockwise/clo","I preferred the arithmetic method because it was personally easier for me to understand when using that method. I basically just counted clockwise/cl","I preferred the arithmetic method because it was personally easier for me to understand when using that method. I basically just counted clockwise/counter clockwise w","I preferred the arithmet ic metho d because it was personally easier for me to understand when using that method. I basically just counted clockwise/counter clockwise ","I preferred the arithmetic method because it was personally easier for me to understand when using that method. I basically just counted clockwise/counter clockwise with the given numbers. "],"rt":58965,"trial_type":"question","trial_index":0,"trial_index_global":78,"time_elapsed":1498843,"internal_chunk_id":"0-0.15-0"},{"instructions":"Great! Now we have a few questions for you to do (some of which you may have seen earlier), and after each question you will tell us how much you used the polygon and arithmetic methods.<br /><br />Press continue when you're ready to begin.","rt":3249,"trial_type":"instructions","trial_index":0,"trial_index_global":79,"time_elapsed":1502097,"internal_chunk_id":"0-0.15-0"},{"nsides":9,"question":"Please answer the following question:<br /><br />What is the inverse of 4 under <img src=./images/nonagon_symbol. png st yle=width:14px;height:14px>?","response_type":"free","response_choices":[],"correct_response":"5","response":"5","explain":false,"explanation":"","explanation_history":[],"orientation_history":[[0]],"response_history":["5"],"rt":7001,"trial_type":"polygon-arrow-question","trial_index":0,"trial_index_global":80,"time_elapsed":1509109,"internal_chunk_id":"0-0.15-0"},{"nsides":9,"question":"Please answer the following question:<br /><br />What is the inverse of 4 under <img src=./images/nonagon_symbol.png style=width:14px;height:14px>?","added_prompt":"","polygon_response":"3","modular_response":"4","rt":7302,"trial_type":"polygon-arrow-which-representation","trial_index":0,"trial_index_global":81,"time_elapsed":1516415,"internal_chunk_id":"0-0.15-0"},{"question":"Please describe in as much detail as possible how you used the arithmetic method, polygon method, or both for the problem.","response_type":"free","response_choices":[],"correct_response":"","response":"I  just cou nted 4 spots counter clockwise from 0. ","explain":false,"explanation":"","explanation_history":[],"response_history":["I just co","I just counted 4 o","I just counted 4 c","I just counted 4 spots counter clockwise from the ","I just counted 4 spots counter clockwise from the","I just counted 4 spots counter clockwise from th","I just counted 4 spots counter clockwise from t","I just counted 4 spots counter clockwise from 0","I just counted 4 spots counter clockwise from 0. "],"rt":20563,"trial_type":"question","trial_index":0,"trial_index_global":82,"time_elapsed":1536981,"internal_chunk_id":"0-0.15-0"},{"nsides":9,"question":"Please answer the following question:<br /><br />What is the inverse of 0 under <img src=./images/nonagon_symbol.png style=width:14px;height:14px>?","response_type":"free","response_choices":[],"correct_response":"0","response":"0","explain":false,"explanation":"","explanation_history":[],"orientation_history":[[0]],"response_history":["0"],"rt":4504,"trial_type":"polygon-arrow-question","trial_index":0,"trial_index_global":83,"time_elapsed":1541489,"internal_chunk_id":"0-0.15-0"},{"nsides":9,"question":"Please answer the following question:<br /><br />What is the inverse of 0 under <img src=./images/nonagon_symbol.png style=width:14px;height:14px>?","added_prompt":"","polygon_response":"0","modular_response":"0","rt":8727,"trial_type":"polygon-arrow-which-representation","trial_index":0,"trial_index_global":84,"time_elapsed":1550220,"internal_chunk_id":"0-0.15-0"},{"question":"Please describe in as much detail as possible how you used the arithmetic method, polygon method, or both for the problem.","response_type":"free","response_choices":[],"correct_response":"","response":"I didn't really use any because I knew it was 0 since 9-9 = 0","explain":false,"explanation":"","explanation_history":[],"response_history":["I didn't really use any because I knoe","I didn't really use any because I kno","I didn't really u se any b ecause I knew it was 0 since 9-9 = 0"],"rt":12261,"trial_type":"question","trial_index":0,"trial_index_global":85,"time_elapsed":1562491,"internal_chunk_id":"0-0.15-0"},{"nsides":9,"question":"Please answer the following question:<br /><br />Is 4 a generator under <img src=./images/nonagon_symbol.png style=width:14px;height:14px>?","response_type":"Multi","response_choices":["Yes","No"],"correct_response":"Yes","response":"No","explain":false,"explanation":"","explanation_history":[],"orientation_history":[[0]],"response_history":["No"],"rt":7542,"trial_type":"polygon-arrow-question","trial_index":0,"trial_index_global":86,"time_elapsed":1570036,"internal_chunk_id":"0-0.15-0"},{"nsides":9,"question":"Please answer the following question:<br /><br />Is 4 a generator under <img src=./images/nonagon_symbol.png style=width:14px;height:14px>?","added_prompt":"","polygon_response":"0","modular_response":"2","rt":8033,"trial_type":"polygon-arrow-which-representation ","trial_index":0,"trial_index_global":87,"time_elapsed":1578072,"internal_chunk_id":"0-0.15-0"},{"question":"Please describe in as much detail as possible how you used the arithmetic method, polygon method, or both for the problem.","response_type":"free","response_choices":[],"correct_response":"","response":"I used the arithmetic method to test if 4 was a generator, and though I'm a bit unsure, I think it helped me solve the problem by testing whether 4 could make up the other numbers. ","explain":false,"explanation":"","explanation_history":[],"response_history":["I assumed","I assume","I assum","I assu","I ass","I as","I a","I think","I thin","I thi","I th","I tought ","I tought","I tough","I toug","I tou","I to","I thought","I ","I used the arithmetic method to test if 4 was a generator, andth","I used the arithmetic method to test if 4 was a generator, andt","I used the arithmetic method to test if 4 was a generator, and though I'm a bit unsure, I think it helped me solve the  problem  w","I used the arithmetic method to test if 4 was a generator, and though I'm a bit unsure, I think it helped me solve the problem by re","I used the arithmetic method to test if 4 was a generator, and though I'm a bit unsure, I think it helped me solve the problem by r","I used the arithmetic method to test if 4 was a generator, and though I'm a bit unsure, I think it helped me solve the problem by testing whether  ","I used the arithmetic method to test if 4 was a generator, and though I'm a bit unsure, I think it helped me solve the problem by testing whether 4 could make up the other numbers. "],"rt":40762,"trial_type":"question","trial_index":0,"trial_index_global":88,"time_elapsed":1618846,"internal_chunk_id":"0-0.15-0"},{"nsides":"n","question":"Please answer the following question:<br /><br />True or false: If x divides n, it must not be a generator under <img src=./images/ngon_symbol.png style=width:14px;height:14px>.","response_type":"multi","response_choices":["T rue","False"],"correct_response":"True","response":"True","explain":false,"explanation":"","explanation_history":[],"orientation_history":[[0]],"response_history":["False","True"],"rt":23131,"trial_type":"polygon-arrow-question","trial_index":0,"trial_index_global":89,"time_elapsed":1641981,"internal_chunk_id":"0-0.15-0"},{"nsides":"n","question":"Please answer the following question:<br /><br />True or false: If x divides n, it must not be a generator under <img src=./images/ngon_symbol.png style=width:14px;height:14px>.","added_prompt":"","polygon_response":"0","modular_response":"0","rt":3445,"trial_type":"polygon-arrow-which-representation","trial_index":0,"trial_index_global":90,"time_elapsed":1645429,"internal_chunk_id":"0-0.15-0"},{"question":"Please describe in as much detail as possible how you used the arithmetic method, polygon method, or both for the problem.","response_type":"free","response_choices":[],"correct_response":"","response":"I didn't use eith er metho d because I assumed it was basically just 0/0 = 0 or 9/9= 0","explain":false,"explanation":"","explanation_history":[],"response_history":["I didn't use either moethd","I didn't use either moethod becu","I didn't use either moeth","I didn't use either moet","I didn't use either moe","I didn't use either moetho","I didn't use either moeth","I didn't use either moet","I didn't use either moe","I didn't use either mo","I didn't use either method becuase ","I didn't use either method becuase","I didn't use either method becuas","I didn't use either method becua","I didn't use either method becu","I didn't use either method becais","I didn't use either method becai","I didn't use either method because I assumed it was as","I didn't use either method because I assumed it was a","I didn't use either method because I assumed it was basically just 0/","I didn't use either method because I assumed it was basically just 0 ","I didn't use either method because I assumed it was basically  just 0/ 0 = 0 or 9/9= 0"],"rt":27192,"trial_type":"question","trial_index":0,"trial_index_global":91,"time_elapsed":1672626,"internal_chunk_id":"0-0.15-0"},{"instructions":"We would like to ask you some questions about your background. Please press Continue to continue.","rt":1403,"trial_type":"instructions","trial_index":0,"trial_index_global":92,"time_elapsed":1674031,"internal_chunk_id":"0-0.16-0"},{"question":"What is your age?","response_type":"free","response_choices":[],"correct_response":"","response":"21","explain":false,"explanation":"","explanation_history":[],"response_history":["21"],"rt":1463,"trial_type":"question","trial_index":0,"trial_index_global":93,"time_elapsed":1675498,"internal_chunk_id":"0-0.16-0"},{"question":"What is your level of education?","response_type":"multi","response_choices":["Did not graduate high school","High school diploma","Some college, no degree","Associates Degree","Bachelors Degree","Some graduate school, no degree","Masters Degree","Doctora te, M.D., etc."],"correct_response":"","response":"Some college, no degree","explain":false,"explanation":"","explanation_history":[],"response_history":["Some college, no degree"],"rt":2929,"trial_type":"question","trial_index":0,"trial_index_global":94,"time_elapsed":1678441,"internal_chunk_id":"0-0.16-0"},{"question":"What is the most advanced math class you've completed? If you have multiple classes and you're not sure which one is most advanced, please list them.","response_type":"free","response_choices":[],"correct_response":"","response":"Pre-Calculus ","explain":false,"explanation":"","explanation_history":[],"response_history":["Pre ","Pre-Calcus","Pre-Calcu","Pre-Calculus "],"rt":18380,"trial_type":"question","trial_index":0,"trial_index_global":95,"time_elapsed":1696824,"internal_chunk_id":"0-0.16-0"},{"question":"How familiar are you with the concept of modular arithmetic?","response_type":"multi","response_choices":["1 - never heard of it","2 - heard of it but  didn't k now what it was","3 - seen it used or explained","4 - used it but not often or recently","5 - used it, remember and understand it"],"correct_response":"1","response":"1 - never heard of it","explain":false,"explanation":"","explanation_history":[],"response_history":["1 - never heard of it"],"rt":4526,"trial_type":"question","trial_index":0,"trial_index_global":96,"time_elapsed":1701354,"internal_chunk_id":"0-0.16-0"},{"question":"How familiar are you with the concept of a mathematical group?","response_type":"multi","response_choices":["1 - never heard of it","2 - heard of it but didn't know what it was","3 - seen it used or explained","4 - used it but not often or recently","5 - used it, remember and understand it"],"correct_response":"1","response":"3 - seen it used or explained","explain":false,"explanation":"","explanation_history":[],"response_history":["3 - seen it used or explained"],"rt":6025,"trial_type":"question","trial_index":0,"trial_index_global":97,"time_elapsed":1707383,"internal_chunk_id":"0-0.16-0"},{"question":"Do you feel you learned something from this HIT?","response_type":"multi","response_choices":["1 - not at all","2 - somewhat","3 - definitely"],"correct_response":"1","response":"2 - somewhat","explain":false,"explanation":"","explanation_history":[],"response_history":["3 - definitely","2 - somewhat"],"rt":4949,"trial_type":"question","trial_index":0,"trial_index_global":98,"time_elapsed":1712344,"internal_chunk_id":"0-0.16-0"},{"question":"Do you feel you understood the concepts in this HIT?","response_type":"multi","response_choices":["1 - not at all","2 - somewhat","3 - definitely"],"correct_response":"1","response":"2 - somewhat","explain":false,"explanation":"","explanation_history":[],"response_history":["2 - somewhat"],"rt":2742,"trial_type":"question","trial_index":0,"trial_index_global":99,"time_elapsed":1715089,"internal_chunk_id":"0-0.16-0"},{"question":"Did you enjoy this HIT?","response_type":"multi","response_choices":["1 - not at all","2 - somewhat","3 - definitely"],"correct_response":"1","response":"2 - somewhat","explain":false,"explanation":"","explanation_history":[],"response_history":["2 - somewhat"],"rt":2093,"trial_type":"question","trial_index":0,"trial_index_global":100,"time_elapsed":1717186,"internal_chunk_id":"0-0.16-0"},{"question":"What is your gender?","response_type":"multi","response_choices":["Female","Male","Other"],"correct_response":"","response":"Female","explain":false,"explanation":"","explanation_history":[],"response_history":["Female"],"rt":2124,"trial_type":"question","trial_index":0,"trial_index_global":101,"time_elapsed":1719313,"internal_chunk_id":"0-0.16-0"},{"question":"What is/are your native language(s)? (The languages spoken in your household when you were a child.)","response_type":"free","response_choices":[],"correct_response":"","response":"English","explain":false,"explanation":"","explanation_history":[],"response_history":["English"],"rt":4083,"trial_type":"question","trial_index":0,"trial_index_global":102,"time_elapsed":1723400,"internal_chunk_id":"0-0.16-0"},{"question":"Did you use pen and paper at any point on this HIT?","response_type":"free","response_choices":[],"correct_response":"","response":"No","explain":false,"explanation":"","explanation_history":[],"response_history":["No"],"rt":3341,"trial_type":"question","trial_index":0,"trial_index_global":103,"time_elapsed":1726743,"internal_chunk_id":"0-0.16-0"},{"question":"Do you have any comments on this HIT?","response_type":"free","response_choices":[],"correct_response":"","response":"n/a","explain":false,"explanation":"","explanation_history":[],"response_history":["n/a"],"rt":3706,"trial_type":"question","trial_index":0,"trial_index_global":104,"time_elapsed":1730452,"internal_chunk_id":"0-0.16-0"}]