[{"nsides":6,"instructions":"Let's define a new operation <img src=./images/hexagon_symbol.png style=width:14px;height:14px>. This operation will give us a way of combining two of the numbers 0, 1, 2, 3, 4, 5 to get another one of them back. Consider the hexagon at the right, where I've labeled each point with one of the numbers. To perform <img src=./images/hexagon_symbol.png style=width:14px;height:14px>, you can use the interactive diagram on the right, or perform the operation in your mind. Point the arrow at the first number on the hexagon by clicking, then click (or click and drag) to move the arrow the second number of points clockwise around the hexagon. The number the arrow arrives at is your result. (The operation is called <img src=./images/hexagon_symbol.png style=width:14px;height:14px> because it uses the hexagon, which has 6 sides.) <br /><br />For example, 3 <img src=./images/hexagon_symbol.png style=width:14px;height:14px> 5 =  2, becau se 5 steps clockwise from 3 on the hexagon brings us to 2. So 3 <img src=./images/hexagon_symbol.png style=width:14px;height:14px> 5 = 2.<br /><br />Similarly, 1 <img src=./images/hexagon_symbol.png style=width:14px;height:14px> 4 = 5, because 4 steps clockwise from 1 brings us to 5. <br /><br />Click Continue when you're ready to move on.","orientation_history":[0],"rt":91704,"trial_type":"polygon-arrow-instructions","trial_index":0,"trial_index_global":1,"time_elapsed":99874,"internal_chunk_id":"0-0"},{"nsides":6,"instructions":"Do you see how <img src=./images/hexagon_symbol.png style=width:14px;height:14px> works? By labeling the points of the hexagon with the numbers from 0 to 5, we ensure that when we combine two numbers under <img src=./images/hexagon_symbol.png style=width:14px;height:14px>, we only produce numbers between 0 and 5.<br /><br />Click Continue when you are ready to move on.","orientation_history":[0],"rt":27872,"trial_type":"polygon-arrow-instructions","trial_index":0,"trial_index_global":2,"time_elapsed":127748,"internal_chunk_id":"0-0"},{"nsides":6,"question":"Now try one on your own! What is 4 <img src=./images/hexagon_symbol.png style=width:14px;height:14px> 5? <br /><br /> (Remember, to perform <img src=./images/hexagon_symbol.png style=width:14px;height:14px>, you can use the interactive diagram on the right, or perform the operation in your mind. Point the arrow at the first number on the hexagon, then move the arrow the second number of points clockwise around the hexagon. The number the arrow arrives at is your result.)","response_type":"free","response_choices":[],"correct_response":"3","response":"1","explain":false,"explanation":"","explanation_history":[],"orientation_history":[[0],[4.243815302855461,4.243815302855461,4.243815302855461,4.243815302855461,4.243815302855461,4.243815302855461,4.243815302855461,4.243815302855461,4.243815302855461,4.243815302855461,4.1887902047863905],[5.300391583932257,5.300391583932257,5.300391583932257,5.300391583932257,5.300391583932257,5.300391583932257,5.300391583932257,5.300391583932257,5.235987755982988]],"response_history":["1"],"rt":14716,"trial_type":"polygon-arrow-question","trial_index":0,"trial_index_global":3,"time_elapsed":142466,"internal_chunk_id":"0-0.3-0"},{"nsides":6,"feedback":"Sorry, that was incorrect. 4 <img src=./images/hexagon_symbol.png style=width:14px;height:14px> 5 = 3 because 5 steps clockwise on the hexagon from 4 brings us to 3","orientation_history":[0,[4.227354258532154,4.227354258532154,4.216837306898862,4.212108552159838,4.212108552159838,4.212108552159838,4.212108552159838,4.212108552159838,4.1887902047863905],[5.245232868004079,5.245232868004079,5.245232868004079,5.245232868004079,5.245232868004079,5.245232868004079,5.245232868004079,5.245232868004079,5.235987755982988],[0.02150206198623117,0.02150206198623117,0.02150206198623117,0.02150206198623117,0.02150206198623117,0.02150206198623117,0.02150206198623117,0.02150206198623117,0],[0.9403949053213893,0.9403949053213893,0.9403949053213893,0.9403949053213893,0.9403949053213893,0.9403949053213893,0.9403949053213893,0.9403949053213893,0.9403949053213893,0.9403949053213893,1.0471975511965976],[2.0887836930084713,2.0887836930084713,2.0887836930084713,2.0887836930084713,2.0887836930084713,2.0887836930084713,2.0887836930084713,2.0887836930084713,2.0887836930084713,2.0887836930084713,2.0943951023931953],[3.141592653589793,3.141592653589793,3.153640263443979,3.165397679774863,3.189175756866777,3.188616785432539,3.188616785432539,3.188616785432539,3.188616785432539,3.188616785432539,3.188616785432539,3.188616785432539,3.141592653589793]],"rt":37811,"trial_type":"polygon-arrow-feedback","trial_index":0,"trial_index_global":4,"time_elapsed":180278,"internal_chunk_id":"0-0.3-0"},{"nsides":6,"question":"What is 3 <img src=./images/hexagon_symbol.png style=width:14px;height:14px> 2? <br /><br /> (Reme mber, to  perform <img src=./images/hexagon_symbol.png style=width:14px;height:14px>, you can use the interactive diagram on the right, or perform the operation in your mind. Point the arrow at the first number on the hexagon, then move the arrow the second number of points clockwise around the hexagon. The number the arrow arrives at is your result.)","response_type":"free","response_choices":[],"correct_response":"5","response":"5","explain":false,"explanation":"","explanation_history":[],"orientation_history":[[0],[3.141592653589793,3.141592653589793,3.141592653589793,3.141592653589793,3.141592653589793,3.141592653589793,3.141592653589793,3.141592653589793,3.141592653589793,3.141592653589793],[4.152707414381411,4.152707414381411,4.152707414381411,4.152707414381411,4.152707414381411,4.152707414381411,4.152707414381411,4.152707414381411,4.1887902047863905],[5.156334705472687,5.156334705472687,5.156334705472687,5.156334705472687,5.156334705472687,5.156334705472687,5.156334705472687,5.156334705472687,5.235987755982988],[6.196979733503808,6.196979733503808,6.196979733503808,6.184739147966953,6.184739147966953,6.184739147966953,6.184739147966953,6.184739147966953,6.283185307179586],[1.0000830666055371,1.0000830666055371,1.0000830666055371,1.0000830666055371,1.0000830666055371,1.0000830666055371,1.0000830666055371,1.0471975511965976],[2.067904246245353,2.067904246245353,2.072400380984017,2.076971470415487,2.076971470415487,2.076971470415487,2.076971470415487,2.076971470415487,2.0943951023931953]],"response_history":["5"],"rt":12147,"trial_type":"polygon-arrow-question","trial_index":0,"trial_index_global":5,"time_elapsed":192425,"internal_chunk_id":"0-0.3-0"},{"nsides":6,"feedback":"Correct! 3 <img src=./images/hexagon_symbol.png style=width:14px;height:14px> 2 = 5 because 2 steps clockwise on the hexagon from 3 brings us to 5","orientation_history":[0],"rt":1361,"trial_type":"polygon-arrow-feedback","trial_index":0,"trial_index_global":6,"time_elapsed":193787,"internal_chunk_id":"0-0.3-0"},{"nsides":6,"question":"What is 1 <img src=./images/hexagon_symbol.png style=width:14px;height:14px> 5? <br /><br /> (Remember, to perform <img src=./images/hexagon_symbol.png style=width:14px;height:14px>, you can use the interactive diagram on the right, or perform the operation in your mind. Point the arrow at the first number on the hexagon, then move the arrow the second number of points clockwise around the hexagon. The number the arrow arrives at is your result.)","response_type":"free","response_choices":[],"correct_response":"0","response":"4","explain":false,"explanation":"","explanation_history":[],"orientation_history":[[0],[1.0731812051156675,1.0731812051156675,1.0776006698921967,1.0776006698921967,1.0776006698921967,1.0776006698921967,1.0776006698921967,1.0776006698921967,1.0471975511965976],[2.0798672152172797,2.0798672152172797,2.0798672152172797,2.0798672152172797,2.0798672152172797,2.0798672152172797,2.0798672152172797,2.0798672152172797,2.0943951023931953],[3.087298241681487,3.087298241681487,3.087298241681487,3.0867027909956395,3.0867027909956395,3.0867027909956395,3.141592653589793],[4.16222320003151,4.16222320003151,4.16222320003151,4.16222320003151,4.16222320003151,4.171969480114106,4.1887902047863905],[5.236709692688112,5.236709692688112,5.236709692688112,5.236709692688112,5.236709692688112,5.236709692688112,5.235987755982988]],"response_history":["4"],"rt":7646,"trial_type":"polygon-arrow-question","trial_index":0,"trial_index_global":7,"time_elapsed":201433,"internal_chunk_id":"0-0.3-0"},{"nsides":6,"feedback":"Sorry, that was incorrect. 1 <img src=./images/hexagon_symbol.png style=width:14px;height:14px> 5 = 0 because 5 steps clockwise on the hexagon from 1 brings us to 0","orientation_history":[0,[1.044169055361146,1.044169055361146,1.044169055361146,1.044169055361146,1.044169055361146,1.044169055361146,1.044169055361146,1.044169055361146,1.044169055361146,1.0471975511965976],[2.0831857871056343,2.0831857871056343,2.0831857871056343,2.088578185407583,2.088578185407583,2.088578185407583,2.088578185407583,2.088578185407583,2.088578185407583,2.088578185407583,2.0943951023931953],[3.0711213090109974,3.0711213090109974,3.0711213090109974,3.0828368308740703,3.0828368308740703,3.0828368308740703,3.0828368308740703,3.0828368308740703,3.0828368308740703,3.141592653589793],[4.177115232294531,4.177115232294531,4.177115232294531,4.177115232294531,4.177115232294531,4.177115232294531,4.177115232294531,4.177115232294531,4.177115232294531,4.177115232294531,4.177115232294531,4.1887902047863905],[5.2079406538705175,5.2079406538705175,5.2079406538705175,5.2079406538705175,5.2079406538705175,5.2079406538705175,5.2079406538705175,5.2079406538705175,5.2079406538705175,5.2079406538705175,5.2079406538705175,5.2079406538705175,5.235987755982988],[1.046000555144789,1.046000555144789,1.046000555144789,1.040238439765449,1.040238439765449,1.040238439765449,1.040238439765449,1.040238439765449,1.040238439765449,1.0471975511965976],[2.054745714654921,2.0647376957144776,2.0647376957144776,2.0647376957144776,2.0647376957144776,2.0647376957144776,2.0647376957144776,2.0943951023931953],[3.0910029448204086,3.0910029448204086,3.0910029448204086,3.0910029448204086,3.0910029448204086,3.141592653589793],[4.31386653471827,4.31386653471827,4.31386653471827,4.31386653471827,4.31386653471827,4.31386653471827,4.31386653471827,4.1887902047863905],[5.2360736413809335,5.2360736413809335,5.2360736413809335,5.2360736413809335,5.2360736413809335,5.2360736413809335,5.2360736413809335,5.2360736413809335,5.2360736413809335,5.2360736413809335,5.235987755982988],[0.09647377518258682,0.09647377518258682,0.09647377518258682,0.09647377518258682,0.09647377518258682,0.09647377518258682,0.09647377518258682,0]],"rt":26269,"trial_type":"polygon-arrow-feedback","trial_index":0,"trial_index_global":8,"time_elapsed":227704,"internal_chunk_id":"0-0.3-0"},{"nsides":6,"question":"What is 1 < img src= ./images/hexagon_symbol.png style=width:14px;height:14px> 1? <br /><br /> (Remember, to perform <img src=./images/hexagon_symbol.png style=width:14px;height:14px>, you can use the interactive diagram on the right, or perform the operation in your mind. Point the arrow at the first number on the hexagon, then move the arrow the second number of points clockwise around the hexagon. The number the arrow arrives at is your result.)","response_type":"free","response_choices":[],"correct_response":"2","response":"2","explain":false,"explanation":"","explanation_history":[],"orientation_history":[[0],[1.0379524391755077,1.0379524391755077,1.0475180046629209,1.0475180046629209,1.0475180046629209,1.0475180046629209,1.0475180046629209,1.0475180046629209,1.0475180046629209,1.0471975511965976],[2.0798672152172797,2.0937350903660685,2.1025203940537023,2.1025203940537023,2.1025203940537023,2.1025203940537023,2.0943951023931953]],"response_history":["2"],"rt":5383,"trial_type":"pol ygon-arrow-question","trial_index":0,"trial_index_global":9,"time_elapsed":233088,"internal_chunk_id":"0-0.3-0"},{"nsides":6,"feedback":"Correct! 1 <img src=./images/hexagon_symbol.png style=width:14px;height:14px> 1 = 2 because 1 step clockwise on the hexagon from 1 brings us to 2","orientation_history":[0],"rt":1287,"trial_type":"polygon-arrow-feedback","trial_index":0,"trial_index_global":10,"time_elapsed":234376,"internal_chunk_id":"0-0.3-0"},{"nsides":6,"question":"What is 3 <img src=./images/hexagon_symbol.png style=width:14px;height:14px> 0? <br /><br /> (Remember, to perform <img src=./images/hexagon_symbol.png style=width:14px;height:14px>, you can use the interactive diagram on the right, or perform the operation in your mind. Point the arrow at the first number on the hexagon, then move the arrow the second number of points clockwise around the hexagon. The number the arrow arrives at is your result.)","response_type":"free","response_choices":[],"correct_response":"3","response":"3","explain":false,"explanation":"","explanation_history":[],"orientation_history":[[0],[3.141592653589793,3.141592653589793,3.141592653589793,3.141592653589793,3.152581222272527,3.152581222272527,3.152581222272527,3.152581222272527,3.141592653589793],[4.195905975687962,4.195905975687962,4.195905975687962,4.195905975687962,4.195905975687962,4.195905975687962,4.195905975687962,4.195905975687962,4.195905975687962,4.195905975687962,4.1887902047863905],[3.1909352858427633,3.1909352858427633,3.1909352858427633,3.1909352858427633,3.1909352858427633,3.1909352858427633,3.1909352858427633,3.1909352858427633,3.1909352858427633,3.141592653589793]],"response_history":["3"],"rt":19031,"trial_type":"polygon-arrow-question","trial_index":0,"trial_index_global":11,"time_elapsed":253408,"internal_chunk_id":"0-0.3-0"},{"nsides":6,"feedback":"Correct! 3 <img src=./images/hexagon_symbol.png style=width:14px;height:14px> 0 = 3 because 0 steps clockwise o n the he xagon from 3 brings us to 3","orientation_history":[0],"rt":927,"trial_type":"polygon-arrow-feedback","trial_index":0,"trial_index_global":12,"time_elapsed":254336,"internal_chunk_id":"0-0.3-0"},{"nsides":6,"question":"What is 4 <img src=./images/hexagon_symbol.png style=width:14px;height:14px> 4? <br /><br /> (Remember, to perform <img src=./images/hexagon_symbol.png style=width:14px;height:14px>, you can use the interactive diagram on the right, or perform the operation in your mind. Point the arrow at the first number on the hexagon, then move the arrow the second number of points clockwise around the hexagon. The number the arrow arrives at is your result.)","response_type":"free","response_choices":[],"correct_response":"2","response":"2","explain":false,"explanation":"","explanation_history":[],"orientation_history":[[0],[4.080251018855696,4.080251018855696,4.080251018855696,4.080251018855696,4.080251018855696,4.080251018855696,4.080251018855696,4.080251018855696,4.1887902047863905],[5.134640133835962,5.134640133835962,5.134640133835962,5.134640133835962,5.134640133835962,5.134640133835962,5.134640133835962,5.134640133835962,5.134640133835962,5.235987755982988],[6.225279101931479,6.225279101931479,6.225279101931479,6.225279101931479,6.225279101931479,6.225279101931479,6.225279101931479,6.225279101931479,6.225279101931479,6.283185307179586],[1.0244363023459173,1.0303768265243125,1.0303768265243125,1.0303768265243125,1.0303768265243125,1.0303768265243125,1.0471975511965976],[2.1259749029155013,2.1259749029155013,2.1259749029155013,2.1259749029155013,2.1259749029155013,2.1259749029155013,2.0943951023931953]],"response_history":["2"],"rt":8297,"trial_type":"polygon-arrow-question","trial_index":0,"trial_index_global":13,"time_elapsed":262634,"internal_chunk_id":"0-0.3-0"},{"nsides":6,"feedback":"Correct! 4 <img src=./images/hexagon_symbol.png style=width:14px;height:14px> 4 = 2 because 4 steps clockwise on the hexagon from 4 b rings us  to 2","orientation_history":[0],"rt":1069,"trial_type":"polygon-arrow-feedback","trial_index":0,"trial_index_global":14,"time_elapsed":263704,"internal_chunk_id":"0-0.3-0"},{"nsides":6,"question":"What is 1 <img src=./images/hexagon_symbol.png style=width:14px;height:14px> 3? <br /><br /> (Remember, to perform <img src=./images/hexagon_symbol.png style=width:14px;height:14px>, you can use the interactive diagram on the right, or perform the operation in your mind. Point the arrow at the first number on the hexagon, then move the arrow the second number of points clockwise around the hexagon. The number the arrow arrives at is your result.)","response_type":"free","response_choices":[],"correct_response":"4","response":"4","explain":false,"explanation":"","explanation_history":[],"orientation_history":[[0],[0.9897140279975695,0.9897140279975695,0.9897140279975695,0.9897140279975695,0.9897140279975695,0.9897140279975695,0.9897140279975695,0.9897140279975695,1.0471975511965976],[2.0899424410414196,2.0899424410414196,2.0899424410414196,2.0899424410414196,2.0899424410414196,2.0899424410414196,2.0899424410414196,2.0899424410414196,2.0899424410414196,2.0943951023931953],[3.119374088263074,3.119374088263074,3.119374088263074,3.119374088263074,3.119374088263074,3.119374088263074,3.119374088263074,3.119374088263074,3.141592653589793],[4.0960920429886185,4.0960920429886185,4.0960920429886185,4.0960920429886185,4.0960920429886185,4.0960920429886185,4.0960920429886185,4.0960920429886185,4.1887902047863905]],"response_history":["4"],"rt":7794,"trial_type":"polygon-arrow-question","trial_index":0,"trial_index_global":15,"time_elapsed":271500,"internal_chunk_id":"0-0.3-0"},{"nsides":6,"feedback":"Correct! 1 <img src=./images/hexagon_symbol.png style=width:14px;height:14px> 3 = 4 because 3 steps clockwise on the hexagon from 1 brings us to 4","orientation_history":[0],"rt":905,"trial_type":"polygon-arrow-feedback","trial_index":0,"trial_index_global":16,"time_elapsed":272406,"internal_chunk_id":"0-0.3-0"},{"nsides":6,"question":"What is 4 <img src=./images/hexagon_symbol.png style=width:14px;height:14px> 3? <br /><br /> (Remember, to perform <img src=./images/hexagon_symbol.png style=width:14px;height:14px>, you can use the interactive diagram on the right, or perform the operation in your mind. Point the arrow at the first number on the hexagon, then move the arrow the second number of points clockwise around the hexagon. The number the arrow arrives at is your result.)","response_type":"free","response_choices":[],"correct_response":"1","response":"1","explain":false,"explanation":"","explanation_history":[],"orientation_history":[[0],[4.120949964247135,4.120949964247135,4.120949964247135,4.110735347726364,4.110735347726364,4.110735347726364,4.1887902047863905],[5.176036589385496,5.176036589385496,5.176036589385496,5.176036589385496,5.176036589385496,5.176036589385496,5.176036589385496,5.176036589385496,5.176036589385496,5.176036589385496,5.235987755982988],[0.25132778416084034,0.25132778416084034,0.23860932250820088,0.2258116815433553,0.2258116815433553,0.2258116815433553,0.2258116815433553,0],[1.0284935895792917,1.0284935895792917,1.0284935895792917,1.0379524391755077,1.0379524391755077,1.0379524391755077,1.0379524391755077,1.0471975511965976]],"response_history":["1"],"rt":6290,"trial_type":"polygon-arrow-question","trial_index":0,"trial_index_global":17,"time_elapsed":278696,"internal_chunk_id":"0-0.3-0"},{"nsides":6,"feedback":"Correct! 4 <img src=./images/hexagon_symbol.png style=width:14px;height:14px> 3 = 1 because 3 steps clockwise on the hexagon from 4 brings us to 1","orientation_history":[0],"rt":874,"trial_type":"polygon-arrow-feedback","trial_index":0,"trial_index_global":18,"time_elapsed":279570,"internal_chunk_id":"0-0.3-0"},{"nsides":6,"question":"What is 0 <img src=./images/hexagon_symbol.png style=width:14px;height:14px> 5? <br /><br /> (Remember,  to perf orm <img src=./images/hexagon_symbol.png style=width:14px;height:14px>, you can use the interactive diagram on the right, or perform the operation in your mind. Point the arrow at the first number on the hexagon, then move the arrow the second number of points clockwise around the hexagon. The number the arrow arrives at is your result.)","response_type":"free","response_choices":[],"correct_response":"5","response":"5","explain":false,"explanation":"","explanation_history":[],"orientation_history":[[0],[1.022772410370619,1.022772410370619,1.022772410370619,1.022772410370619,1.022772410370619,1.022772410370619,1.022772410370619,1.022772410370619,1.0471975511965976],[2.0778948311872334,2.0778948311872334,2.0778948311872334,2.0778948311872334,2.0778948311872334,2.0778948311872334,2.0778948311872334,2.0943951023931953],[3.036103345064703,3.0477514409604565,3.0477514409604565,3.0594251312280933,3.0594251312280933,3.0594251312280933,3.0594251312280933,3.141592653589793],[4.127511366664656,4.127511366664656,4.127511366664656,4.127511366664656,4.127511366664656,4.127511366664656,4.1887902047863905],[5.045209193311439,5.045209193311439,5.045209193311439,5.045209193311439,5.045209193311439,5.045209193311439,5.045209193311439,5.235987755982988]],"response_history":["5"],"rt":8282,"trial_type":"polygon-arrow-question","trial_index":0,"trial_index_global":19,"time_elapsed":287853,"internal_chunk_id":"0-0.3-0"},{"nsides":6,"feedback":"Correct! 0 <img src=./images/hexagon_symbol.png style=width:14px;height:14px> 5 = 5 because 5 steps clockwise on the hexagon from 0 brings us to 5","orientation_history":[0],"rt":843,"trial_type":"polygon-arrow-feedback","trial_index":0,"trial_index_global":20,"time_elapsed":288697,"internal_chunk_id":"0-0.3-0"},{"nsides":6,"question":"What is 2 <img src=./images/hexagon_symbol.png style=width:14px;height:14px> 5? <br /><br /> (Remember, to perform <img src=./images/hexagon_symbol.png style=width:14px;hei ght:14px >, you can use the interactive diagram on the right, or perform the operation in your mind. Point the arrow at the first number on the hexagon, then move the arrow the second number of points clockwise around the hexagon. The number the arrow arrives at is your result.)","response_type":"free","response_choices":[],"correct_response":"1","response":"1","explain":false,"explanation":"","explanation_history":[],"orientation_history":[[0],[2.1647690086670015,2.1647690086670015,2.1647690086670015,2.1647690086670015,2.1647690086670015,2.1647690086670015,2.1647690086670015,2.1647690086670015,2.0943951023931953],[3.104110216898132,3.104110216898132,3.104110216898132,3.104110216898132,3.104110216898132,3.104110216898132,3.104110216898132,3.104110216898132,3.141592653589793],[4.102729113672608,4.102729113672608,4.102729113672608,4.102729113672608,4.102729113672608,4.102729113672608,4.102729113672608,4.102729113672608,4.1887902047863905],[5.15356846079967,5.15356846079967,5.15356846079967,5.15356846079967,5.15356846079967,5.15356846079967,5.15356846079967,5.235987755982988],[6.226906770890825,6.226906770890825,6.226906770890825,6.226906770890825,6.226906770890825,6.226906770890825,6.226906770890825,6.283185307179586],[1.0409472573388299,1.0409472573388299,1.0516502125483735,1.0516502125483735,1.0516502125483735,1.0516502125483735,1.0516502125483735,1.0471975511965976]],"response_history":["1"],"rt":7928,"trial_type":"polygon-arrow-question","trial_index":0,"trial_index_global":21,"time_elapsed":296625,"internal_chunk_id":"0-0.3-0"},{"nsides":6,"feedback":"Correct! 2 <img src=./images/hexagon_symbol.png style=width:14px;height:14px> 5 = 1 because 5 steps clockwise on the hexagon from 2 brings us to 1","orientation_history":[0],"rt":937,"trial_type":"polygon-arrow-feedback","trial_index":0,"trial_index_global":22,"time_elapsed":297563,"internal_chunk_id":"0-0.3-0"},{"nsides":6,"question":"What is 3 <img src=./images/hexagon_symbol.png style=width:1 4px;heig ht:14px> 3? <br /><br /> (Remember, to perform <img src=./images/hexagon_symbol.png style=width:14px;height:14px>, you can use the interactive diagram on the right, or perform the operation in your mind. Point the arrow at the first number on the hexagon, then move the arrow the second number of points clockwise around the hexagon. The number the arrow arrives at is your result.)","response_type":"free","response_choices":[],"correct_response":"0","response":"0","explain":false,"explanation":"","explanation_history":[],"orientation_history":[[0],[3.0814244024347834,3.0814244024347834,3.0814244024347834,3.0814244024347834,3.0814244024347834,3.0814244024347834,3.0814244024347834,3.0814244024347834,3.141592653589793],[4.151488173132318,4.151488173132318,4.151488173132318,4.151488173132318,4.151488173132318,4.151488173132318,4.151488173132318,4.1887902047863905],[5.257252895836233,5.257252895836233,5.257252895836233,5.257252895836233,5.257252895836233,5.257252895836233,5.257252895836233,5.257252895836233,5.235987755982988],[0.20349304525756273,0.20349304525756273,0.20349304525756273,0.20349304525756273,0.20349304525756273,0.20349304525756273,0.20349304525756273,0]],"response_history":["0"],"rt":10395,"trial_type":"polygon-arrow-question","trial_index":0,"trial_index_global":23,"time_elapsed":307961,"internal_chunk_id":"0-0.4-0"},{"nsides":6,"feedback":"Correct! 3 <img src=./images/hexagon_symbol.png style=width:14px;height:14px> 3 = 0 because 3 steps clockwise on the hexagon from 3 brings us to 0","orientation_history":[0],"rt":1109,"trial_type":"polygon-arrow-feedback","trial_index":0,"trial_index_global":24,"time_elapsed":309071,"internal_chunk_id":"0-0.4-0"},{"nsides":6,"question":"What is 1 <img src=./images/hexagon_symbol.png style=width:14px;height:14px> 2? <br /><br /> (Remember, to perform <img src=./images/hexagon_symbol.png style=width:14px;height:14px>, you can use the interactive diagram on the right, or perfor m the op eration in your mind. Point the arrow at the first number on the hexagon, then move the arrow the second number of points clockwise around the hexagon. The number the arrow arrives at is your result.)","response_type":"free","response_choices":[],"correct_response":"3","response":"3","explain":false,"explanation":"","explanation_history":[],"orientation_history":[[0],[1.0489620469804861,1.0489620469804861,1.0489620469804861,1.0489620469804861,1.0489620469804861,1.0489620469804861,1.0489620469804861,1.0489620469804861,1.0471975511965976],[2.0778948311872334,2.0778948311872334,2.0778948311872334,2.0778948311872334,2.0778948311872334,2.0778948311872334,2.0778948311872334,2.0778948311872334,2.0778948311872334,2.0778948311872334,2.0778948311872334,2.0778948311872334,2.0943951023931953],[2.9216783783471696,2.9216783783471696,2.9216783783471696,2.9216783783471696,2.9216783783471696,2.9216783783471696,2.9216783783471696,2.9216783783471696,2.9216783783471696,3.141592653589793]],"response_history":["3"],"rt":7295,"trial_type":"polygon-arrow-question","trial_index":0,"trial_index_global":25,"time_elapsed":316367,"internal_chunk_id":"0-0.4-0"},{"nsides":6,"feedback":"Correct! 1 <img src=./images/hexagon_symbol.png style=width:14px;height:14px> 2 = 3 because 2 steps clockwise on the hexagon from 1 brings us to 3","orientation_history":[0],"rt":955,"trial_type":"polygon-arrow-feedback","trial_index":0,"trial_index_global":26,"time_elapsed":317323,"internal_chunk_id":"0-0.4-0"},{"nsides":6,"question":"What is 5 <img src=./images/hexagon_symbol.png style=width:14px;height:14px> 5? <br /><br /> (Remember, to perform <img src=./images/hexagon_symbol.png style=width:14px;height:14px>, you can use the interactive diagram on the right, or perform the operation in your mind. Point the arrow at the first number on the hexagon, then move the arrow the second number of points clockwise around the hexagon. The number the arrow arrives at is your result.) ","response_type":"free","response_choices":[],"correct_response":"4","response":"4","explain":false,"explanation":"","explanation_history":[],"orientation_history":[[0],[5.3796951153630435,5.3796951153630435,5.3796951153630435,5.3796951153630435,5.3796951153630435,5.3796951153630435,5.3796951153630435,5.235987755982988],[6.243206620056296,6.243206620056296,6.243206620056296,6.243206620056296,6.243206620056296,6.243206620056296,6.243206620056296,6.243206620056296,6.283185307179586],[1.0598467502982862,1.0598467502982862,1.0598467502982862,1.0598467502982862,1.0598467502982862,1.0598467502982862,1.0598467502982862,1.0471975511965976],[2.169707588525128,2.169707588525128,2.169707588525128,2.169707588525128,2.169707588525128,2.169707588525128,2.169707588525128,2.0943951023931953],[3.0497465273250555,3.0497465273250555,3.0497465273250555,3.0497465273250555,3.0497465273250555,3.0497465273250555,3.0497465273250555,3.141592653589793],[4.31386653471827,4.31386653471827,4.31386653471827,4.31386653471827,4.31386653471827,4.3091074986658535,4.3091074986658535,4.3091074986658535,4.1887902047863905]],"response_history":["4"],"rt":13513,"trial_type":"polygon-arrow-question","trial_index":0,"trial_index_global":27,"time_elapsed":330836,"internal_chunk_id":"0-0.4-0"},{"nsides":6,"feedback":"Correct! 5 <img src=./images/hexagon_symbol.png style=width:14px;height:14px> 5 = 4 because 5 steps clockwise on the hexagon from 5 brings us to 4","orientation_history":[0],"rt":1694,"trial_type":"polygon-arrow-feedback","trial_index":0,"trial_index_global":28,"time_elapsed":332531,"internal_chunk_id":"0-0.4-0"},{"nsides":6,"question":"What is 4 <img src=./images/hexagon_symbol.png style=width:14px;height:14px> 2? <br /><br /> (Remember, to perform <img src=./images/hexagon_symbol.png style=width:14px;height:14px>, you can use the interactive diagram on the right, or perform the operation in your mind. Point the arrow at the first number on the hexagon, then move t he arrow  the second number of points clockwise around the hexagon. The number the arrow arrives at is your result.)","response_type":"free","response_choices":[],"correct_response":"0","response":"0","explain":false,"explanation":"","explanation_history":[],"orientation_history":[[0],[4.136630662861454,4.136630662861454,4.136630662861454,4.136630662861454,4.136630662861454,4.136630662861454,4.1887902047863905],[5.212829793531984,5.212829793531984,5.212829793531984,5.212829793531984,5.212829793531984,5.212829793531984,5.212829793531984,5.212829793531984,5.212829793531984,5.235987755982988],[6.231283908721413,6.231283908721413,6.231283908721413,6.231283908721413,6.231283908721413,6.231283908721413,6.231283908721413,6.283185307179586]],"response_history":["0"],"rt":30670,"trial_type":"polygon-arrow-question","trial_index":0,"trial_index_global":29,"time_elapsed":363202,"internal_chunk_id":"0-0.4-0"},{"nsides":6,"feedback":"Correct! 4 <img src=./images/hexagon_symbol.png style=wid th:14px; height:14px> 2 = 0 because 2 steps clockwise on the hexagon from 4 brings us to 0","orientation_history":[0],"rt":960,"trial_type":"polygon-arrow-feedback","trial_index":0,"trial_index_global":30,"time_elapsed":364163,"internal_chunk_id":"0-0.4-0"},{"nsides":6,"question":"What is 0 <img src=./images/hexagon_symbol.png style=width:14px;height:14px> 2? <br /><br /> (Remember, to perform <img src=./images/hexagon_symbol.png style=width:14px;height:14px>, you can use the interactive diagram on the right, or perform the operation in your mind. Point the arrow at the first number on the hexagon, then move the arrow the second number of points clockwise around the hexagon. The number the arrow arrives at is your result.)","response_type":"free","response_choices":[],"correct_response":"2","response":"2","explain":false,"explanation":"","explanation_history":[],"orientation_history":[[0],[0.9860510407173348,0.9860510407173348,0.9860510407173348,0.9860510407173348,0.9860510407173348,0.9860510407173348,1.0471975511965976],[1.9114125672132096,1.9114125672132096,1.922613006240583,1.922613006240583,1.922613006240583,1.922613006240583,1.922613006240583,2.0943951023931953]],"response_history":["2"],"rt":5508,"trial_type":"polygon-arrow-question","trial_index":0,"trial_index_global":31,"time_elapsed":369671,"internal_chunk_id":"0-0.4-0"},{"nsides":6,"feedback":"Correct! 0 <img src=./images/hexagon_symbol.png style=width:14px;height:14px> 2 = 2 because 2 steps clockwise on the hexagon from 0 brings us to 2","orientation_history":[0],"rt":965,"trial_type":"polygon-arrow-feedback","trial_index":0,"trial_index_global":32,"time_elapsed":370639,"internal_chunk_id":"0-0.4-0"},{"nsides":6,"question":"What is 3 <img src=./images/hexagon_symbol.png style=width:14px;height:14px> 5? <br /><br /> (Remember, to perform <img src=./images/hexagon_symbol.png style=width:14px;height:14px>, you can use the interactive diagram on the right, or pe rform th e operation in your mind. Point the arrow at the first number on the hexagon, then move the arrow the second number of points clockwise around the hexagon. The number the arrow arrives at is your result.)","response_type":"free","response_choices":[],"correct_response":"2","response":"2","explain":false,"explanation":"","explanation_history":[],"orientation_history":[[0],[2.9965509552631877,2.9965509552631877,2.9965509552631877,2.9965509552631877,2.9965509552631877,2.9965509552631877,3.141592653589793],[4.226766887087221,4.226766887087221,4.232438468065221,4.227354258532154,4.227354258532154,4.227354258532154,4.227354258532154,4.1887902047863905],[5.105149646022011,5.105149646022011,5.105149646022011,5.105149646022011,5.105149646022011,5.105149646022011,5.105149646022011,5.105149646022011,5.235987755982988],[6.126583430197571,6.126583430197571,6.126583430197571,6.126583430197571,6.126583430197571,6.126583430197571,6.126583430197571,6.283185307179586],[0.9246774229342947,0.9246774229342947,0.9246774229342947,0.9246774229342947,0.9246774229342947,0.9246774229342947,0.9246774229342947,1.0471975511965976],[2.0117205749540616,2.0117205749540616,2.0117205749540616,2.0117205749540616,2.0117205749540616,2.0117205749540616,2.0943951023931953]],"response_history":["2"],"rt":6859,"trial_type":"polygon-arrow-question","trial_index":0,"trial_index_global":33,"time_elapsed":377498,"internal_chunk_id":"0-0.4-0"},{"nsides":6,"feedback":"Correct! 3 <img src=./images/hexagon_symbol.png style=width:14px;height:14px> 5 = 2 because 5 steps clockwise on the hexagon from 3 brings us to 2","orientation_history":[0],"rt":837,"trial_type":"polygon-arrow-feedback","trial_index":0,"trial_index_global":34,"time_elapsed":378335,"internal_chunk_id":"0-0.4-0"},{"nsides":6,"question":"What is 1 <img src=./images/hexagon_symbol.png style=width:14px;height:14px> 4? <br /><br /> (Remember, to perform <img src=./images/hexagon_symbol.png style=width:14px;height:14px>, you  can use the interactive diagram on the right, or perform the operation in your mind. Point the arrow at the first number on the hexagon, then move the arrow the second number of points clockwise around the hexagon. The number the arrow arrives at is your result.)","response_type":"free","response_choices":[],"correct_response":"5","response":"5","explain":false,"explanation":"","explanation_history":[],"orientation_history":[[0],[1.0739855252915256,1.0739855252915256,1.0739855252915256,1.0739855252915256,1.0739855252915256,1.0739855252915256,1.0739855252915256,1.0739855252915256,1.0471975511965976],[2.114838999616941,2.114838999616941,2.114838999616941,2.114838999616941,2.114838999616941,2.114838999616941,2.114838999616941,2.114838999616941,2.0943951023931953],[2.8049178342030663,2.8049178342030663,2.8049178342030663,2.8049178342030663,2.8049178342030663,2.8049178342030663,2.8049178342030663,2.8049178342030663,3.141592653589793],[4.143541121963331,4.143541121963331,4.143541121963331,4.143541121963331,4.143541121963331,4.143541121963331,4.143541121963331,4.1887902047863905],[5.270988295728252,5.270988295728252,5.270988295728252,5.270988295728252,5.270988295728252,5.270988295728252,5.270988295728252,5.235987755982988]],"response_history":["5"],"rt":6937,"trial_type":"polygon-arrow-question","trial_index":0,"trial_index_global":35,"time_elapsed":385272,"internal_chunk_id":"0-0.4-0"},{"nsides":6,"feedback":"Correct! 1 <img src=./images/hexagon_symbol.png style=width:14px;height:14px> 4 = 5 because 4 steps clockwise on the hexagon from 1 brings us to 5","orientation_history":[0],"rt":890,"trial_type":"polygon-arrow-feedback","trial_index":0,"trial_index_global":36,"time_elapsed":386162,"internal_chunk_id":"0-0.4-0"},{"nsides":6,"question":"What is 5 <img src=./images/hexagon_symbol.png style=width:14px;height:14px> 1? <br /><br /> (Remember, to perform <img src=./images/hexagon_symbol.png style=width:14px;height:14px>, you can use th e intera ctive diagram on the right, or perform the operation in your mind. Point the arrow at the first number on the hexagon, then move the arrow the second number of points clockwise around the hexagon. The number the arrow arrives at is your result.)","response_type":"free","response_choices":[],"correct_response":"0","response":"0","explain":false,"explanation":"","explanation_history":[],"orientation_history":[[0],[5.242238049840756,5.242238049840756,5.242238049840756,5.242238049840756,5.242238049840756,5.242238049840756,5.242238049840756,5.242238049840756,5.235987755982988],[0,0,0,0,0,0,0]],"response_history":["0"],"rt":5429,"trial_type":"polygon-arrow-question","trial_index":0,"trial_index_global":37,"time_elapsed":391593,"internal_chunk_id":"0-0.4-0"},{"nsides":6,"feedback":"Correct! 5 <img src=./images/hexagon_symbol.png style=width:14px;height:14px> 1 = 0 because 1 step clockwise on the hexagon from 5 brings us to 0","orientation_history":[0],"rt":914,"trial_type":"polygon -arrow-feedback","trial_index":0,"trial_index_global":38,"time_elapsed":392507,"internal_chunk_id":"0-0.4-0"},{"nsides":6,"question":"What is 1 <img src=./images/hexagon_symbol.png style=width:14px;height:14px> 0? <br /><br /> (Remember, to perform <img src=./images/hexagon_symbol.png style=width:14px;height:14px>, you can use the interactive diagram on the right, or perform the operation in your mind. Point the arrow at the first number on the hexagon, then move the arrow the second number of points clockwise around the hexagon. The number the arrow arrives at is your result.)","response_type":"free","response_choices":[],"correct_response":"1","response":"1","explain":false,"explanation":"","explanation_history":[],"orientation_history":[[0],[1.0636978224025597,1.0636978224025597,1.0636978224025597,1.0636978224025597,1.0636978224025597,1.0636978224025597,1.0636978224025597,1.0636978224025597,1.0471975511965976]],"response_history":["2","1"],"rt":7234,"trial_type":" polygon-arrow-question","trial_index":0,"trial_index_global":39,"time_elapsed":399741,"internal_chunk_id":"0-0.4-0"},{"nsides":6,"feedback":"Correct! 1 <img src=./images/hexagon_symbol.png style=width:14px;height:14px> 0 = 1 because 0 steps clockwise on the hexagon from 1 brings us to 1","orientation_history":[0],"rt":8739,"trial_type":"polygon-arrow-feedback","trial_index":0,"trial_index_global":40,"time_elapsed":408481,"internal_chunk_id":"0-0.4-0"},{"nsides":6,"question":"What is 5 <img src=./images/hexagon_symbol.png style=width:14px;height:14px> 2? <br /><br /> (Remember, to perform <img src=./images/hexagon_symbol.png style=width:14px;height:14px>, you can use the interactive diagram on the right, or perform the operation in your mind. Point the arrow at the first number on the hexagon, then move the arrow the second number of points clockwise around the hexagon. The number the arrow arrives at is your result.)","response_type":"free","response_choices":[],"correct_response":"1","response":"1","explain":false,"explanation":"","explanation_history":[],"orientation_history":[[0],[5.284582624392684,5.284582624392684,5.284582624392684,5.284582624392684,5.284582624392684,5.284582624392684,5.284582624392684,5.235987755982988],[6.268900564592189,6.268900564592189,6.268900564592189,6.268900564592189,6.268900564592189,6.268900564592189,6.268900564592189,6.268900564592189,6.283185307179586],[0.9453112865556675,0.9453112865556675,0.9453112865556675,0.9453112865556675,0.9453112865556675,0.9453112865556675,0.9453112865556675,1.0471975511965976]],"response_history":["1"],"rt":4640,"trial_type":"polygon-arrow-question","trial_index":0,"trial_index_global":41,"time_elapsed":413121,"internal_chunk_id":"0-0.4-0"},{"nsides":6,"feedback":"Correct! 5 <img src=./images/hexagon_symbol.png style=width:14px;height:14px> 2 = 1 because 2 steps clockwise on the hexagon from 5 brings us to 1","orientation_history":[0],"rt":738,"trial_type":"po lygon-ar row-feedback","trial_index":0,"trial_index_global":42,"time_elapsed":413860,"internal_chunk_id":"0-0.4-0"},{"nsides":6,"instructions":"Now we're going to discuss a couple special properties of this new operation, <img src=./images/hexagon_symbol.png style=width:14px;height:14px> that we've learned. First, notice that the number 0 behaves in a special way under <img src=./images/hexagon_symbol.png style=width:14px;height:14px>. Whenever we combine 0 with anything else, we get that same thing back. We'll say that 0 is the <i>identity</i> under <img src=./images/hexagon_symbol.png style=width:14px;height:14px>, because when you combine it with something it gives you that identical thing back.","orientation_history":[0],"rt":10361,"trial_type":"polygon-arrow-instructions","trial_index":0,"trial_index_global":43,"time_elapsed":424223,"internal_chunk_id":"0-0"},{"nsides":6,"instructions":"Now that we know 0 is the identity under <img src=./images/hexagon_ symbol.p ng style=width:14px;height:14px>, we're going to make a new definition. We'll say that the <i>inverse</i> of a number is the element that you combine with it to produce the identity under our operation. For example, 5 <img src=./images/hexagon_symbol.png style=width:14px;height:14px> 1 = 0, so we say 1 is the inverse of 5 under <img src=./images/hexagon_symbol.png style=width:14px;height:14px>, (remember 0 is the identity under <img src=./images/hexagon_symbol.png style=width:14px;height:14px>). Similarly, 3 is its own inverse under <img src=./images/hexagon_symbol.png style=width:14px;height:14px>, because 3 <img src=./images/hexagon_symbol.png style=width:14px;height:14px> 3 = 0.","orientation_history":[0],"rt":34217,"trial_type":"polygon-arrow-instructions","trial_index":0,"trial_index_global":44,"time_elapsed":458441,"internal_chunk_id":"0-0"},{"nsides":6,"question":"Now you try! What is the inverse of 4 under <img src=./im ages/hex agon_symbol.png style=width:14px;height:14px>? <br /><br /> (Remember, the inverse of an element is the thing which you combine with it to produce the identity.)","response_type":"free","response_choices":[],"correct_response":"2","response":"3","explain":false,"explanation":"","explanation_history":[],"orientation_history":[[0],[4.141051500551063,4.141051500551063,4.136630662861454,4.124386376837123,4.120418143698089,4.120418143698089,4.120418143698089,4.120418143698089,4.1887902047863905]],"response_history":["3"],"rt":22172,"trial_type":"polygon-arrow-question","trial_index":0,"trial_index_global":45,"time_elapsed":480614,"internal_chunk_id":"0-0.7-0"},{"nsides":6,"feedback":"Sorry, that was incorrect. The inverse of 4 under <img src=./images/hexagon_symbol.png style=width:14px;height:14px> is 2 because 4 <img src=./images/hexagon_symbol.png style=width:14px;height:14px> 2 = 0, and 0 is the identity under <img src=./images/hexagon_symbol.png styl e=widt h:14px;height:14px>.","orientation_history":[0,[4.0995687782194485,4.0995687782194485,4.0995687782194485,4.0995687782194485,4.0995687782194485,4.0995687782194485,4.0995687782194485,4.0995687782194485,4.0995687782194485,4.0995687782194485,4.1887902047863905],[5.272748857289533,5.272748857289533,5.272748857289533,5.272748857289533,5.272748857289533,5.272748857289533,5.272748857289533,5.272748857289533,5.235987755982988],[6.256164857992322,6.256164857992322,6.256164857992322,6.256164857992322,6.256164857992322,6.256164857992322,6.256164857992322,6.256164857992322,6.256164857992322,6.256164857992322,6.283185307179586],[3.937743090778343,3.937743090778343,3.937743090778343,3.937743090778343,3.937743090778343,3.937743090778343,3.937743090778343,3.937743090778343,4.1887902047863905],[5.217679168484084,5.217679168484084,5.217679168484084,5.217679168484084,5.217679168484084,5.217679168484084,5.217679168484084,5.235987755982988],[0.13706617431018753,0.13706617431018753,0.13706617431018753,0.13706617431018753,0.13706617431018753,0.13706617431018753,0.13706617431018753,0.13706617431018753,0]],"rt":35140,"trial_type":"polygon-arrow-feedback","trial_index":0,"trial_index_global":46,"time_elapsed":515754,"internal_chunk_id":"0-0.7-0"},{"nsides":6,"question":"What is the inverse of 1 under <img src=./images/hexagon_symbol.png style=width:14px;height:14px>? <br /><br /> (Remember, the inverse of an element is the thing which you combine with it to produce the identity.)","response_type":"free","response_choices":[],"correct_response":"5","response":"5","explain":false,"explanation":"","explanation_history":[],"orientation_history":[[0],[0.9859187130748626,0.9859187130748626,0.9859187130748626,0.9859187130748626,0.9859187130748626,0.9859187130748626,1.0471975511965976],[2.109018028406375,2.109018028406375,2.109018028406375,2.109018028406375,2.109018028406375,2.109018028406375,2.109018028406375,2.109018028406375,2.0943951023931953],[2.697809980840152,2.70408288147234,2.70408288147234,2.723368324010564,2.723368324010564,2.723368324010564,2.723368324010564,3.141592653589793],[4.189985548668162,4.189985548668162,4.189985548668162,4.189985548668162,4.189985548668162,4.189985548668162,4.189985548668162,4.1887902047863905],[5.278090449040867,5.278090449040867,5.278090449040867,5.278090449040867,5.278090449040867,5.278090449040867,5.235987755982988],[0.07982998571223732,0.07982998571223732,0.07982998571223732,0.07982998571223732,0.07982998571223732,0.07982998571223732,0]],"response_history":["5"],"rt":7499,"trial_type":"polygon-arrow-question","trial_index":0,"trial_index_global":47,"time_elapsed":523254,"internal_chunk_id":"0-0.7-0"},{"nsides":6,"feedback":"Correct! The inverse of 1 under <img src=./images/hexagon_symbol.png style=width:14px;height:14px> is 5 because 1 <img src=./images/hexagon_symbol.png style=width:14px;height:14px> 5 = 0, and 0 is the identity under <img src=./images/hexagon_symbol.png style=width:14px; height:1 4px>.","orientation_history":[0],"rt":828,"trial_type":"polygon-arrow-feedback","trial_index":0,"trial_index_global":48,"time_elapsed":524082,"internal_chunk_id":"0-0.7-0"},{"nsides":6,"question":"What is the inverse of 3 under <img src=./images/hexagon_symbol.png style=width:14px;height:14px>? <br /><br /> (Remember, the inverse of an element is the thing which you combine with it to produce the identity.)","response_type":"free","response_choices":[],"correct_response":"3","response":"3","explain":false,"explanation":"","explanation_history":[],"orientation_history":[[0],[2.9175690065518696,2.9175690065518696,2.9175690065518696,2.9175690065518696,2.9175690065518696,2.9175690065518696,2.9175690065518696,3.141592653589793],[4.077362244994376,4.077362244994376,4.077362244994376,4.077362244994376,4.077362244994376,4.077362244994376,4.077362244994376,4.077362244994376,4.1887902047863905],[5.362259429796637,5.362259429796637,5.362259429796637,5.362259429796637,5.362259429796637,5.362259429796637,5.362259429796637,5.235987755982988],[6.247486194500262,6.247486194500262,6.247056456666811,6.247056456666811,6.247056456666811,6.247056456666811,6.247056456666811,6.283185307179586]],"response_history":["5","3"],"rt":8656,"trial_type":"polygon-arrow-question","trial_index":0,"trial_index_global":49,"time_elapsed":532738,"internal_chunk_id":"0-0.7-0"},{"nsides":6,"feedback":"Correct! The inverse of 3 under <img src=./images/hexagon_symbol.png style=width:14px;height:14px> is 3 because 3 <img src=./images/hexagon_symbol.png style=width:14px;height:14px> 3 = 0, and 0 is the identity under <img src=./images/hexagon_symbol.png style=width:14px;height:14px>.","orientation_history":[0],"rt":852,"trial_type":"polygon-arrow-feedback","trial_index":0,"trial_index_global":50,"time_elapsed":533590,"internal_chunk_id":"0-0.7-0"},{"nsides":6,"question":"What is the inverse of 2 under <img src=./images/hexagon_symbol.png style=width:14px;h eight:14 px>? <br /><br /> (Remember, the inverse of an element is the thing which you combine with it to produce the identity.)","response_type":"free","response_choices":[],"correct_response":"4","response":"4","explain":false,"explanation":"","explanation_history":[],"orientation_history":[[0],[2.2094312939488816,2.2094312939488816,2.2094312939488816,2.2094312939488816,2.2094312939488816,2.2094312939488816,2.2094312939488816,2.0943951023931953],[2.9805007490522124,2.9805007490522124,2.992702705980296,2.992702705980296,2.992702705980296,3.141592653589793],[4.226766887087221,4.226766887087221,4.226766887087221,4.226766887087221,4.226766887087221,4.226766887087221,4.226766887087221,4.1887902047863905],[5.104729124600206,5.104729124600206,5.104729124600206,5.104729124600206,5.104729124600206,5.104729124600206,5.104729124600206,5.235987755982988],[0.22208190190548005,0.22208190190548005,0.22208190190548005,0.22208190190548005,0.21866894587394192,0.21866894587394192,0.215357699697738,0.215357699697738,0]],"response_history":["4"],"rt":7264,"trial_type":"polygon-arrow-question","trial_index":0,"trial_index_global":51,"time_elapsed":540854,"internal_chunk_id":"0-0.7-0"},{"nsides":6,"feedback":"Correct! The inverse of 2 under <img src=./images/hexagon_symbol.png style=width:14px;height:14px> is 4 because 2 <img src=./images/hexagon_symbol.png style=width:14px;height:14px> 4 = 0, and 0 is the identity under <img src=./images/hexagon_symbol.png style=width:14px;height:14px>.","orientation_history":[0],"rt":20326,"trial_type":"polygon-arrow-feedback","trial_index":0,"trial_index_global":52,"time_elapsed":561180,"internal_chunk_id":"0-0.7-0"},{"nsides":6,"question":"What is the inverse of 0 under <img src=./images/hexagon_symbol.png style=width:14px;height:14px>? <br /><br /> (Remember, the inverse of an element is the thing which you combine with it to produce the identity.)","response_type":"free","response_choices":[],"correct_response":"0","response":"0","explain":false,"explanation":"","explanation_history":[],"orientation_history":[[0],[0.982793723247329,0.982793723247329,0.9897140279975695,0.9897140279975695,0.9897140279975695,0.9897140279975695,0.9897140279975695,1.0471975511965976],[1.8633580931987441,1.8633580931987441,1.8853006312116416,1.8961569738115387,1.8961569738115387,1.8961569738115387,2.0943951023931953],[2.799436768506613,2.799436768506613,2.799436768506613,2.799436768506613,2.799436768506613,2.799436768506613,2.799436768506613,3.141592653589793],[4.095197588844328,4.095197588844328,4.095197588844328,4.095197588844328,4.095197588844328,4.095197588844328,4.095197588844328,4.1887902047863905],[5.1294382223731745,5.1294382223731745,5.1294382223731745,5.1294382223731745,5.1294382223731745,5.1294382223731745,5.235987755982988],[6.212713962600791,6.212713962600791,6.212713962600791,6.212713962600791,6.212713962600791,6.212713962600791,6.212713962600791,6.212713962600791,6.283185307179586]],"response_history":["0"],"rt":11274,"trial_type":"polygon-arrow-question","trial_index":0,"trial_index_global":53,"time_elapsed":572455,"internal_chunk_id":"0-0.7-0"},{"nsides":6,"feedback":"Correct! The inverse of 0 under <img src=./images/hexagon_symbol.png style=width:14px;height:14px> is 0 because 0 <img src=./images/hexagon_symbol.png style=width:14px;height:14px> 0 = 0, and 0 is the identity under <img src=./images/hexagon_symbol.png style=width:14px;height:14px>.","orientation_history":[0],"rt":677,"trial_type":"polygon-arrow-feedback","trial_index":0,"trial_index_global":54,"time_elapsed":573133,"internal_chunk_id":"0-0.7-0"},{"instructions":"It is also possible to successively apply <img src=./images/hexagon_symbol.png style=width:14px;height:14px>, and the operation can simply be performed starting with the left-most pair. For example, 2 <img src=./images/hexagon_symbol.png style=width:14px;height:14px> 3 <img src=./images/hexagon_symbol.png style= width:14px;height:14px> 4 = 5 <img src=./images/hexagon_symbol.png style=width:14px;height:14px> 4 = 3.","rt":37195,"trial_type":"instructions","trial_index":0,"trial_index_global":55,"time_elapsed":610329,"internal_chunk_id":"0-0"},{"nsides":6,"instructions":"We have one last definition to learn today, using the successive operations we just learned. Let's start with an example. Under our operation <img src=./images/hexagon_symbol.png style=width:14px;height:14px> we can make every other number using just 1: 2 = 1 <img src=./images/hexagon_symbol.png style=width:14px;height:14px> 1, 3 = 1 <img src=./images/hexagon_symbol.png style=width:14px;height:14px> 1 <img src=./images/hexagon_symbol.png style=width:14px;height:14px> 1, 4 = 1 <img src=./images/hexagon_symbol.png style=width:14px;height:14px> 1 <img src=./images/hexagon_symbol.png style=width:14px;height:14px> 1 <img src=./images/hexagon_symbol.png style= width:14 px;height:14px> 1, 5 = 1 <img src=./images/hexagon_symbol.png style=width:14px;height:14px> 1 <img src=./images/hexagon_symbol.png style=width:14px;height:14px> 1 <img src=./images/hexagon_symbol.png style=width:14px;height:14px> 1 <img src=./images/hexagon_symbol.png style=width:14px;height:14px> 1, and 0 = 1 <img src=./images/hexagon_symbol.png style=width:14px;height:14px> 1 <img src=./images/hexagon_symbol.png style=width:14px;height:14px> 1 <img src=./images/hexagon_symbol.png style=width:14px;height:14px> 1 <img src=./images/hexagon_symbol.png style=width:14px;height:14px> 1 <img src=./images/hexagon_symbol.png style=width:14px;height:14px> 1. Because 1 can make every other element under <img src=./images/hexagon_symbol.png style=width:14px;height:14px>, we say that 1 is a <i>generator</i> under <img src=./images/hexagon_symbol.png style=width:14px;height:14px>. <br /><br /> Howev er, 2 is  not a generator under <img src=./images/hexagon_symbol.png style=width:14px;height:14px>, because 4 = 2 <img src=./images/hexagon_symbol.png style=width:14px;height:14px> 2, and 0 = 2 <img src=./images/hexagon_symbol.png style=width:14px;height:14px> 2 <img src=./images/hexagon_symbol.png style=width:14px;height:14px> 2, but there is no way to make 1, 3, or 5 using just 2.","orientation_history":[0],"rt":13795,"trial_type":"polygon-arrow-instructions","trial_index":0,"trial_index_global":56,"time_elapsed":624125,"internal_chunk_id":"0-0"},{"nsides":6,"question":"Now you try! Is 3 a generator under <img src=./images/hexagon_symbol.png style=width:14px;height:14px>? <br /><br /> (Remember, a generator is an element which can make every other element.)","response_type":"multi","response_choices":["Yes","No"],"correct_response":"No","response":"No","explain":false,"explanation":"","explanation_history":[],"orientation_history":[[0]],"response_history":["No"],"rt":6843,"trial_type":"polygon-arrow-question","trial_index":0,"trial_index_global":57,"time_elapsed":630969,"internal_chunk_id":"0-0.10-0"},{"nsides":6,"feedback":"Correct! 3 is not a generator under <img src=./images/hexagon_symbol.png style=width:14px;height:14px>, because 3 = 3, 0 = 3 <img src=./images/hexagon_symbol.png style=width:14px;height:14px> 3, but there is no way to make 1, 2, 4, or 5 using just 3.","orientation_history":[0],"rt":771,"trial_type":"polygon-arrow-feedback","trial_index":0,"trial_index_global":58,"time_elapsed":631741,"internal_chunk_id":"0-0.10-0"},{"nsides":6,"question":"Is 5 a generator under <img src=./images/hexagon_symbol.png style=width:14px;height:14px>? <br /><br /> (Remember, a generator is an element which can make every other element.)","response_type":"multi","response_choices":["Yes","No"],"correct_response":"Yes","response":"Yes","explain":false,"explanation":"","explanation_history":[],"orientation_history":[[0]],"response_history":["Yes"],"rt":3014,"trial_type":"polygon-arrow-question","trial_index":0,"trial_index_global":59,"time_elapsed":634755,"internal_chunk_id":"0-0.10-0"},{"nsides":6,"feedback":"Correct! 5 is a generator under <img src=./images/hexagon_symbol.png style=width:14px;height:14px>, because 5 = 5, 4 = 5 <img src=./images/hexagon_symbol.png style=width:14px;height:14px> 5, 3 = 5 <img src=./images/hexagon_symbol.png style=width:14px;height:14px> 5 <img src=./images/hexagon_symbol.png style=width:14px;height:14px> 5, 2 = 5 <img src=./images/hexagon_symbol.png style=width:14px;height:14px> 5 <img src=./images/hexagon_symbol.png style=width:14px;height:14px> 5 <img src=./images/hexagon_symbol.png style=width:14px;height:14px> 5, 1 = 5 <img src=./images/hexagon_symbol.png style=width:14px;height:14px> 5 <img src=./images/hexagon_symbol.png style=width:14px;height:14px> 5 <img src=./image s/hexago n_symbol.png style=width:14px;height:14px> 5 <img src=./images/hexagon_symbol.png style=width:14px;height:14px> 5, and 0 = 5 <img src=./images/hexagon_symbol.png style=width:14px;height:14px> 5 <img src=./images/hexagon_symbol.png style=width:14px;height:14px> 5 <img src=./images/hexagon_symbol.png style=width:14px;height:14px> 5 <img src=./images/hexagon_symbol.png style=width:14px;height:14px> 5 <img src=./images/hexagon_symbol.png style=width:14px;height:14px> 5, so you can make all of the numbers under <img src=./images/hexagon_symbol.png style=width:14px;height:14px> using 5","orientation_history":[0],"rt":792,"trial_type":"polygon-arrow-feedback","trial_index":0,"trial_index_global":60,"time_elapsed":635547,"internal_chunk_id":"0-0.10-0"},{"nsides":6,"question":"Is 4 a generator under <img src=./images/hexagon_symbol.png style=width:14px;height:14px>? <br /><br /> (Remember, a generator is an element  which c an make every other element.)","response_type":"multi","response_choices":["Yes","No"],"correct_response":"No","response":"Yes","explain":false,"explanation":"","explanation_history":[],"orientation_history":[[0]],"response_history":["Yes"],"rt":2844,"trial_type":"polygon-arrow-question","trial_index":0,"trial_index_global":61,"time_elapsed":638391,"internal_chunk_id":"0-0.10-0"},{"nsides":6,"feedback":"Sorry, that's incorrect. 4 is not a generator under <img src=./images/hexagon_symbol.png style=width:14px;height:14px>, because 4 = 4, 2 = 4 <img src=./images/hexagon_symbol.png style=width:14px;height:14px> 4, and 0 = 4 <img src=./images/hexagon_symbol.png style=width:14px;height:14px> 4 <img src=./images/hexagon_symbol.png style=width:14px;height:14px> 4, but there is no way to make 1, 3, or 5 using just 4.","orientation_history":[0],"rt":780,"trial_type":"polygon-arrow-feedback","trial_index":0,"trial_index_global":62,"time_elapsed":639171,"internal_chunk_id":"0-0.10-0"},{"nsides":6,"question":"Is 0 a generator under <img src=./images/hexagon_symbol.png style=width:14px;height:14px>? <br /><br /> (Remember, a generator is an element which can make every other element.)","response_type":"multi","response_choices":["Yes","No"],"correct_response":"No","response":"Yes","explain":false,"explanation":"","explanation_history":[],"orientation_history":[[0]],"response_history":["Yes"],"rt":3679,"trial_type":"polygon-arrow-question","trial_index":0,"trial_index_global":63,"time_elapsed":642851,"internal_chunk_id":"0-0.10-0"},{"nsides":6,"feedback":"Sorry, that's incorrect. 0 is not a generator under <img src=./images/hexagon_symbol.png style=width:14px;height:14px>, because 0 = 0, but there is no way to make 1, 2, 3, 4, or 5 using just 0.","orientation_history":[0],"rt":853,"trial_type":"polygon-arrow-feedback","trial_index":0,"trial_index_global":64,"time_elapsed":643704,"internal_chunk_id":"0-0.10-0"},{"nsides":9,"instructions":"Now we are going to ask you some questions about a new operation, <img src=./images/nonagon_symbol.png style=width:14px;height:14px>, on the numbers 0, 1, 2, 3, 4, 5, 6, 7, 8. It works exactly like <img src=./images/hexagon_symbol.png style=width:14px;height:14px>, except now you use the nonagon shown at the right. <br /><br />Do you see how <img src=./images/nonagon_symbol.png style=width:14px;height:14px> works just like <img src=./images/hexagon_symbol.png style=width:14px;height:14px>? By labeling the points of the nonagon with the numbers from 0 to 8, we ensure that when we combine two numbers under <img src=./images/nonagon_symbol.png style=width:14px;height:14px>, we only produce numbers between 0 and 8. <br /><br />We'll give you one practice question with feedback to make sure you understand the new operation. After that, try to complete the remaining questions as accurately as possible.","orientation_history":[0],"rt":9653,"trial_type":"polygon-arrow-instructions","trial_index":0,"trial_index_global":65,"time_elapsed":653358,"internal_chunk_id":"0-0"},{"nsides":9,"question":"Practice: What is 5 <img src=./images/nonagon_symbol.png style=width:14px;height:14px> 5?","response_type":"free","response_choices":[],"correct_response":"1","response":"0","explain":false,"explanation":"","explanation_history":[],"orientation_history":[[0],[3.456350314981102,3.456350314981102,3.456350314981102,3.456350314981102,3.456350314981102,3.456350314981102,3.490658503988659]],"response_history":["0"],"rt":6828,"trial_type":"polygon-arrow-question","trial_index":0,"trial_index_global":66,"time_elapsed":660187,"internal_chunk_id":"0-0.12-0"},{"nsides":9,"feedback":"Sorry, that was incorrect. 5 <img src=./images/nonagon_symbol.png style=width:14px;height:14px> 5 = 1 because 5 steps clockwise on the nonagon from 5 brings us to 1","orientation_history":[0],"rt":6693,"trial_type":"polygon-arrow-feedback ","trial_index":0,"trial_index_global":67,"time_elapsed":666881,"internal_chunk_id":"0-0.12-0"},{"nsides":9,"question":"What is 3 <img src=./images/nonagon_symbol.png style=width:14px;height:14px> 3?","response_type":"free","response_choices":[],"correct_response":"6","response":"1","explain":false,"explanation":"","explanation_history":[],"orientation_history":[[0]],"response_history":["1"],"rt":4662,"trial_type":"polygon-arrow-question","trial_index":0,"trial_index_global":68,"time_elapsed":671545,"internal_chunk_id":"0-0.12-0"},{"nsides":9,"question":"What is 7 <img src=./images/nonagon_symbol.png style=width:14px;height:14px> 4?","response_type":"free","response_choices":[],"correct_response":"2","response":"2","explain":false,"explanation":"","explanation_history":[],"orientation_history":[[0],[4.9295002951195945,4.9295002951195945,4.9295002951195945,4.9295002951195945,4.9295002951195945,4.9295002951195945,4.9295002951195945,4.9295002951195945,4.886921905584122],[5.599475995545214,5.599475995545214,5.599475995545214,5.599475995545214,5.599475995545214,5.599475995545214,5.599475995545214,5.599475995545214,5.599475995545214,5.585053606381854],[6.252425781109117,6.252425781109117,6.252425781109117,6.252425781109117,6.267801905398991,6.267801905398991,6.267801905398991,6.267801905398991,6.267801905398991,6.283185307179586],[0.7490505423784276,0.7490505423784276,0.7490505423784276,0.7490505423784276,0.7490505423784276,0.7490505423784276,0.7490505423784276,0.7490505423784276,0.6981317007977318],[1.4056476493802696,1.4056476493802696,1.4056476493802696,1.4056476493802696,1.4056476493802696,1.4056476493802696,1.4056476493802696,1.3962634015954636]],"response_history":["2"],"rt":9834,"trial_type":"polygon-arrow-question","trial_index":0,"trial_index_global":69,"time_elapsed":681381,"internal_chunk_id":"0-0.12-0"},{"nsides":9,"question":"What is 1 <img src=./images/nonagon_symbol.png style=width:14px;height:14px> 8?","response_type":"free","response_choices":[],"correct_response":"0","response":"0","explain":false,"explanation":"","explanation_history":[],"orientation_history":[[0],[0.7756897305633393,0.7756897305633393,0.7756897305633393,0.7756897305633393,0.7756897305633393,0.7756897305633393,0.7756897305633393,0.7756897305633393,0.7756897305633393,0.6981317007977318],[1.3639223778151535,1.3639223778151535,1.3639223778151535,1.3639223778151535,1.3639223778151535,1.3639223778151535,1.3639223778151535,1.3780955681325109,1.3962634015954636],[2.0800974707969084,2.0800974707969084,2.0800974707969084,2.0800974707969084,2.0800974707969084,2.0800974707969084,2.0800974707969084,2.0943951023931953],[2.776074447397897,2.776074447397897,2.776074447397897,2.776074447397897,2.776074447397897,2.776074447397897,2.776074447397897,2.776074447397897,2.792526803190927],[3.580854853417881,3.580854853417881,3.580854853417881,3.580854853417881,3.580854853417881,3.580854853417881,3.580854853417881,3.580854853417881,3.490658503988659],[4.207527608725563,4.207527608725563,4.201900658467914,4.196158309772942,4.196158309772942,4.196158309772942,4.1887902047863905],[4.7826954445033145,4.7826954445033145,4.7826954445033145,4.7826954445033145,4.7826954445033145,4.7826954445033145,4.7826954445033145,4.7826954445033145,4.886921905584122],[5.541238039173669,5.541238039173669,5.541238039173669,5.541238039173669,5.541238039173669,5.541238039173669,5.585053606381854],[6.191138458316179,6.191138458316179,6.191138458316179,6.191138458316179,6.191138458316179,6.191138458316179,6.283185307179586]],"response_history":["0"],"rt":10562,"trial_type":"polygon-arrow-question","trial_index":0,"trial_index_global":70,"time_elapsed":691943,"internal_chunk_id":"0-0.12-0"},{"nsides":9,"question":"What is 5 <img src=./images/nonagon_symbol.png style=width:14px;height:14px> 4?","response_type":"free","response_choices":[],"correct_response":"0","response":"0","explain":false,"explanation":"","explanation_history":[],"orientation_history":[[0],[3.466953300606435,3.466953300606435,3.466953300606435,3.466953300606435,3.466953300606435,3.466953300606435,3.466953300606435,3.490658503988659],[4.275761820571148,4.275761820571148,4.275761820571148,4.275761820571148,4.275761820571148,4.275761820571148,4.275761820571148,4.275761820571148,4.1887902047863905],[4.877537657799317,4.877537657799317,4.877537657799317,4.877537657799317,4.877537657799317,4.877537657799317,4.877537657799317,4.877537657799317,4.886921905584122],[5.440158716304664,5.440158716304664,5.440158716304664,5.440158716304664,5.440158716304664,5.440158716304664,5.440158716304664,5.585053606381854],[0.029841884667109353,0.029841884667109353,0.029841884667109353,0.029841884667109353,0.029841884667109353,0.029841884667109353,0.029841884667109353,0.029841884667109353,0]],"response_history":["0"],"rt":7116,"trial_type":"polygon-arrow-question","trial_index":0,"trial_index_global":71,"time_elapsed":699060,"internal_chunk_id":"0-0.12-0"},{"nsides":9,"question":"What is  6 <img s rc=./images/nonagon_symbol.png style=width:14px;height:14px> 6?","response_type":"free","response_choices":[],"correct_response":"3","response":"3","explain":false,"explanation":"","explanation_history":[],"orientation_history":[[0],[4.134949364240176,4.134949364240176,4.134949364240176,4.134949364240176,4.134949364240176,4.134949364240176,4.134949364240176,4.134949364240176,4.1887902047863905],[5.29146324975242,5.29146324975242,5.29146324975242,5.29146324975242,5.29146324975242,5.274310542641505,5.585053606381854],[4.929682411307711,4.929682411307711,4.929682411307711,4.929682411307711,4.929682411307711,4.929682411307711,4.929682411307711,4.886921905584122],[5.4872612167504125,5.4872612167504125,5.4872612167504125,5.4872612167504125,5.4872612167504125,5.4872612167504125,5.4872612167504125,5.585053606381854],[0.03123983343026815,0.03123983343026815,0.03123983343026815,0.03123983343026815,0.03123983343026815,0.03123983343026815,0],[0.7411792190017954,0.7411792190017954,0.7411792190017954,0.7411792190017954,0.7411792190017954,0.7411792190017954,0.7411792190017954,0.6981317007977318],[1.3194685426340562,1.3194685426340562,1.3194685426340562,1.3194685426340562,1.3194685426340562,1.3194685426340562,1.3962634015954636],[2.0238623201746266,2.0238623201746266,2.0238623201746266,2.0344439357957027,2.0344439357957027,2.0344439357957027,2.0344439357957027,2.0344439357957027,2.0943951023931953]],"response_history":["3"],"rt":13561,"trial_type":"polygon-arrow-question","trial_index":0,"trial_index_global":72,"time_elapsed":712622,"internal_chunk_id":"0-0.12-0"},{"nsides":9,"instructions":"On the following question, and several others later in the HIT, we will ask you to explain how you got your answer. On these questions, you will be given one box for your answer to the question, and a second for your explanation. Please explain your thought process in as much detail as possible (at least one sentence, and more if you can).","orientation_history":[0],"rt":7593,"trial_type":"polygon-arrow-instructions","trial_index":0,"trial_index_global":73,"time_elapsed":720216,"internal_chunk_id":"0-0.12-0"},{"nsides":9,"question":"What is 4 <img src=./images/nonagon_symbol.png style=width:14px;height:14px> 1? Please explain in words how you got your answer.","response_type":"free","response_choices":[],"correct_response":"5","response":"1","explain":true,"explanation":"1 step from 4 is 5","explanation_history":["1 STE","1 ST","1 S","1 step from 4 is 5"],"orientation_history":[[0],[2.7394786379380305,2.7394786379380305,2.7394786379380305,2.7394786379380305,2.7394786379380305,2.7394786379380305,2.7394786379380305,2.792526803190927],[3.4838882620198355,3.4838882620198355,3.4838882620198355,3.4838882620198355,3.4838882620198355,3.4838882620198355,3.4838882620198355,3.490658503988659]],"response_history":["1"],"rt":19737,"trial_type":"polygon-arrow-question","trial_index":0,"trial_index_global":74,"time_elapsed":739954,"internal_chunk_id":"0-0.1 2-0"},{"nsides":9,"question":"What is 8 <img src=./images/nonagon_symbol.png style=width:14px;height:14px> 4? Please explain in words how you got your answer.","response_type":"free","response_choices":[],"correct_response":"3","response":"3","explain":true,"explanation":"4 steps from 8 is 3","explanation_history":["8 steps from","4 steps from  8","4 steps from  ","4 steps from 8 is 3"],"orientation_history":[[0],[5.880530653627713,5.880530653627713,5.880530653627713,5.880530653627713,5.880530653627713,5.880530653627713,5.880530653627713,5.585053606381854],[0.07919907096945145,0.07919907096945145,0.07919907096945145,0.07919907096945145,0.07919907096945145,0.06241880999595728,0.06241880999595728,0.06241880999595728,0.06241880999595728,0],[0.5917761705415029,0.5917761705415029,0.5917761705415029,0.5917761705415029,0.5917761705415029,0.5917761705415029,0.6981317007977318],[1.3521273809209546,1.3521273809209546,1.3521273809209546,1.3521273809209546,1.3521273809209546,1.3521273809209546,1.3962634015954636],[2.1072317843996275,2.1072317843996275,2.1072317843996275,2.1072317843996275,2.1072317843996275,2.1072317843996275,2.0943951023931953]],"response_history":["3"],"rt":20755,"trial_type":"polygon-arrow-question","trial_index":0,"trial_index_global":75,"time_elapsed":760709,"internal_chunk_id":"0-0.12-0"},{"nsides":9,"question":"What is the identity under <img src=./images/nonagon_symbol.png style=width:14px;height:14px>? Please explain in words how you got your answer.","response_type":"free","response_choices":[],"correct_response":"0","response":"2","explain":true,"explanation":"2 steps from under 9 is 2","explanation_history":["2 steps from under 9 us 2","2 steps from under 9 s 2","2 steps from under 9 is 2"],"orientation_history":[[0],[1.3990361754666933,1.3990361754666933,1.3990361754666933,1.3990361754666933,1.3990361754666933,1.3990361754666933,1.3962634015954636]],"response_history":["2"],"rt":19375,"trial_type":"polygon-arrow-question","trial_index":0,"trial_index_global":76,"time_elapsed":780085,"internal_chunk_id":"0-0.12-0"},{"nsides":9,"question":"What is the inverse of 5 under <img src=./images/nonagon_symbol.png style=width:14px;height:14px>?","response_type":"free","response_choices":[],"correct_response":"4","response":"4","explain":false,"explanation":"","explanation_history":[],"orientation_history":[[0],[3.4595409449410846,3.4595409449410846,3.4595409449410846,3.4595409449410846,3.4595409449410846,3.4595409449410846,3.4595409449410846,3.4595409449410846,3.4595409449410846,3.4595409449410846,3.4595409449410846,3.490658503988659],[4.065875832507455,4.065875832507455,4.065875832507455,4.065875832507455,4.065875832507455,4.065875832507455,4.065875832507455,4.1887902047863905],[4.915434197638154,4.915434197638154,4.915434197638154,4.915434197638154,4.915434197638154,4.915434197638154,4.915434197638154,4.915434197638154,4.886921905584122],[5.497787143782138,5.497787143782138,5.497787143782138,5.497787143782138,5.497787143782138,5.497787143782138,5.585053606381854],[5.983653318109663,5.983653318109663,5.983653318109663,5.983653318109663,5.983653318109663,5.983653318109663,5.983653318109663,5.983653318109663,5.983653318109663,6.283185307179586]],"response_history":["4"],"rt":11693,"trial_type":"polygon-arrow-question","trial_index":0,"trial_index_global":77,"time_elapsed":791779,"internal_chunk_id":"0-0.12-0"},{"nsides":9,"question":"What is the inverse of 2 under <img src=./images/nonagon_symbol.png style=width:14px;height:14px>?","response_type":"free","response_choices":[],"correct_response":"7","response":"7","explain":false,"explanation":"","explanation_history":[],"orientation_history":[[0],[1.4181469983996313,1.4181469983996313,1.4181469983996313,1.4181469983996313,1.4181469983996313,1.4181469983996313,1.4181469983996313,1.4164775508687775,1.4164775508687775,1.4164775508687775,1.3962634015954636],[2.008808527274025,2.008808527274025,2.008808527274025,2.008808527274025,2.008808527274025,2.008808527274025,2.008808527274025,2.008808527274025,2.0039964952265317,2.0943951023931953],[2.557148753880442,2.557148753880442,2.557148753880442,2.5679259854216325,2.57885543082871,2.57885543082871,2.57885543082871,2.5857218444356356,2.792526803190927],[3.4125395039282136,3.425386762798121,3.425386762798121,3.4381384626594937,3.4381384626594937,3.4381384626594937,3.490658503988659],[3.997051399625697,3.997051399625697,3.9888586628516216,3.9888586628516216,3.9888586628516216,3.9888586628516216,4.1887902047863905],[4.948634241103127,4.948634241103127,4.948634241103127,4.948634241103127,4.948634241103127,4.948634241103127,4.948634241103127,4.886921905584122],[5.5955140511408565,5.5955140511408565,5.5955140511408565,5.5955140511408565,5.5955140511408565,5.5955140511408565,5.585053606381854],[0.10727885564840278,0.10727885564840278,0.10727885564840278,0.10727885564840278,0.10727885564840278,0.10727885564840278,0.10727885564840278,0]],"response_history":["7"],"rt":13475,"trial_type":"polygon-arrow-question","trial_index":0,"trial_index_global":78,"time_elapsed":805255,"internal_chunk_id":"0-0.12-0"},{"nsides":9,"question":"What is the inverse of 0 under <img src=./images/nonagon_symbol.png style=width:14px;height:14px>?","response_type":"free","response_choices":[],"correct_response":"0","response":"0","explain":false,"explanation":"","explanation_history":[],"orientation_history":[[0]],"response_history":["0"],"rt":29157,"trial_type":"polygon-arrow-question","trial_index":0,"trial_index_global":79,"time_elapsed":834413,"internal_chunk_id":"0-0.12-0"},{"nsides":9,"question":"What is the inverse of 3 under <img src=./images/nonagon_symbol.png style=width:14px;height:14px>? Please explain in words how you got your answer.","response_type":"free","response_choices":[],"correct_response":"6","response":"6","explain":true,"explanation":"takes 6 steps to get to 0 from 3","explanation_history":["takes 6 steps tp","takes 6 steps to get  t o","take s 6 steps to get  t","takes 6 steps to get  ","takes 6 steps to get to 0 from 3"],"orientation_history":[[0],[0.6405856651585092,0.6405856651585092,0.6405856651585092,0.6405856651585092,0.6405856651585092,0.6405856651585092,0.6405856651585092,0.6405856651585092,0.6981317007977318],[1.2838575738641271,1.2838575738641271,1.2838575738641271,1.2838575738641271,1.2838575738641271,1.2838575738641271,1.2838575738641271,1.3962634015954636],[2.2094312939488816,2.2094312939488816,2.2094312939488816,2.2094312939488816,2.2094312939488816,2.2094312939488816,2.0943951023931953],[2.7299213101578985,2.7299213101578985,2.7299213101578985,2.7350258269952517,2.7350258269952517,2.7350258269952517,2.7350258269952517,2.7350258269952517,2.792526803190927],[3.5713549326864817,3.5713549326864817,3.5713549326864817,3.582772134004774,3.582772134004774,3.582772134004774,3.582772134004774,3.582772134004774,3.490658503988659],[4.099181631510181,4.099181631510181,4.099181631510181,4.099181631510181,4.099181631510181,4.099181631510181,4.0869039401454605,4.0869039401454605,4.0869039401454605,4.0869039401454605,4.1887902047863905],[4.773849936267455,4.773849936267455,4.773849936267455,4.773849936267455,4.773849936267455,4.773849936267455,4.886921905584122],[5.453568199386485,5.453568199386485,5.453568199386485,5.453568199386485,5.453568199386485,5.453568199386485,5.453568199386485,5.585053606381854],[6.0169332580286605,6.0169332580286605,6.0169332580286605,6.0169332580286605,6.0169332580286605,6.0169332580286605,6.0169332580286605,6.0169332580286605,6.283185307179586]],"response_history":["3","6"],"rt":55336,"trial_type":"polygon-arrow-question","trial_index":0,"trial_index_global":80,"time_elapsed":889752,"internal_chunk_id":"0-0.12-0"},{"nsides":9,"question":"Is 2 a generator under <img src=./images/nonagon_symbol.png style=width:14px;height:14px>? Please explain in words how you got your answer.","response_type":"multi","response_choices":["Yes","No"],"correct_response":"Yes ","response":"No","explain":true,"explanation":"Don't know how to explain this one","explanation_history":["2 ","Don't know who","Don't know wh","Don't know w","Don't know howto ","Don't know howto","Don't know howt","Don't know how to explain thsi ","Don't know how to explain thsi","Don't know how to explain ths","Don't know how to explain this ine","Don't know how to explain this ne","Don't know how to explain this one"],"orientation_history":[[0],[1.265573193000975,1.265573193000975,1.265573193000975,1.265573193000975,1.265573193000975,1.265573193000975,1.265573193000975,1.3962634015954636]],"response_history":["Yes","No"],"rt":49254,"trial_type":"polygon-arrow-question","trial_index":0,"trial_index_global":81,"time_elapsed":939006,"internal_chunk_id":"0-0.12-0"},{"nsides":9,"question":"Is 3 a generator under <img src=./images/nonagon_symbol.png style=width:14px;height:14px>? Please explain in words how you got your answer.","response_type":"multi","response_choices":["Ye s","No"],"correct_response":"No","response":"Yes","explain":true,"explanation":"3 steps from 9 is under 9","explanation_history":["3 steps from 9 us under 9","3 steps from 9 s under 9","3 steps from 9 is under 9"],"orientation_history":[[0]],"response_history":["Yes"],"rt":22664,"trial_type":"polygon-arrow-question","trial_index":0,"trial_index_global":82,"time_elapsed":961671,"internal_chunk_id":"0-0.12-0"},{"nsides":9,"question":"Is 5 a generator under <img src=./images/nonagon_symbol.png style=width:14px;height:14px>? Please explain in words how you got your answer.","response_type":"multi","response_choices":["Yes","No"],"correct_response":"Yes","response":"No","explain":true,"explanation":"5 under 9 is not a generator","explanation_history":["5 under 9 i","5 under 9 is not a generator"],"orientation_history":[[0]],"response_history":["No"],"rt":14233,"trial_type":"polygon-arrow-question","trial_index":0,"trial_index_global":83,"time_elapsed":975905,"internal_chunk_id":" 0-0.12-0 "},{"nsides":9,"question":"Is 6 a generator under <img src=./images/nonagon_symbol.png style=width:14px;height:14px>? Please explain in words how you got your answer.","response_type":"multi","response_choices":["Yes","No"],"correct_response":"No","response":"Yes","explain":true,"explanation":"6 under 9 is a generator","explanation_history":["6 under 9 is a generator"],"orientation_history":[[0]],"response_history":["Yes"],"rt":12179,"trial_type":"polygon-arrow-question","trial_index":0,"trial_index_global":84,"time_elapsed":988085,"internal_chunk_id":"0-0.12-0"},{"nsides":"n","instructions":"Now we'd like to ask you some questions about <img src=./images/ngon_symbol.png style=width:14px;height:14px>, where n could be any positive counting number. For example, n could be 3, and the polygon a triangle, or n could be any other counting number you can think of. If you need to write the operation, you can use (n), and your answers can include n to stand in fo r the ar bitrary value if necessary. (You can use the polygon at the right to think, but it doesn't necessarily correspond to the real polygon, which is why we've left most of it dashed.)","orientation_history":[0],"rt":10583,"trial_type":"polygon-arrow-instructions","trial_index":0,"trial_index_global":85,"time_elapsed":998669,"internal_chunk_id":"0-0"},{"nsides":"n","question":"What is the formula for the inverse of 1 under <img src=./images/ngon_symbol.png style=width:14px;height:14px>?","response_type":"free","response_choices":[],"correct_response":"n-1","response":"0+1 = 1","explain":false,"explanation":"","explanation_history":[],"orientation_history":[[0],[0.7359335947958568,0.7359335947958568,0.7359335947958568,0.7359335947958568,0.7359335947958568,0.7359335947958568,0.7359335947958568,0.7359335947958568,0.7359335947958568]],"response_history":["1","0=","0+1 = 1"],"rt":29001,"trial_type":"polygon-arrow-question","trial_index":0,"trial_index_global":86,"time_elapsed":1027671,"internal_chunk_id":"0-0.14-0"},{"nsides":"n","question":"What is the formula for the inverse of an element x under <img src=./images/ngon_symbol.png style=width:14px;height:14px>? Please explain in words why your answer is correct.","response_type":"free","response_choices":[],"correct_response":"n-x","response":"2","explain":true,"explanation":"The inverse would be 2 under n","explanation_history":["The inverse would be 2 o","The inverse would be 2 under n"],"orientation_history":[[0]],"response_history":["2"],"rt":21137,"trial_type":"polygon-arrow-question","trial_index":0,"trial_index_global":87,"time_elapsed":1048809,"internal_chunk_id":"0-0.14-0"},{"nsides":"n","question":"Is there a pattern to which elements are generators? How can you know if an element x is a generator under <img src=./images/ngon_symbol.png style=width:14px;height:14px> without seeing whether it can make all the elements?.","response_type":"free","response_choices":[],"correct_response":"","response":"By counting the steps","explain":false,"explanation":"","explanation_history":[],"orientation_history":[[0]],"response_history":["By con","By co","By cuntin","By cunti","By cunt","By cun","By cu","By counting the steps"],"rt":33188,"trial_type":"polygon-arrow-question","trial_index":0,"trial_index_global":88,"time_elapsed":1081997,"internal_chunk_id":"0-0.14-0"},{"nsides":"n","question":"True or false: If x is an odd number, it must be a generator under <img src=./images/ngon_symbol.png style=width:14px;height:14px>.","response_type":"multi","response_choices":["True","False"],"correct_response":"False","response":"False","explain":false,"explanation":"","explanation_history":[],"orientation_history":[[0]],"response_history":["False"],"rt":5319,"trial_type":"polygon-arrow-question","trial_index":0,"trial_index_global":89,"time_elapsed":1087317,"internal_chunk_id":"0-0.14-0"},{"nsides":"n","question":"True or false: If x is an even number, it must not be a  generat or under <img src=./images/ngon_symbol.png style=width:14px;height:14px>.","response_type":"multi","response_choices":["True","False"],"correct_response":"False","response":"True","explain":false,"explanation":"","explanation_history":[],"orientation_history":[[0]],"response_history":["True"],"rt":2671,"trial_type":"polygon-arrow-question","trial_index":0,"trial_index_global":90,"time_elapsed":1089989,"internal_chunk_id":"0-0.14-0"},{"nsides":"n","question":"True or false: If x is not a generator under <img src=./images/ngon_symbol.png style=width:14px;height:14px>, x must be a divisor of n, that is, x must divide n evenly, with no remainder.","response_type":"multi","response_choices":["True","False"],"correct_response":"False","response":"False","explain":false,"explanation":"","explanation_history":[],"orientation_history":[[0]],"response_history":["False"],"rt":3475,"trial_type":"polygon-arrow-question","trial_index":0,"trial_index_global":91,"time_elapsed":1093465,"internal_chunk_id":"0-0.14-0"},{"nsides":"n","question":"True or false: If x is not a generator under <img src=./images/ngon_symbol.png style=width:14px;height:14px>, x must be a multiple of a divisor of n. Please explain in words how you got your answer.","response_type":"multi","response_choices":["True","False"],"correct_response":"True","response":"True","explain":true,"explanation":"Would have to be multiplied to get the answer under n","explanation_history":["Would have to be multiplied to get the anse","Would have to be multiplied to get the answer under n"],"orientation_history":[[0]],"response_history":["True"],"rt":23807,"trial_type":"polygon-arrow-question","trial_index":0,"trial_index_global":92,"time_elapsed":1117273,"internal_chunk_id":"0-0.14-0"},{"nsides":"n","question":"If an element x is a generator under <img src=./images/ngon_symbol.png style=width:14px;height:14px>, is its inverse a generator under <img src=./images/ngon_symbol.png style= width:14px;height:14px> always, sometimes, or never?","response_type":"multi","response_choices":["Always","Sometimes","Never"],"correct_response":"Always","response":"Never","explain":false,"explanation":"","explanation_history":[],"orientation_history":[[0]],"response_history":["Sometimes","Never"],"rt":8451,"trial_type":"polygon-arrow-question","trial_index":0,"trial_index_global":93,"time_elapsed":1125724,"internal_chunk_id":"0-0.14-0"},{"nsides":"n","question":"If an element x is a generator under <img src=./images/ngon_symbol.png style=width:14px;height:14px>, is x <img src=./images/ngon_symbol.png style=width:14px;height:14px> x a generator under <img src=./images/ngon_symbol.png style=width:14px;height:14px> always, sometimes, or never? Please explain in words how you got your answer.","response_type":"multi","response_choices":["Always","Sometimes","Never"],"correct_response":"Sometimes","response":"Never","explain":true,"explanation":"Be cause n  could never be under n","explanation_history":["Because n could nen","Because n could never be under n"],"orientation_history":[[0]],"response_history":["Never"],"rt":21228,"trial_type":"polygon-arrow-question","trial_index":0,"trial_index_global":94,"time_elapsed":1146953,"internal_chunk_id":"0-0.14-0"},{"nsides":"n","question":"If an element x is not a generator under <img src=./images/ngon_symbol.png style=width:14px;height:14px>, is x <img src=./images/ngon_symbol.png style=width:14px;height:14px> x a generator under <img src=./images/ngon_symbol.png style=width:14px;height:14px> always, sometimes, or never?","response_type":"multi","response_choices":["Always","Sometimes","Never"],"correct_response":"Never","response":"Never","explain":false,"explanation":"","explanation_history":[],"orientation_history":[[0]],"response_history":["Never"],"rt":6906,"trial_type":"polygon-arrow-question","trial_index":0,"trial_index_global":95,"time_elapsed":1153860,"internal_chunk_id":"0-0.14-0"},{"instructions":"We would like to ask you some questions about your background. Please press Continue to continue.","rt":1397,"trial_type":"instructions","trial_index":0,"trial_index_global":96,"time_elapsed":1155258,"internal_chunk_id":"0-0.15-0"},{"question":"What is your age?","response_type":"free","response_choices":[],"correct_response":"","response":"30","explain":false,"explanation":"","explanation_history":[],"response_history":["30"],"rt":2757,"trial_type":"question","trial_index":0,"trial_index_global":97,"time_elapsed":1158016,"internal_chunk_id":"0-0.15-0"},{"question":"What is your level of education?","response_type":"multi","response_choices":["Did not graduate high school","High school diploma","Some college, no degree","Associates Degree","Bachelors Degree","Some graduate school, no degree","Masters Degree","Doctorate, M.D., etc."],"correct_response":"","response":"Some college, no degree","explain":false,"explanation":"","explanation_history":[],"response_history":["Some college, no degree"],"rt":2217,"trial_type":"question","trial_index":0,"trial_index_global":98,"time_elapsed":1160234,"internal_chunk_id":"0-0.15-0"},{"question":"What is the most advanced math class you've completed? If you have multiple classes and you're not sure which one is most advanced, please list them.","response_type":"free","response_choices":[],"correct_response":"","response":"Calculus 1","explain":false,"explanation":"","explanation_history":[],"response_history":["Calculus 1"],"rt":8835,"trial_type":"question","trial_index":0,"trial_index_global":99,"time_elapsed":1169070,"internal_chunk_id":"0-0.15-0"},{"question":"How familiar are you with the concept of modular arithmetic?","response_type":"multi","response_choices":["1 - never heard of it","2 - heard of it but didn't know what it was","3 - seen it used or explained","4 - used it but not often or recently","5 - used it, remember and understand it"],"correct_response":"1 ","response":"2 - heard of it but didn't know what it was","explain":false,"explanation":"","explanation_history":[],"response_history":["2 - heard of it but didn't know what it was"],"rt":6187,"trial_type":"question","trial_index":0,"trial_index_global":100,"time_elapsed":1175257,"internal_chunk_id":"0-0.15-0"},{"question":"How familiar are you with the concept of a mathematical group?","response_type":"multi","response_choices":["1 - never heard of it","2 - heard of it but didn't know what it was","3 - seen it used or explained","4 - used it but not often or recently","5 - used it, remember and understand it"],"correct_response":"1","response":"3 - seen it used or explained","explain":false,"explanation":"","explanation_history":[],"response_history":["3 - seen it used or explained"],"rt":3046,"trial_type":"question","trial_index":0,"trial_index_global":101,"time_elapsed":1178304,"internal_chunk_id":"0-0.15-0"},{"question":"Do you feel you learned something from this HIT?","response_type":"multi","response_choices":["1 - not at all","2 - somewhat","3 - definitely"],"correct_response":"1","response":"2 - somewhat","explain":false,"explanation":"","explanation_history":[],"response_history":["2 - somewhat"],"rt":2413,"trial_type":"question","trial_index":0,"trial_index_global":102,"time_elapsed":1180718,"internal_chunk_id":"0-0.15-0"},{"question":"Do you feel you understood the concepts in this HIT?","response_type":"multi","response_choices":["1 - not at all","2 - somewhat","3 - definitely"],"correct_response":"1","response":"2 - somewhat","explain":false,"explanation":"","explanation_history":[],"response_history":["2 - somewhat"],"rt":2336,"trial_type":"question","trial_index":0,"trial_index_global":103,"time_elapsed":1183054,"internal_chunk_id":"0-0.15-0"},{"question":"Did you enjoy this HIT?","response_type":"multi","response_choices":["1 - not at all","2 - somewhat","3 - definitely"],"correct_response":"1","response":"3 - definitely","explain":false,"explanation":"","explanation_history":[],"response_history":["3 - definitely"],"rt":2327,"trial_type":"question","trial_index":0,"trial_index_global":104,"time_elapsed":1185381,"internal_chunk_id":"0-0.15-0"},{"question":"What is your gender?","response_type":"multi","response_choices":["Female","Male","Other"],"correct_response":"","response":"Female","explain":false,"explanation":"","explanation_history":[],"response_history":["Female"],"rt":2241,"trial_type":"question","trial_index":0,"trial_index_global":105,"time_elapsed":1187623,"internal_chunk_id":"0-0.15-0"},{"question":"What is/are your native language(s)? (The languages spoken in your household when you were a child.)","response_type":"free","response_choices":[],"correct_response":"","response":"English","explain":false,"explanation":"","explanation_history":[],"response_history":["English"],"rt":5267,"trial_type":"question","trial_index":0,"trial_index_global":106,"time_elapsed":1192890,"internal_chunk_id":"0-0.15-0"},{"question":" Did you use pen and paper at any point on this HIT?","response_type":"free","response_choices":[],"correct_response":"","response":"No","explain":false,"explanation":"","explanation_history":[],"response_history":["No"],"rt":3897,"trial_type":"question","trial_index":0,"trial_index_global":107,"time_elapsed":1196787,"internal_chunk_id":"0-0.15-0"},{"question":"Do you have any comments on this HIT?","response_type":"free","response_choices":[],"correct_response":"","response":"","explain":false,"explanation":"","explanation_history":[],"response_history":[],"rt":1098,"trial_type":"question","trial_index":0,"trial_index_global":108,"time_elapsed":1197886,"internal_chunk_id":"0-0.15-0"}]