[{"nsides":6,"instructions":"Let's define a new operation <img src=./images/hexagon_symbol.png style=width:14px;height:14px>. This operation will give us a way of combining two of the numbers 0, 1, 2, 3, 4, 5 to get another one of them back. To perform <img src=./images/hexagon_symbol.png style=width:14px;height:14px>, you can either use a method based on the hexagon at right, or a method based on arithmetic.<br /><b>Hexagon method:</b> you can use the interactive diagram on the right, or perform the operation in your mind. Point the arrow at the first number on the hexagon by clicking, then click (or click and drag) to move the arrow the second number of points clockwise around the hexagon. The number the arrow arrives at is your result. (The operation is called <img src=./images/hexagon_symbol.png style=width:14px;height:14px> because it uses the hexagon, which has 6 sides.) <br ><b>Arithmetic method:</b> you start with the first number, and then add  the sec ond one to it. If the sum is smaller than 6, that's your result. If the sum is 6 or bigger, you subtract 6 to get your result. <br /><br />For example, 3 <img src=./images/hexagon_symbol.png style=width:14px;height:14px> 5 = 2, because 5 steps clockwise from 3 on the hexagon brings us to 2. Equivalently, 3 + 5 = 8, and 8 is bigger than 6, so we subtract 6, and 8 - 6 = 2. So 3 <img src=./images/hexagon_symbol.png style=width:14px;height:14px> 5 = 2.<br /><br />Similarly, 1 <img src=./images/hexagon_symbol.png style=width:14px;height:14px> 4 = 5, because 1 + 4 = 5, and 5 is less than 6 so we leave it alone. Equivalently, 4 steps clockwise from 1 on the hexagon brings us to 5. <br /><br />Click Continue when you're ready to move on.","orientation_history":[0],"rt":63028,"trial_type":"polygon-arrow-instructions","trial_index":0,"trial_index_global":1,"time_elapsed":73454,"internal_chunk_id":"0-0"},{"nsides":6,"instructions":"Do you see how the differe nt ways  of performing <img src=./images/hexagon_symbol.png style=width:14px;height:14px> give the same result? By labeling the points of the hexagon with the numbers from 0 to 5, we ensure that when we combine two numbers using the hexagon, we only produce numbers between 0 and 5. When we use the arithmetic strategy, adding the second number to the first mimics counting around the hexagon, and subtracting 6 each time we get above 5 makes sure the results correspond to the numbers on the points of the hexagon. <br /><br />Click Continue when you're ready to move on.","orientation_history":[0],"rt":15646,"trial_type":"polygon-arrow-instructions","trial_index":0,"trial_index_global":2,"time_elapsed":89102,"internal_chunk_id":"0-0"},{"nsides":6,"question":"Now try one on your own! What is 4 <img src=./images/hexagon_symbol.png style=width:14px;height:14px> 5? <br /><br /> (Remember, to perform <img src=./images/hexagon_symbol.png style=width:14px;height:14px> , you ca n either use a method based on the hexagon at right, or a method based on arithmetic.<br /><br /><b>Hexagon method:</b> you can use the interactive diagram on the right, or perform the operation in your mind. Point the arrow at the first number, then move the arrow the second number of points clockwise around the hexagon. The number the arrow arrives at is your result. <br /><br /><b>Arithmetic method:</b> you start with the first number, and then add the second one to it. If the sum is smaller than 6, that's your result. If the sum is 6 or bigger, you subtract 6 to get your result.)","response_type":"free","response_choices":[],"correct_response":"3","response":"3","explain":false,"explanation":"","explanation_history":[],"orientation_history":[[0]],"response_history":["3"],"rt":19843,"trial_type":"polygon-arrow-question","trial_index":0,"trial_index_global":3,"time_elapsed":108947,"internal_chunk_id":"0-0.3-0"},{"nsides":6,"feedback":"Correct! 4 <img src=./images/hexagon _symbol. png style=width:14px;height:14px> 5 = 3 because 5 steps clockwise on the hexagon from 4 brings us to 3. Equivalently, 4 + 5 = 9 and 9 - 6 = 3.","orientation_history":[0],"rt":12992,"trial_type":"polygon-arrow-feedback","trial_index":0,"trial_index_global":4,"time_elapsed":121941,"internal_chunk_id":"0-0.3-0"},{"nsides":6,"question":"What is 3 <img src=./images/hexagon_symbol.png style=width:14px;height:14px> 2? Try to solve this problem using the hexagon. <br /><br /> (Remember, to perform <img src=./images/hexagon_symbol.png style=width:14px;height:14px> on the hexagon, you can use the interactive diagram on the right, or perform the operation in your mind. Point the arrow at the first number on the hexagon, and then move the arrow the second number of points clockwise around the hexagon.)","response_type":"free","response_choices":[],"correct_response":"5","response":"5","explain":false,"explanation":"","explanation_history":[],"orientation_history":[[0],[0,0,0,0,0,0,0,0,0,0,0,0,0,0,0,0,0,0,0,0,0,0,0,0,0,0,0,0,0,0,0,0,0,0,0,0,0,0,0,0.015111663546510501,0.061682493349183964,0.20400184522554166,0.2873087340605933,0.4264736773993323,0.5482148200218997,0.642628762402179,0.6709154758676824,0.6709154758676824,0.7278571117071271,0.7278571117071271,0.7278571117071271,0.7278571117071271,0.741929030480387,0.770912508611387,0.9191481441862681,1.0151916615095848,1.1649096626185143,1.2609812083221326,1.3012846849974309,1.379620099479953,1.3973773545686914,1.3973773545686914,1.4152268056633632,1.4692194792128408,1.4873274767026041,1.5599987480163138,1.630868515577833,1.6957635974016854,1.7747981720204382,1.8094352377280971,1.868400367633954,1.8970497949900171,1.8970497949900171,1.8970497949900171,1.8970497949900171,1.9111525906169609,1.9195855908831567,1.9732196595088876,1.9862381428444345,1.9990972013254782,1.9990972013254782,2.0054665419441413,2.030152883999741,2.0357603018629167,2.059306673917444,2.059306673917444,2.0934739154718818,2.104556155704419,2.126262832652687,2.126262832652687,2.126262832652687,2.126262832652687,2.1368885566488762,2.1368885566488762,2.1368885566488762,2.1368885566488762,2.1368885566488762,2.1368885566488762,2.1368885566488762,2.1368885566488762,2.1368885566488762,2.1368885566488762,2.1368885566488762,2.1368885566488762,2.129821536490903,2.129821536490903,2.129821536490903,2.129821536490903,2.129821536490903,2.129821536490903,2.129821536490903,2.129821536490903,2.129821536490903,2.129821536490903,2.129821536490903,2.129821536490903,2.129821536490903,2.129821536490903,2.129821536490903,2.129821536490903,2.129821536490903,2.129821536490903,2.129821536490903,2.129821536490903,2.129821536490903,2.112401695939125,2.112401695939125,2.112401695939125,2.101758730057724,2.101758730057724,2.101758730057724,2.101758730057724,2.101758730057724,2.101758730057724,2.101758730057724,2.101758730057724,2.101758730057724,2.101758730057724,2.101758730057724,2.101758730057724,2.101758730057724,2.101758730057724,2.101758730057724,2.101758730057724,2.101758730057724,2.101758730057724,2.101758730057724,2.101758730057724,2.101758730057724,2.101758730057724,2.101758730057724,2.0943951023931953],[2.0943951023931953,2.0943951023931953,2.0943951023931953,2.0943951023931953,2.116186524197184,2.116186524197184,2.1519499048186512,2.1830509842606327,2.2286813887828107,2.283193345858948,2.356061134937795,2.4316837115139323,2.5260749246813363,2.6051577125251564,2.6567738190855787,2.766329213508587,2.8311078701911474,2.8763410355465737,2.925673699647789,2.925673699647789,2.9302997267870983,2.994465581118454,3.050968102091063,3.069985560397949,3.203562659974826,3.258174042239561,3.3129230628963646,3.3806601079096206,3.3806601079096206,3.3806601079096206,3.3769380407307086,3.3769380407307086,3.3769380407307086,3.3769380407307086,3.3769380407307086,3.3769380407307086,3.3769380407307086,3.3769380407307086,3.3769380407307086,3.3769380407307086,3.3769380407307086,3.3769380407307086,3.3769380407307086,3.3769380407307086,3.3769380407307086,3.3769380407307086,3.3769380407307086,3.3769380407307086,3.3769380407307086,3.410823370634826,3.543093767150321,3.6679349065299562,3.8327529117472725,3.962478353163373,4.006132733499564,4.016368034239797,4.016368034239797,4.016368034239797,4.016368034239797,4.016368034239797,4.016368034239797,4.016368034239797,4.016368034239797,4.016368034239797,4.016368034239797,4.016368034239797,4.039898752772848,4.090127886425623,4.135927250991864,4.152770638640744,4.17332477281089,4.201221492366232,4.201221492366232,4.201221492366232,4.201221492366232,4.201221492366232,4.201221492366232,4.201221492366232,4.201221492366232,4.201221492366232,4.201221492366232,4.201221492366232,4.201221492366232,4.201221492366232,4.201221492366232,4.201221492366232,4.201221492366232,4.201221492366232,4.201221492366232,4.201221492366232,4.228151710223168,4.2928583615532165,4.390505070733498,4.533147989045295,4.689057931025875,4.800047986269689,4.878538088907023,4.962242278138882,4.993157646947182,5.021758769475454,5.04251990570771,5.04251990570771,5.04251990570771,5.04251990570771,5.04251990570771,5.04251990570771,5.04251990570771,5.04251990570771,5.04251990570771,5.0583915886995,5.12016855025985,5.16458953062434,5.221118963339881,5.253928414630479,5.292134769568401,5.304485078566298,5.304485078566298,5.304485078566298,5.304485078566298,5.304485078566298,5.304485078566298,5.304485078566298,5.304485078566298,5.304485078566298,5.304485078566298,5.304485078566298,5.304485078566298,5.304485078566298,5.304485078566298,5.304485078566298,5.304485078566298,5.304485078566298,5.296762418486251,5.296762418486251,5.269796739810488,5.245130358382548,5.245130358382548,5.245130358382548,5.245130358382548,5.245130358382548,5.245130358382548,5.245130358382548,5.245130358382548,5.245130358382548,5.245130358382548,5.245130358382548,5.245130358382548,5.245130358382548,5.245130358382548,5.245130358382548,5.245130358382548,5.245130358382548,5.245130358382548,5.245130358382548,5.245130358382548,5.245130358382548,5.245130358382548,5.245130358382548,5.245130358382548,5.245130358382548,5.245130358382548,5.245130358382548,5.245130358382548,5.245130358382548,5.245130358382548,5.245130358382548,5.245130358382548,5.235987755982988]],"response_history":["5"],"rt":31510,"trial_type":"polygon-arrow-question","trial_index":0,"trial_index_global":5,"time_elapsed":153453,"internal_chunk_id":"0-0.3-0"},{"nsides":6,"feedback":"Correct! 3 <img src=./images/hexagon_symbol.png style=width:14px;height:14px> 2 = 5 because 2 steps clockwise on the hexagon from 3 brings us to 5. Equivalently, 3 + 2 = 5 and 5 is less than 6.","orientation_history":[0],"rt":2283,"trial_type":"polygon-arrow-feedback","trial_index":0,"trial_index_global":6,"time_elapsed":155736,"internal_chunk_id":"0-0.3-0"},{"nsides":6,"question":"What is 1 <img src=./images/hexagon_symbol.png style=width:14px;height:14px> 5? Try to solve this probem using the arithmetic technique. <br /><br /> (Remember, to  perform  <img src=./images/hexagon_symbol.png style=width:14px;height:14px> by arithmetic, you start with the first number, and then add the second one to it. If the sum is smaller than 6, that's your result. If the sum is 6 or bigger, you subtract 6 to get your result.)","response_type":"free","response_choices":[],"correct_response":"0","response":"0","explain":false,"explanation":"","explanation_history":[],"orientation_history":[[0],[0,0,0,0,0,0,0,0,0.000697836592934209,0.016995530574380302,0.07071834745841321,0.1826793488583658,0.35220471210055226,0.4690280336374508,0.5943465034050486,0.5943465034050486,0.6873918223649296,0.7143394754541937,0.7529611668960438,0.7779313291641856,0.7779313291641856,0.7779313291641856,0.7779313291641856,0.7779313291641856,0.7912120513792901,0.7912120513792901,0.8031817158733315,0.8534098757830876,0.8534098757830876,0.8674844421911095,0.8783258541529966,0.8926242123711364,0.9030701761861121,0.9030701761861121,0.9474711104110739,0.9474711104110739,0.9474711104110739,0.9474711104110739,0.9474711104110739,0.9572683148988923,0.9572683148988923,0.9725318257807802,0.9909775706189059,0.9909775706189059,0.9909775706189059,0.9909775706189059,0.9909775706189059,0.9909775706189059,0.9909775706189059,0.9909775706189059,0.9909775706189059,0.9909775706189059,0.9909775706189059,0.9909775706189059,0.9909775706189059,0.9909775706189059,0.9909775706189059,0.9909775706189059,0.9909775706189059,0.9909775706189059,0.9909775706189059,0.9909775706189059,0.9909775706189059,0.9909775706189059,0.9909775706189059,0.9909775706189059,0.9909775706189059,0.9909775706189059,0.9909775706189059,0.9909775706189059,0.9909775706189059,0.9909775706189059,1.0471975511965976],[1.0471975511965976,1.0471975511965976,1.0471975511965976,1.0471975511965976,1.0471975511965976,1.0471975511965976,1.0471975511965976,1.0471975511965976,1.0471975511965976,1.0471975511965976,1.0471975511965976,1.0471975511965976,1.0728799765032326,1.1407039760381095,1.2288264596873586,1.3176147966697993,1.3980412696635527,1.3980412696635527,1.5154534225075242,1.6185350310302244,1.6349270053382297,1.6840150559536893,1.7309621618604145,1.7784481541884436,1.809719490627239,1.8220280762877872,1.8220280762877872,1.8220280762877872,1.8220280762877872,1.852278211899126,1.8672450201237474,1.8672450201237474,1.925932504153046,1.9545026369563554,1.9722381771113462,2.0122332549902486,2.0381858931653283,2.0635512557857654,2.07600987892625,2.0883175323889063,2.1124763999498057,2.1124763999498057,2.1243263466246276,2.1243263466246276,2.1243263466246276,2.1243263466246276,2.1243263466246276,2.1243263466246276,2.1243263466246276,2.1243263466246276,2.1243263466246276,2.1243263466246276,2.1243263466246276,2.1243263466246276,2.1243263466246276,2.1243263466246276,2.136022772004333,2.1589545313008083,2.202806308611133,2.2564960302997346,2.3042645419365106,2.353471020410817,2.4142421075739158,2.4554340053788986,2.4759732598145003,2.528288188974434,2.5725301340371027,2.6292099736417276,2.6292099736417276,2.6737823503661415,2.7518215857076678,2.8115646998852997,2.862972541118358,2.937235377157047,2.95149543036767,2.9690826344344323,2.989150289859232,3.019553083856782,3.064976363278359,3.092413730030758,3.120945014234618,3.1345915777752404,3.1345915777752404,3.1619409493502584,3.175633584452255,3.175633584452255,3.175633584452255,3.175633584452255,3.175633584452255,3.175633584452255,3.175633584452255,3.175633584452255,3.175633584452255,3.175633584452255,3.175633584452255,3.175633584452255,3.175633584452255,3.175633584452255,3.175633584452255,3.175633584452255,3.175633584452255,3.175633584452255,3.175633584452255,3.175633584452255,3.175633584452255,3.175633584452255,3.175633584452255,3.175633584452255,3.175633584452255,3.175633584452255,3.175633584452255,3.175633584452255,3.175633584452255,3.230404136415575,3.2984848207339983,3.3655660555617963,3.418130203212346,3.4938422410272336,3.5240681951419353,3.551418765518849,3.551418765518849,3.577650075997587,3.596078429551092,3.6468062057211466,3.7320818562048315,3.8379738094916647,3.9396561906893437,4.025533225280791,4.048972972874151,4.081756994271943,4.081756994271943,4.081756994271943,4.081756994271943,4.081756994271943,4.081756994271943,4.081756994271943,4.081756994271943,4.081756994271943,4.081756994271943,4.105132829111702,4.153890020432985,4.16295102652734,4.16295102652734,4.16295102652734,4.16295102652734,4.16295102652734,4.16295102652734,4.16295102652734,4.16295102652734,4.16295102652734,4.16295102652734,4.16295102652734,4.16295102652734,4.16295102652734,4.17212508107245,4.209961904266837,4.239546851128358,4.281017390559626,4.3818336932785575,4.557806056241714,4.73449227609834,4.919264410418711,5.056053723084226,5.154918804319778,5.190294985970784,5.219167031310703,5.219167031310703,5.219167031310703,5.219167031310703,5.219167031310703,5.219167031310703,5.219167031310703,5.228362417410221,5.273062698613674,5.31562141988556,5.323876285038788,5.323876285038788,5.323876285038788,5.323876285038788,5.323876285038788,5.323876285038788,5.323876285038788,5.323876285038788,5.323876285038788,5.323876285038788,5.323876285038788,5.323876285038788,5.323876285038788,5.391207072091347,5.52913387370946,5.783639630427477,5.9869548916915525,6.1335284515650335,6.167997552564541,6.167997552564541,6.167997552564541,6.167997552564541,6.167997552564541,6.167997552564541,6.167997552564541,6.167997552564541,6.167997552564541,6.167997552564541,6.167997552564541,6.167997552564541,6.167997552564541,6.167997552564541,6.167997552564541,6.167997552564541,6.170161270789079,6.1833559401009195,6.211495085396575,6.253159071812181,6.2669090335805695,6.292481421393726,6.305612962272066,6.305612962272066,6.305612962272066,6.305612962272066,6.305612962272066,6.305612962272066,6.305612962272066,6.305612962272066,6.305612962272066,6.305612962272066,6.305612962272066,6.318424662395552,0.07273349785424799,0.07242504629092728,0.07242504629092728,0.07242504629092728,0.07242504629092728,0.07242504629092728,0.07242504629092728,0.07242504629092728,0.07242504629092728,0.07242504629092728,0.07242504629092728,0.07242504629092728,0.07242504629092728,0.07242504629092728,0.07242504629092728,0.07242504629092728,0.07242504629092728,0.07242504629092728,0.07242504629092728,0.07242504629092728,0.07242504629092728,0.07242504629092728,0.07242504629092728,0.07242504629092728,0.07242504629092728,0.07242504629092728,6.2929675662266,6.279686844011495,6.2669090335805695,6.2669090335805695,6.2669090335805695,6.2669090335805695,6.2669090335805695,6.2669090335805695,6.2669090335805695,6.2669090335805695,6.2669090335805695,6.2669090335805695,6.2669090335805695,6.2669090335805695,6.2669090335805695,6.2669090335805695,6.2669090335805695,6.2669090335805695,6.2669090335805695,6.2669090335805695,6.2669090335805695,6.2669090335805695,6.2669090335805695,6.283185307179586]],"response_history":["0"],"rt":11812,"trial_type":"polygon-arrow-question","trial_index":0,"trial_index_global":7,"time_elapsed":167549,"internal_chunk_id":"0 -0.3-0"},{"nsides":6,"feedback":"Correct! 1 <img src=./images/hexagon_symbol.png style=width:14px;height:14px> 5 = 0 because 1 + 5 = 6 and 6 - 6 = 0.  Equivalently, 5 steps clockwise on the hexagon from 1 brings us to 0.","orientation_history":[0],"rt":1991,"trial_type":"polygon-arrow-feedback","trial_index":0,"trial_index_global":8,"time_elapsed":169541,"internal_chunk_id":"0-0.3-0"},{"nsides":6,"question":"What is 1 <img src=./images/hexagon_symbol.png style=width:14px;height:14px> 1? Try to solve this problem using the hexagon. <br /><br /> (Remember, to perform <img src=./images/hexagon_symbol.png style=width:14px;height:14px> on the hexagon, you can use the interactive diagram on the right, or perform the operation in your mind. Point the arrow at the first number on the hexagon, and then move the arrow the second number of points clockwise around the hexagon.)","response_type":"free","response_choices":[],"correct_response":"2","response":"2","explain":false,"explanation":"","explanation_history":[],"orientation_history":[[0],[0,0,0,0,0,0,0,0,0,0,0,0.014473501539969513,0.061682493349183964,0.061682493349183964,0.17451565140600156,0.27194284050886397,0.39090256335399043,0.41974595015915983,0.5171891695822266,0.5403357972491007,0.6010565156943539,0.6246585030679606,0.6722825290147162,0.7564207695458871,0.8572017686305549,0.8767162464738412,0.8861233067017992,0.8861233067017992,0.8861233067017992,0.8861233067017992,0.8861233067017992,0.8861233067017992,0.8861233067017992,0.8861233067017992,0.8861233067017992,0.8861233067017992,0.8861233067017992,0.928611584068826,0.9704814531097086,0.9911433820310842,0.9911433820310842,1.0190298475629331,1.0190298475629331,1.0190298475629331,1.0190298475629331,1.0190298475629331,1.0190298475629331,1.0190298475629331,1.0190298475629331,1.0190298475629331,1.0190298475629331,1.0190298475629331,1.0190298475629331,1.0190298475629331,1.0190298475629331,1.0190298475629331,1.0190298475629331,1.0190298475629331,1.0190298475629331,1.0190298475629331,1.0190298475629331,1.0333296088636454,1.0333296088636454,1.0333296088636454,1.0333296088636454,1.0333296088636454,1.0333296088636454,1.0333296088636454,1.0333296088636454,1.0333296088636454,1.0333296088636454,1.0333296088636454,1.0333296088636454,1.0333296088636454,1.0333296088636454,1.0333296088636454,1.0333296088636454,1.0333296088636454,1.0333296088636454,1.0333296088636454,1.0333296088636454,1.0471975511965976],[1.0471975511965976,1.0471975511965976,1.0471975511965976,1.0471975511965976,1.0471975511965976,1.0471975511965976,1.0594086131578602,1.1530672565840858,1.2642091232679065,1.3962060844672488,1.4980175193001726,1.5965244577019364,1.6923020792464538,1.6923020792464538,1.7437762134700818,1.808920721783476,1.8470091308129317,1.880095170861605,1.927793201695412,1.93025700946024,1.9528185012553547,1.9639421642137722,1.9749594047219694,1.9966702785656791,2.0073620489686643,2.0490217380731828,2.0490217380731828,2.063597199590946,2.063597199590946,2.063597199590946,2.063597199590946,2.063597199590946,2.063597199590946,2.063597199590946,2.063597199590946,2.063597199590946,2.063597199590946,2.063597199590946,2.063597199590946,2.063597199590946,2.063597199590946,2.063597199590946,2.0831776063420593,2.0928035123005078,2.1210252731124406,2.130214655207287,2.130214655207287,2.130214655207287,2.130214655207287,2.130214655207287,2.130214655207287,2.130214655207287,2.130214655207287,2.130214655207287,2.130214655207287,2.130214655207287,2.130214655207287,2.130214655207287,2.130214655207287,2.130214655207287,2.130214655207287,2.0943951023931953]],"response_history":["2"],"rt":9303,"trial_type":"polygon-arrow-question","trial_index":0,"trial_index_global":9,"time_elapsed":178844,"internal_chunk_id":"0-0.3-0"},{"nsides":6,"feedback":"Correct! 1 <img src=./images/hexagon_symbol.png style=width:14px;height:14px> 1 = 2 because 1 step clockwise on the hexagon from 1 brings us to 2. Equivalently, 1 + 1 = 2 and 2 is less  than 6. ","orientation_history":[0],"rt":2102,"trial_type":"polygon-arrow-feedback","trial_index":0,"trial_index_global":10,"time_elapsed":180947,"internal_chunk_id":"0-0.3-0"},{"nsides":6,"question":"What is 3 <img src=./images/hexagon_symbol.png style=width:14px;height:14px> 0? Try to solve this problem using the arithmetic technique. <br /><br /> (Remember, to perform <img src=./images/hexagon_symbol.png style=width:14px;height:14px> using arithmetic, you start with the first number, and then add the second one to it. If the sum is smaller than 6, that's your result. If the sum is 6 or bigger, you subtract 6 to get your result.)","response_type":"free","response_choices":[],"correct_response":"3","response":"3","explain":false,"explanation":"","explanation_history":[],"orientation_history":[[0],[0,0,0,0,0,-6.2528845954300465,-6.236795117874548,-6.126137896700652,-5.933298113988002,-5.653371999382651,-5.320437954443985,-5.320437954443985,-5.1053877282650095,-4.8899393831723055,-4.7944918227614854,-4.649655521232937,-4.555341569905756,-4.441087241944317,-4.286174077120055,-4.133922363017952,-4.040163688798266,-3.9277121441042615,-3.78748546656571,-3.6740045336550207,-3.518142237152447,-3.518142237152447,-3.3894370293959426,-3.28579393861894,-3.2244875750088626,-3.1740254009920066,-3.1567360576337986,-3.141366562705108,-3.141366562705108,-3.141366562705108,-3.141366562705108,-3.141366562705108,-3.141366562705108,-3.141366562705108,-3.141366562705108,-3.141366562705108,-3.141366562705108,-3.141366562705108,-3.141366562705108,-3.141366562705108,-3.141366562705108,-3.141366562705108,-3.141366562705108,-3.141366562705108,-3.141366562705108,-3.141366562705108,-3.141366562705108,-3.141366562705108,-3.141366562705108,-3.141366562705108,-3.141366562705108,-3.141366562705108,-3.141366562705108,-3.141366562705108,-3.141366562705108,-3.141366562705108,-3.141366562705108,-3.141366562705108,-3.141366562705108,-3.141366562705108,-3.141366562705108,-3.141366562705108,-3.141366562705108,-3.141366562705108,-3.141366562705108,-3.141366562705108,-3.141366562705108,-3.141366562705108,-3.141366562705108,-3.141366562705108,-3.141366562705108,-3.141366562705108,-3.141366562705108,-3.141366562705108,-3.141366562705108,3.141592653589793]],"response_history":["3"],"rt":18708,"trial_type":"polygon-arrow-question","trial_index":0,"trial_index_global":11,"time_elapsed":199656,"internal_chunk_id":"0-0.3-0"},{"nsides":6,"feedback":"Correct! 3 <img src=./images/hexagon_symbol.png style=width:14px;height:14px> 0 = 3 because 3 + 0 = 3 and 3 - 6 = 3.  Equivalently, 0 steps clockwise on the hexagon from 3 brings us to 3.","orientation_history":[0],"rt":1417,"trial_type":"polygon-arrow-feedback","trial_index":0,"trial_index_global":12,"time_elapsed":201074,"internal_chunk_id":"0-0.3-0"},{"nsides":6,"question":"What is 4 <img src=./images/hexagon_symbol.png style=width:14px;height:14px> 4? Try to solve this problem using the hexagon. <br /><br  /> (Rem ember, to perform <img src=./images/hexagon_symbol.png style=width:14px;height:14px> on the hexagon, you can use the interactive diagram on the right, or perform the operation in your mind. Point the arrow at the first number on the hexagon, and then move the arrow the second number of points clockwise around the hexagon.)","response_type":"free","response_choices":[],"correct_response":"2","response":"2","explain":false,"explanation":"","explanation_history":[],"orientation_history":[[0],[0.00021308331235148081,6.239290279910081,6.239290279910081,6.209062854982917,6.176646719250679,6.176646719250679,6.098481642828611,6.0080911763667455,5.863801781829003,5.64467051513733,5.516990512062654,5.3946395228492,5.311104590193699,5.256496556662752,5.215184621646811,5.168301504255782,5.108614204433861,5.094976686544172,5.061876197828834,5.047942129564335,4.990809638844713,4.990809638844713,4.957526870727447,4.906920184125454,4.846057262051021,4.78590461484693,4.69789724131919,4.668919847467628,4.625559910780595,4.568194704163277,4.525706426796251,4.483836557755368,4.456331534223864,4.429194216684019,4.40245640417547,4.40245640417547,4.389246374242324,4.376146686922548,4.350290381563288,4.337539270794396,4.294781652100491,4.282405145378299,4.270162328932948,4.270162328932948,4.270162328932948,4.270162328932948,4.270162328932948,4.270162328932948,4.270162328932948,4.270162328932948,4.270162328932948,4.270162328932948,4.270162328932948,4.270162328932948,4.258054658503454,4.258054658503454,4.246083399421535,4.234249632318384,4.2225542591526946,4.210302115396177,4.186947664822579,4.186947664822579,4.186947664822579,4.186947664822579,4.186947664822579,4.186947664822579,4.186947664822579,4.186947664822579,4.186947664822579,4.186947664822579,4.186947664822579,4.186947664822579,4.186947664822579,4.186947664822579,4.186947664822579,4.186947664822579,4.186947664822579,4.186947664822579,4.186947664822579,4.186947664822579,4.1887902047863905],[4.1887902047863905,4.1887902047863905,4.209420014957344,4.292166769548693,4.371636149458787,4.551096867219294,4.762726710852517,4.891996475787537,5.055535803414207,5.190931358810169,5.251421503129926,5.289344293959733,5.297456372098612,5.32191098505507,5.32191098505507,5.32191098505507,5.32191098505507,5.32191098505507,5.32191098505507,5.32191098505507,5.32191098505507,5.32191098505507,5.32191098505507,5.32191098505507,5.32191098505507,5.32191098505507,5.32191098505507,5.32191098505507,5.32191098505507,5.32191098505507,5.32191098505507,5.32191098505507,5.32191098505507,5.32191098505507,5.32191098505507,5.32191098505507,5.369281602678034,5.583122380365116,5.710941777076564,6.001286517931898,6.183035799965726,6.235241568815374,6.251607158827318,6.251607158827318,6.251607158827318,6.251607158827318,6.251607158827318,6.251607158827318,6.251607158827318,6.251607158827318,6.251607158827318,6.251607158827318,6.251607158827318,0.01758897035981266,0.016820724672284237,0.0324368294820756,0.0324368294820756,0.0324368294820756,0.0324368294820756,0.0324368294820756,0.0324368294820756,0.0324368294820756,0.0324368294820756,0.0324368294820756,0.0324368294820756,0.04803770896777704,0.04803770896777704,0.04803770896777704,0.0803960670212589,0.1500869436613046,0.3755306120593913,0.6348300041215525,0.8291226940690399,1.0062918541905264,1.0797820560071378,1.1028812873614102,1.1138401640491145,1.1138401640491145,1.1138401640491145,1.119214851023168,1.1404202716231988,1.1789353036647716,1.2296977144166616,1.276552485702984,1.276552485702984,1.2853720806212514,1.2853720806212514,1.2853720806212514,1.2853720806212514,1.2853720806212514,1.2853720806212514,1.2853720806212514,1.2853720806212514,1.2853720806212514,1.2853720806212514,1.2853720806212514,1.2853720806212514,1.2853720806212514,1.2853720806212514,1.2853720806212514,1.2853720806212514,1.2853720806212514,1.2853720806212514,1.2853720806212514,1.2853720806212514,1.2853720806212514,1.312053182658176,1.3451944747928182,1.4031614208355832,1.4917065075636875,1.5834870695617345,1.5834870695617345,1.6977627436072318,1.7649641328122736,1.8088420837936243,1.8088420837936243,1.8088420837936243,1.8088420837936243,1.8088420837936243,1.8088420837936243,1.8196746820955774,1.8411608156324044,1.8655823102554538,1.8762018171859438,1.9112859373007487,1.9320526521977563,1.9463269388542879,1.9565980376689176,1.9768851091317874,2.025837324368214,2.025837324368214,2.0503457542253614,2.070452733313383,2.080165940682034,2.080165940682034,2.0855993275694527,2.104837210466093,2.104837210466093,2.104837210466093,2.104837210466093,2.104837210466093,2.104837210466093,2.104837210466093,2.104837210466093,2.104837210466093,2.104837210466093,2.104837210466093,2.104837210466093,2.104837210466093,2.104837210466093,2.104837210466093,2.104837210466093,2.104837210466093,2.104837210466093,2.104837210466093,2.104837210466093,2.104837210466093,2.104837210466093,2.104837210466093,2.104837210466093,2.104837210466093,2.0943951023931953]],"response_history":["2"],"rt":12668,"trial_type":"polygon-arrow-question","trial_index":0,"trial_index_global":13,"time_elapsed":213743,"internal_chunk_id":"0-0.3-0"},{"nsides":6,"feedback":"Correct! 4 <img src=./images/hexagon_symbol.png style=width:14px;height:14px> 4 = 2 because 4 steps clockwise on the hexagon from 4 brings us to 2. Equivalently, 4 + 4 = 8 and 8 - 6 = 2.","orientation_history":[0],"rt":1472,"trial_type":"polygon-arrow-feedback","trial_index":0,"trial_index_global":14,"time_elapsed":215215,"internal_chunk_id":"0-0.3-0"},{"nsides":6,"question":"What is 1 <img src=./images/hexagon_symbol.png style=width:14px;height:14px> 3? Try to solve this problem using the arithmetic technique. <br /><br /> (Remember, to perform <img src=./images/hexagon_symbol.png style=width:14px;height:14px> by arithmetic, you start with the first number, and then add the second one to it. If the sum is smaller than 6, that's your result. If the sum is 6 or bigger, you subtract 6 to get your result.)","response_type":"free","response_choices":[],"correct_response":"4","response":"4","explain":false,"explanation":"","explanation_history":[],"orientation_history":[[0],[0,0,0.0004258943524437786,0.0004258943524437786,0.0013163660672139699,0.017143722162950015,0.19151636751511036,0.19151636751511036,0.38045981567458154,0.58731954354451,0.7099426381948841,0.7791441303875282,0.8008359847927979,0.8008359847927979,0.8008359847927979,0.8008359847927979,0.8008359847927979,0.8008359847927979,0.8008359847927979,0.8244972278038866,0.8491770897340308,0.8491770897340308,0.8619100780709777,0.8619100780709777,0.8749107287040249,0.8749107287040249,0.9017307801815893,0.9017307801815893,0.9155574953445806,0.9395315868083712,0.9983413382302919,0.9983413382302919,0.9983413382302919,0.9983413382302919,0.9983413382302919,0.9983413382302919,0.9983413382302919,0.9983413382302919,0.9983413382302919,0.9983413382302919,0.9983413382302919,0.9983413382302919,0.9983413382302919,0.9983413382302919,1.0137444845169756,1.0137444845169756,1.0137444845169756,1.0137444845169756,1.0137444845169756,1.0137444845169756,1.0137444845169756,1.0294294726325977,1.0294294726325977,1.0294294726325977,1.0294294726325977,1.0294294726325977,1.0294294726325977,1.0294294726325977,1.0294294726325977,1.0294294726325977,1.0294294726325977,1.0294294726325977,1.0294294726325977,1.0294294726325977,1.0294294726325977,1.0471975511965976],[1.0471975511965976,1.0471975511965976,1.0471975511965976,1.0471975511965976,1.0471975511965976,1.0471975511965976,1.0471975511965976,1.0471975511965976,1.0660632372182683,1.1189938831044024,1.1189938831044024,1.2031294115284559,1.3230276277348252,1.5135832123754382,1.720895305816089,1.8990445038927,2.018830651730603,2.1680306542281205,2.2553511832281252,2.273116902395153,2.273116902395153,2.273116902395153,2.273116902395153,2.273116902395153,2.273116902395153,2.273116902395153,2.273116902395153,2.273116902395153,2.273116902395153,2.273116902395153,2.273116902395153,2.273116902395153,2.273116902395153,2.273116902395153,2.273116902395153,2.273116902395153,2.273116902395153,2.273116902395153,2.273116902395153,2.273116902395153,2.273116902395153,2.273116902395153,2.273116902395153,2.273116902395153,2.273116902395153,2.273116902395153,2.273116902395153,2.273116902395153,2.273116902395153,2.273116902395153,2.273116902395153,2.273116902395153,2.273116902395153,2.290320699579223,2.3403137549434647,2.3403137549434647,2.3996527651295207,2.481692406276286,2.5537183321247237,2.6031644566671486,2.6480322834519043,2.6593276925989904,2.6759457926496135,2.6923580692588818,2.7517361694300644,2.801140938956619,2.8414051552345607,2.889413839791225,2.889413839791225,2.889413839791225,2.889413839791225,2.889413839791225,2.889413839791225,2.9165637164767957,2.961867435879813,3.054029041662968,3.1353767545687607,3.1701617467425396,3.1693636623150154,3.1693636623150154,3.1693636623150154,3.1693636623150154,3.1693636623150154,3.1693636623150154,3.1693636623150154,3.1693636623150154,3.1693636623150154,3.1693636623150154,3.1693636623150154,3.1693636623150154,3.1693636623150154,3.1693636623150154,3.1693636623150154,3.1693636623150154,3.1807939882969873,3.3589621092219897,3.4969484562324125,3.624827885317393,3.7137145218884804,3.7519604004647564,3.7519604004647564,3.7519604004647564,3.7519604004647564,3.765917126335064,3.7926514213066396,3.835588131949941,3.835588131949941,3.8646319503873583,3.8997933323423863,3.9065920401912635,3.9203744374109273,3.9203744374109273,3.9203744374109273,3.9203744374109273,3.9203744374109273,3.9203744374109273,3.9269781150018734,3.9462347219511127,3.9823791115940064,4.020569244104424,4.041861218651254,4.0663122395785045,4.071253286407114,4.071253286407114,4.071253286407114,4.071253286407114,4.071253286407114,4.071253286407114,4.071253286407114,4.088074129699976,4.113594656180075,4.118009174486575,4.118009174486575,4.118009174486575,4.118009174486575,4.118009174486575,4.118009174486575,4.118009174486575,4.118009174486575,4.118009174486575,4.118009174486575,4.12665271308385,4.145007354190829,4.164204995416531,4.164204995416531,4.175176342020562,4.1827500097878225,4.1827500097878225,4.1827500097878225,4.1827500097878225,4.1827500097878225,4.1827500097878225,4.1827500097878225,4.1827500097878225,4.1827500097878225,4.1827500097878225,4.1827500097878225,4.1827500097878225,4.1827500097878225,4.1827500097878225,4.1827500097878225,4.186457653201986,4.1887902047863905]],"response_history":["4"],"rt":9764,"trial_type":"polygon-arrow-question","trial_index":0,"trial_index_global":15,"time_elapsed":224980,"internal_chunk_id":"0-0.3-0"},{"nsides":6,"feedback":"Correct! 1 <img src=./images/hexagon_symbol.png style=width:14px;height:14px> 3 = 4 because 1 + 3 = 4 and 4 - 6 = 4.  Equivalently, 3 steps clockwise on the hexagon from 1 brings us to 4.","orientation_history":[0],"rt":1698,"trial_type":"polygon-arrow-feedback","trial_index":0,"trial_index_global":16,"time_elapsed":226679,"internal_chunk_id":"0-0.3-0"},{"nsides":6,"question":"What is 4 <img src=./images/hexagon_symbol.png style=width:14px;height:14px> 3? <br /><br /> (Remember, to perform <img src=./images/hexagon_symbol.png style=width:14px;height:14px>, you can either use a method based on the hexagon at right, or a method based on arithmetic.<br /><br /><b>Hexagon method:</b> you can use the interactive diagram on the right, or perform the operation in your mind. Point the arrow at the first number, then move the arrow the second number of points clockwise around the hexagon. The number the arrow arrives at is your result. <br /><br /><b>Arithmetic method:</b> you start with the first number, and then add the second one to it. If the sum is smaller than 6, that's your result. If the sum is 6 or bigger, you subtract 6 to get your result.)","response_type":"free","response_choices":[],"correct_response":"1","response":"1","explain":false,"explanation":"","explanation_history":[],"orientation_history":[[0],[0,0,0,0,0,0,0,0,0.015600879485701435,0.062236947728321335,0.0794173877436275,0.09506828363297215,0.19799209984672705,0.2586066564813516,0.3648416081340393,0.4723864626938279,0.6158073597900549,0.7285229214455026,0.8563650480744336,0.9616545564023827,1.1231178761730365,1.2564607080651329,1.2564607080651329,1.4024903190544409,1.5565040231710334,1.653810821326068,1.7651577372006524,1.866383146294569,1.9811488556719197,2.2005996622153154,2.3866048274013356,2.5892146766754065,2.760307931914379,2.8856416517448826,2.9607930802858218,3.0185066938947873,3.0577697585485835,3.0708996190624855,3.0708996190624855,3.097195684686769,3.1235099556322807,3.1629358817704665,3.2297817461778635,3.3205354068216946,3.4079145448973307,3.4838499662660025,3.563131291983061,3.5953875420120607,3.6384272685858847,3.6384272685858847,3.6549045283155617,3.6612103546912413,3.678019244531405,3.7190421274869365,3.74377870312867,3.7791649780956575,3.8067014009224756,3.8067014009224756,3.8148468844017427,3.8338831376925935,3.8422307150976582,3.8422307150976582,3.8594033625379525,3.8867422182665563,3.9139307986299516,3.959883098558405,3.9880803182885725,4.0608996609716,4.078861800819457,4.107482478786261,4.107482478786261,4.107482478786261,4.107482478786261,4.107482478786261,4.107482478786261,4.107482478786261,4.107482478786261,4.107482478786261,4.107482478786261,4.107482478786261,4.107482478786261,4.118411924193339,4.142927445342943,4.142927445342943,4.160420755547351,4.200261866759085,4.217501537953615,4.217501537953615,4.217501537953615,4.217501537953615,4.178846768856468,4.127854821632129,4.110566383958632,4.110566383958632,4.110566383958632,4.110566383958632,4.110566383958632,4.110566383958632,4.110566383958632,4.110566383958632,4.110566383958632,4.110566383958632,4.110566383958632,4.110566383958632,4.110566383958632,4.1319962442754115,4.163661405980314,4.223674299058397,4.322378476683849,4.489964687357407,4.746629171877887,4.952941305629121,5.1114757600769805,5.2020589278026375,5.238273537113817,5.261547334348295,5.261547334348295,5.261547334348295,5.261547334348295,5.261547334348295,5.261547334348295,5.261547334348295,5.261547334348295,5.261547334348295,5.261547334348295,5.261547334348295,5.261547334348295,5.261547334348295,5.261547334348295,5.261547334348295,5.261547334348295,5.261547334348295,5.261547334348295,5.261547334348295,5.261547334348295,5.261547334348295,5.261547334348295,5.261547334348295,5.261547334348295,5.261547334348295,5.284898480351858,5.284898480351858,5.3816455169021475,5.55068555088304,5.893174803478746,6.193189651033595,0.1734019763995096,0.28504629448188634,0.3013798581436442,0.3430937825773157,0.3430937825773157,0.3430937825773157,0.3430937825773157,0.3430937825773157,0.3430937825773157,0.3430937825773157,0.3430937825773157,0.3430937825773157,0.3430937825773157,0.3430937825773157,0.3430937825773157,0.3430937825773157,0.3430937825773157,0.3430937825773157,0.3430937825773157,0.3430937825773157,0.3430937825773157,0.3430937825773157,0.3430937825773157,0.3430937825773157,0.3430937825773157,0.3430937825773157,0.3430937825773157,0.3430937825773157,0.3430937825773157,0.3430937825773157,0.3430937825773157,0.3430937825773157,0.3648416081340393,0.432407775570538,0.432407775570538,0.5521331735635877,0.6223960634892536,0.6828508651818898,0.7423941668174213,0.7423941668174213,0.7423941668174213,0.7423941668174213,0.7423941668174213,0.7779633561522501,0.7902871804799556,0.7902871804799556,0.838296570498351,0.8621700546672264,0.8755103305379438,0.8755103305379438,0.8755103305379438,0.8755103305379438,0.8755103305379438,0.8891350798211035,0.9172536221774209,0.9172536221774209,0.9172536221774209,0.9172536221774209,0.9172536221774209,0.9172536221774209,0.9172536221774209,0.9465539314831025,0.9465539314831025,0.9616545564023827,0.992767652475381,0.992767652475381,1.0087829961617216,1.0087829961617216,1.0087829961617216,1.0087829961617216,1.0087829961617216,1.0087829961617216,1.0087829961617216,1.0087829961617216,1.0087829961617216,1.0087829961617216,1.0087829961617216,1.0087829961617216,1.0087829961617216,1.0087829961617216,1.0087829961617216,1.0087829961617216,1.0087829961617216,1.0087829961617216,1.0087829961617216,1.0087829961617216,1.0087829961617216,1.0087829961617216,1.0087829961617216,1.0087829961617216,1.0087829961617216,1.0087829961617216,1.0087829961617216,1.0251051803056006,1.0251051803056006,1.0251051803056006,1.0251051803056006,1.0251051803056006,1.0251051803056006,1.0251051803056006,1.0251051803056006,1.0251051803056006,1.0251051803056006,1.0251051803056006,1.0251051803056006,1.0251051803056006,1.0251051803056006,1.0251051803056006,1.0251051803056006,1.0251051803056006,1.0251051803056006,1.0251051803056006,1.0251051803056006,1.0251051803056006,1.0251051803056006,1.0251051803056006,1.0251051803056006,1.0251051803056006,1.0251051803056006,1.0251051803056006,1.0251051803056006,1.0251051803056006,1.0471975511965976],[1.0600323189664143,1.0600323189664143,1.073080214282923,1.073080214282923,1.073080214282923,1.1056233930058026,1.1246713374679267,1.2130723232110574,1.5897414206159906,2.1753109389404486,2.8245701414847564,3.0978892107936553,3.0978892107936553,3.285565236812558,3.3896058805255476,3.486533273277384,3.5647316971030363,3.7111638680075663,3.956646309429343,4.168303976677961,4.304706581078908,4.39579993162485,4.421292586540224,4.421292586540224,4.421292586540224,4.421292586540224,4.421292586540224,4.421292586540224,4.421292586540224,4.421292586540224,4.421292586540224,4.421292586540224,4.421292586540224,4.421292586540224,4.417857562669393,4.410788338503283,4.399658287421664,4.391863855633192,4.381847884965794,4.373563070379953,4.373563070379953,4.373563070379953,4.373563070379953,4.359108294880681,4.354664976800851,4.330341989600585,4.1887902047863905],[4.1887902047863905,4.1887902047863905,4.1887902047863905,4.1887902047863905,4.255358368562215,4.345040340664376,4.448944768529634,4.573238742817745,4.573238742817745,4.715844765754028,4.825298420574342,4.939376566717966,5.131351412334782,5.32148081197777,5.612508176192884,5.8816186499342855,6.054637200972664,0.043841173859549665,0.26179938779914913,0.4289011877302549,0.6874905516116409,0.8095852373311262,0.8604237466538787,0.888542289010196,0.9329432232351579,0.9329432232351579,0.9329432232351579,0.9329432232351579,0.9329432232351579,0.9329432232351579,0.9427404277229763,0.9827707117710438,1.0319315616498175,1.1185050159818877,1.2079602918224321,1.2937338454624983,1.3571376311389245,1.3709204896232858,1.3709204896232858,1.3709204896232858,1.3709204896232858,1.3709204896232858,1.3709204896232858,1.3709204896232858,1.352755189075718,1.324622319786262,1.2905964368067147,1.2905964368067147,1.2730092327399527,1.2550365955820317,1.21793276267188,1.203447687074582,1.184263725506785,1.1556142981507218,1.127561012451718,1.127561012451718,1.127561012451718,1.127561012451718,1.127561012451718,1.127561012451718,1.127561012451718,1.127561012451718,1.127561012451718,1.127561012451718,1.127561012451718,1.127561012451718,1.127561012451718,1.127561012451718,1.127561012451718,1.127561012451718,1.127561012451718,1.127561012451718,1.0471975511965976]],"response_history":["1"],"rt":589628,"trial_type":"polygon-arrow-question","trial_index":0,"trial_index_global":17,"time_elapsed":816308,"internal_chunk_id":"0-0.3-0"},{"nsides":6,"feedback":"Correct! 4 <img src=./images/hexagon_symbol.png style=width:14px;height:14px> 3 = 1 because 3 steps clockwise on the hexagon from 4 brings us to 1. Equivalently, 4 + 3 = 7 and 7 - 6 = 1.","orientation_history":[0],"rt":1822,"trial_type":"polygon-arrow-feedback","trial_index":0,"trial_index_global":18,"time_elapsed":818131,"internal_chunk_id":"0-0.3-0"},{"nsides":6,"question":"What is 0 <img src=./images/hexagon_symbol.png style=width:14px;height:14px> 5? <br /><br /> (Remember, to perform <img src=./images/hexagon_symbol.png style=width:14px;height:14px>, you can either use a method based on the hexagon at right, or a method based on arithmetic.<br /><br /><b>Hexa gon meth od:</b> you can use the interactive diagram on the right, or perform the operation in your mind. Point the arrow at the first number, then move the arrow the second number of points clockwise around the hexagon. The number the arrow arrives at is your result. <br /><br /><b>Arithmetic method:</b> you start with the first number, and then add the second one to it. If the sum is smaller than 6, that's your result. If the sum is 6 or bigger, you subtract 6 to get your result.)","response_type":"free","response_choices":[],"correct_response":"5","response":"5","explain":false,"explanation":"","explanation_history":[],"orientation_history":[[0],[0,0,0,0,0,0,0,0,0,0.015143404044005493,0.015143404044005493,-6.2225977873420355,-6.177278404023981,-6.049398502003248,-5.881182597142226,-5.699210225053813,-5.575763974723818,-5.521205113166595,-5.499740266298616,-5.499740266298616,-5.499740266298616,-5.499740266298616,-5.499740266298616,-5.499740266298616,-5.499740266298616,-5.499740266298616,-5.489229090705155,-5.44575767702157,-5.424042488471832,-5.359222793002907,-5.316478040942004,-5.265965616128029,-5.245411481957882,-5.245411481957882,-5.245411481957882,-5.245411481957882,-5.245411481957882,-5.245411481957882,-5.245411481957882,-5.245411481957882,-5.245411481957882,-5.245411481957882,-5.245411481957882,-5.245411481957882,-5.245411481957882,-5.245411481957882,-5.245411481957882,-5.245411481957882,-5.245411481957882,-5.199382600793536,-5.08500681131943,-5.056935935821512,-5.04266122094402,-4.984046382296164,-4.938611833110238,-4.860505719816954,-4.763879601083911,-4.632954486049894,-4.567840892504474,-4.519606111248711,-4.519606111248711,-4.472121707603751,-4.472121707603751,-4.433132514673197,-4.365525966853511,-4.319550983201407,-4.275124435097143,-4.26067601357811,-4.218447611465108,-4.218447611465108,-4.218447611465108,-4.218447611465108,-4.218447611465108,-4.204749838092242,-4.162949106219392,-4.1364401659389225,-4.115366002942408,-4.089908540916272,-4.089908540916272,-4.089908540916272,-4.089908540916272,-4.089908540916272,-4.089908540916272,-4.056610180226685,-4.035582072588679,-4.014429631872559,-4.014429631872559,-3.96326522084429,-3.873973696226825,-3.699301497218585,-3.5246292982103453,-3.389598552676129,-3.2810771676393564,-3.205612844998198,-3.1618886024404023,-3.1356843028437362,-3.099251283816832,-3.0642747618282717,-3.053224734108064,-3.03008258722028,-3.03008258722028,-3.03008258722028,-3.03008258722028,-3.03008258722028,-3.03008258722028,-3.03008258722028,-3.03008258722028,-3.03008258722028,-3.03008258722028,-3.03008258722028,-3.03008258722028,-3.03008258722028,-3.03008258722028,-3.03008258722028,-3.03008258722028,-3.03008258722028,-2.98408267660313,-2.913903333821137,-2.829819595142975,-2.730792516558653,-2.6629562119944032,-2.616573211186769,-2.616573211186769,-2.616573211186769,-2.616573211186769,-2.616573211186769,-2.616573211186769,-2.606437522011891,-2.58074100664157,-2.5649388692220385,-2.539269372425377,-2.513742440685853,-2.4950019562749466,-2.4950019562749466,-2.4858138534317886,-2.4610714289225784,-2.427907648183681,-2.364641027937049,-2.30368216494685,-2.2403954365953647,-2.1742952428352966,-2.1685906381125104,-2.1685906381125104,-2.1685906381125104,-2.1685906381125104,-2.1685906381125104,-2.1685906381125104,-2.1607520528589426,-2.128505170423688,-2.1033707997242317,-2.0406636206238034,-1.9619217737639252,-1.8827981753061636,-1.7112377783514034,-1.495588971406332,-1.3683117523531827,-1.2678927468955,-1.202880329487689,-1.1934409633366307,-1.1934409633366307,-1.1934409633366307,-1.1934409633366307,-1.1934409633366307,-1.1934409633366307,-1.1934409633366307,-1.1934409633366307,-1.1934409633366307,-1.1934409633366307,-1.1934409633366307,-1.1934409633366307,-1.1934409633366307,-1.1934409633366307,-1.1840656146559247,-1.1840656146559247,-1.1840656146559247,-1.1840656146559247,-1.1840656146559247,-1.1840656146559247,-1.1840656146559247,-1.1711689092024962,-1.1581235327767683,-1.1449314161333142,-1.1181159304287949,-1.113875073749245,-1.113875073749245,-1.113875073749245,-1.113875073749245,-1.113875073749245,-1.113875073749245,-1.113875073749245,-1.113875073749245,-1.113875073749245,-1.113875073749245,-1.113875073749245,-1.113875073749245,-1.113875073749245,-1.113875073749245,-1.113875073749245,-1.113875073749245,-1.113875073749245,-1.113875073749245,-1.113875073749245,-1.113875073749245,-1.113875073749245,-1.113875073749245,-1.113875073749245,-1.113875073749245,-1.113875073749245,5.235987755982988]],"response_history":["5"],"rt":8730,"trial_type":"polygon-arrow-question","trial_index":0,"trial_index_global":19,"time_elapsed":826861,"internal_chunk_id":"0-0.3-0"},{"nsides":6,"feedback":"Correct! 0 <img src=./images/hexagon_symbol.png style=width:14px;height:14px> 5 = 5 because 5 steps clockwise on the hexagon from 0 brings us to 5. Equivalently, 0 + 5 = 5 and 5 is less than 6.","orientation_history":[0],"rt":1292,"trial_type":"polygon-arrow-feedback","trial_index":0,"trial_index_global":20,"time_elapsed":828155,"internal_chunk_id":"0-0.3-0"},{"nsides":6,"question":"What is 2 <img src=./images/hexagon_symbol.png style=width:14px;height:14px> 5? <br /><br /> (Remember, to perform <img src=./images/hexagon_symbol.png style=width:14px;height:14px>, you can either use a method based on the hexagon at right, or a method based on arithmetic.<br /><br /><b>Hexagon method:</b> you can use the interactive diagram on the right, or perform the operation in your mind. Point the arrow at the first number, then move the arrow the second number of points clockwise around the hexagon. The number the arrow arrives at is your result. <br /><br /><b>Arithmetic method:</b> you start with the first number, and then add the second one to it. If the sum is smaller than 6, that's your result. If the sum is 6 or bigger, you subtract 6 to get your result.)","response_type":"free","response_choices":[],"correct_response":"1","response":"1","explain":false,"explanation":"","explanation_history":[],"orientation_history":[[0],[0,0,0,0,0,0.014572478890553242,0.029182526516683183,0.029182526516683183,0.029182526516683183,0.029182526516683183,0.029182526516683183,0.029182526516683183,0.029182526516683183,0.029182526516683183,0.029182526516683183,0.029182526516683183,0.029182526516683183,0.029182526516683183,6.283185307179586],[6.283185307179586,6.283185307179586,6.283185307179586,6.283185307179586,6.283185307179586,0.0445536440787746,0.09086424408677085,0.16417457268173608,0.33340422754414956,0.5994437519037152,1.0597801147283175,1.4788476144281377,1.6715070797841918,1.811292948221648,1.856350997564505,1.878499274004013,1.9219501693955436,1.943223555419605,1.984804329821115,1.984804329821115,2.0446188249000006,2.101213001802491,2.1545071112004526,2.220449100981723,2.2329484500010848,2.264245777825586,2.3053109631133335,2.3053109631133335,2.3053109631133335,2.3053109631133335,2.3053109631133335,2.3053109631133335,2.3053109631133335,2.3053109631133335,2.3053109631133335,2.3053109631133335,2.3053109631133335,2.2825161698736496,2.233832623068647,2.2016543218591744,2.1571011391044874,2.1571011391044874,2.1571011391044874,2.1571011391044874,2.1571011391044874,2.127142842188331,2.127142842188331,2.1134518878651622,2.084677544035925,2.0638472239997077,2.0638472239997077,2.0638472239997077,2.0638472239997077,2.0638472239997077,2.0638472239997077,2.0638472239997077,2.0638472239997077,2.0638472239997077,2.0638472239997077,2.0638472239997077,2.0638472239997077,2.0638472239997077,2.0638472239997077,2.0638472239997077,2.0638472239997077,2.084677544035925,2.084677544035925,2.084677544035925,2.084677544035925,2.084677544035925,2.084677544035925,2.084677544035925,2.084677544035925,2.084677544035925,2.084677544035925,2.084677544035925,2.084677544035925,2.084677544035925,2.084677544035925,2.084677544035925,2.084677544035925,2.084677544035925,2.084677544035925,2.084677544035925,2.084677544035925,2.0943951023931953],[2.0943951023931953,2.0943951023931953,2.1212896963375374,2.1212896963375374,2.1463641424589706,2.174258928480371,2.2068256195757083,2.2479013563171995,2.2874249991719964,2.350943676740285,2.4283139896014942,2.5585709733628232,2.6672067387300373,2.7984056489393696,2.9030448886011064,2.9582036045292854,2.9849725288523326,3.0204069901425346,3.0204069901425346,3.0204069901425346,3.0204069901425346,3.0204069901425346,3.0204069901425346,3.0204069901425346,3.0204069901425346,3.036745405455358,3.087512557134036,3.185688912060037,3.267342215045871,3.344889099702212,3.375980156236281,3.375980156236281,3.375980156236281,3.375980156236281,3.375980156236281,3.375980156236281,3.375980156236281,3.375980156236281,3.4963950347578248,3.6180202817627527,3.802929945821777,3.95469510114948,4.087921852789858,4.167127121658222,4.188438282018382,4.235532825770683,4.235532825770683,4.235532825770683,4.235532825770683,4.241777470336622,4.298913784131948,4.3319441607918385,4.341570818880508,4.341570818880508,4.341570818880508,4.341570818880508,4.341570818880508,4.341570818880508,4.341570818880508,4.341570818880508,4.341570818880508,4.341570818880508,4.341570818880508,4.3527996613408515,4.364132310675623,4.406391088009379,4.476129540921224,4.574944587132301,4.784182321945,5.0102464642583335,5.152503706144316,5.254012945545462,5.254012945545462,5.266159683543691,5.278137472372553,5.278137472372553,5.278137472372553,5.278137472372553,5.278137472372553,5.278137472372553,5.278137472372553,5.278137472372553,5.278137472372553,5.278137472372553,5.278137472372553,5.278137472372553,5.278137472372553,5.278137472372553,5.297217654706324,5.335877812169987,5.406062501926038,5.425822775453215,5.47502925392752,5.47502925392752,5.546764813968437,5.673819262066141,5.892665261762596,6.086654840232729,6.294224467627884,0.12265599050499487,0.16741315845140226,0.19534672199345415,0.19534672199345415,0.19534672199345415,0.19534672199345415,0.19534672199345415,0.19534672199345415,0.19534672199345415,0.19534672199345415,0.19534672199345415,0.19534672199345415,0.19534672199345415,0.19534672199345415,0.19534672199345415,0.19534672199345415,0.19534672199345415,0.19534672199345415,0.19534672199345415,0.19534672199345415,0.19534672199345415,0.19534672199345415,0.19534672199345415,0.19534672199345415,0.19534672199345415,0.2398480371667142,0.40523447958577674,0.6027765738946291,0.8625670161612782,0.9856804087918938,1.0748159499608918,1.1029489374713066,1.1029489374713066,1.124382180451632,1.1296717011720905,1.1505585167874683,1.1505585167874683,1.1767133510863181,1.1767133510863181,1.1767133510863181,1.1767133510863181,1.1767133510863181,1.1767133510863181,1.1767133510863181,1.1767133510863181,1.1767133510863181,1.1767133510863181,1.1767133510863181,1.1767133510863181,1.1767133510863181,1.1660928353865974,1.155575423848813,1.155575423848813,1.1451619151025723,1.1246492744623748,1.1246492744623748,1.1246492744623748,1.1246492744623748,1.1246492744623748,1.1246492744623748,1.1246492744623748,1.1246492744623748,1.1246492744623748,1.1246492744623748,1.1246492744623748,1.1246492744623748,1.1246492744623748,1.1246492744623748,1.1246492744623748,1.1246492744623748,1.1246492744623748,1.1246492744623748,1.1246492744623748,1.1246492744623748,1.0471975511965976]],"response_history":["`","1"],"rt":13331,"trial_type":"polygon-arrow-question","trial_index":0,"trial_index_global":21,"time_elapsed":841486,"internal_chunk_id":"0-0.3-0"},{"nsides":6,"feedback":"Correct! 2 <img src=./images/hexagon_symbol.png style=width:14px;height:14px> 5 = 1 because 5 steps clockwise on the hexagon from 2 brings us to 1. Equivalently, 2 + 5 = 7 and 7 - 6 = 1.","orientation_history":[0],"rt":1461,"trial_type":"polygon-arrow-feedback","trial_index":0,"trial_index_global":22,"time_elapsed":842949,"internal_chunk_id":"0-0.3-0"},{"nsides":6,"instructions":"Now we're going to discuss a couple special properties of this new operation, <img src=./images/hexagon_symbol.png style=width:14px;height:14px> that we've  learned.  First, notice that the number 0 behaves in a special way under <img src=./images/hexagon_symbol.png style=width:14px;height:14px>. Whenever we combine 0 with anything else, we get that same thing back. We'll say that 0 is the <i>identity</i> under <img src=./images/hexagon_symbol.png style=width:14px;height:14px>, because when you combine it with something it gives you that identical thing back.","orientation_history":[0],"rt":1740,"trial_type":"polygon-arrow-instructions","trial_index":0,"trial_index_global":23,"time_elapsed":844693,"internal_chunk_id":"0-0"},{"nsides":6,"instructions":"Now that we know 0 is the identity under <img src=./images/hexagon_symbol.png style=width:14px;height:14px>, we're going to make a new definition. We'll say that the <i>inverse</i> of a number is the element that you combine with it to produce the identity. For example, 5 <img src=./images/hexagon_symbol.png style=width:14px;height:14px> 1 = 0, so we say 1 is  the inv erse of 5 under <img src=./images/hexagon_symbol.png style=width:14px;height:14px>, (remember 0 is the identity under <img src=./images/hexagon_symbol.png style=width:14px;height:14px>). Similarly, 3 is its own inverse under <img src=./images/hexagon_symbol.png style=width:14px;height:14px>, because 3 <img src=./images/hexagon_symbol.png style=width:14px;height:14px> 3 = 0.","orientation_history":[0],"rt":2440,"trial_type":"polygon-arrow-instructions","trial_index":0,"trial_index_global":24,"time_elapsed":847133,"internal_chunk_id":"0-0"},{"nsides":6,"question":"Now you try! What is the inverse of 4 under <img src=./images/hexagon_symbol.png style=width:14px;height:14px>? <br /><br /> (Remember, the inverse of an element is the thing which you combine with it to produce the identity.)","response_type":"free","response_choices":[],"correct_response":"2","response":"1","explain":false,"explanation":"","explanation_history":[],"orientation_history":[[0],[0,0,0,0,0,0,0,0,6.210994359344082,6.080003383714566,5.880581846419723,5.706163341831106,5.569496692388982,5.410461835891621,5.334997513250464,5.255535329373234,5.240406975012897,5.240406975012897,5.240406975012897,5.240406975012897,5.270133759042933,5.37912124824441,5.5164574988090385,5.763610376492795,6.0189219431313665,6.247627178568128,0.1579060719355423,0.24089764803342173,0.3009299571633144,0.32045209472941805,0.33971269424449946,0.33971269424449946,0.35870297921266436,0.43182080635600695,0.4835375900296044,0.5325040983018505,0.6576784290028352,0.8063928944036429,0.8914088977380057,0.9685089806599324,1.0112844286702247,1.018467376381875,1.042591903208966,1.042591903208966,1.042591903208966,1.042591903208966,1.042591903208966,1.042591903208966,1.042591903208966,1.042591903208966,1.042591903208966,1.042591903208966,1.042591903208966,1.042591903208966,1.042591903208966,1.042591903208966,1.042591903208966,1.042591903208966,1.042591903208966,1.042591903208966,1.042591903208966,1.042591903208966,1.042591903208966,1.042591903208966,1.042591903208966,1.042591903208966,1.042591903208966,1.0471975511965976]],"response_history":["1"],"rt":9888,"trial_type":"polygon-arrow-question","trial_index":0,"trial_index_global":25,"time_elapsed":857022,"internal_chunk_id":"0-0.7-0"},{"nsides":6,"feedback":"Sorry, that was incorrect. The inverse of 4 under <img src=./images/hexagon_symbol.png style=width:14px;height:14px> is 2 because 4 <img src=./images/hexagon_symbol.png style=width:14px;height:14px> 2 = 0, and 0 is the identity under <img src=./images/hexagon_symbol.png style=width:14px;height:14px>.","orientation_history":[0],"rt":10743,"trial_type":"polygon-arrow-feedback","trial_index":0,"trial_index_global":26,"time_elapsed":867766,"internal_chunk_id":"0-0.7-0"},{"nsides":6,"question":"What is the inverse of 1 under <img src=./images/hexagon_symbol.png style=width:14px;height:14px>? <br /><br /> (Remember, the inverse of a n elemen t is the thing which you combine with it to produce the identity.)","response_type":"free","response_choices":[],"correct_response":"5","response":"2","explain":false,"explanation":"","explanation_history":[],"orientation_history":[[0]],"response_history":["1","2"],"rt":13555,"trial_type":"polygon-arrow-question","trial_index":0,"trial_index_global":27,"time_elapsed":881322,"internal_chunk_id":"0-0.7-0"},{"nsides":6,"feedback":"Sorry, that was incorrect. The inverse of 1 under <img src=./images/hexagon_symbol.png style=width:14px;height:14px> is 5 because 1 <img src=./images/hexagon_symbol.png style=width:14px;height:14px> 5 = 0, and 0 is the identity under <img src=./images/hexagon_symbol.png style=width:14px;height:14px>.","orientation_history":[0],"rt":7379,"trial_type":"polygon-arrow-feedback","trial_index":0,"trial_index_global":28,"time_elapsed":888702,"internal_chunk_id":"0-0.7-0"},{"nsides":6,"question":"What is the inverse of 3 under <img src =./ima ges/hexagon_symbol.png style=width:14px;height:14px>? <br /><br /> (Remember, the inverse of an element is the thing which you combine with it to produce the identity.)","response_type":"free","response_choices":[],"correct_response":"3","response":"3","explain":false,"explanation":"","explanation_history":[],"orientation_history":[[0],[0,0,0,0,0,0,0,0,0,0,0,0,0,0,0,0,0,0,0,0,0,0,0,0,0,0,0,0,0,0,0,0,0,0,0,0,0,0,0,0,0,0,0,0,0,0,0,0,0,0,0,0,0,0,0,0,0,0,0,0,0,0,0,0,0,0,0,0,0,0,0,0,0,0,0,0,0,0,0,0,0,0,0,0,0,0,0,0,0,0,0,0,0,0,0,0,0,0,0,0,0,0,0,0,0,0,0,0,0,0,0,0,0,0.01448565478606123,0.028959156326030744,0.028959156326030744,0.05784559147309487,0.05784559147309487,0.05784559147309487,0.05784559147309487,0.05784559147309487,0.05784559147309487,0.05784559147309487,0.05784559147309487,0.05784559147309487,0.05890558683611169,0.0961654821083957,0.10360028935359389,0.10986325548126152,0.12191086533544748,0.16536176072697817,0.24611065268184107,0.5046543751810229,0.5046543751810229,1.9150752579999688,2.5754459319957466,2.763121958014649,2.9084319686503513,2.981088656813018,3.057446340795725,3.1066955838377552,3.181592370765024,3.226769567015455,3.268997969128457,3.3069544143167713,3.327281982490182,3.33819424774704,3.332496303714061,3.332496303714061,3.345769860398235,3.345769860398235,3.345769860398235,3.345769860398235,3.345769860398235,3.345769860398235,3.358965575373682,3.410895023732621,3.4781318012667137,3.4781318012667137,3.778177635968773,3.778177635968773,3.9531271156031145,4.067495819845682,4.106979194136847,4.124642830926217,4.124642830926217,4.124642830926217,4.124642830926217,4.124642830926217,4.124642830926217,4.124642830926217,4.124642830926217,4.124642830926217,4.124642830926217,4.124642830926217,4.124642830926217,4.124642830926217,4.124642830926217,4.124642830926217,4.124642830926217,4.124642830926217,4.124642830926217,4.124642830926217,4.124642830926217,4.124642830926217,4.133629052461258,4.199437830852511,4.199437830852511,4.219175397323424,4.219175397323424,4.219175397323424,4.219175397323424,4.219175397323424,4.219175397323424,4.219175397323424,4.219175397323424,4.219175397323424,4.219175397323424,4.219175397323424,4.219175397323424,4.219175397323424,4.219175397323424,4.219175397323424,4.219175397323424,4.219175397323424,4.219175397323424,4.219175397323424,4.219175397323424,4.219175397323424,4.219175397323424,4.219175397323424,4.219175397323424,4.219175397323424,4.219175397323424,4.219175397323424,4.219175397323424,4.219175397323424,4.219175397323424,4.219175397323424,4.219175397323424,4.219175397323424,4.219175397323424,4.219175397323424,4.219175397323424,4.219175397323424,4.219175397323424,4.219175397323424,4.219175397323424,4.219175397323424,4.219175397323424,4.219175397323424,4.219175397323424,4.219175397323424,4.219175397323424,4.219175397323424,4.219175397323424,4.219175397323424,4.219175397323424,4.219175397323424,4.219175397323424,4.219175397323424,4.219175397323424,4.219175397323424,4.219175397323424,4.219175397323424,4.219175397323424,4.219175397323424,4.219175397323424,4.219175397323424,4.219175397323424,4.219175397323424,4.219175397323424,4.219175397323424,4.219175397323424,4.219175397323424,4.219175397323424,4.219175397323424,4.219175397323424,4.219175397323424,4.219175397323424,4.229199170209311,4.414589276943736,4.570387683103951,4.7874010596708,4.887885529237906,4.924696089373075,4.948899927962224,4.948899927962224,4.948899927962224,4.948899927962224,4.948899927962224,4.948899927962224,4.948899927962224,4.948899927962224,4.948899927962224,4.948899927962224,4.948899927962224,4.996396172905369,5.031141542430863,5.065071075137409,5.129470292542695,5.187854567572918,5.273321891854474,5.365729830578994,5.460398643495254,5.475776749404334,5.505847971366942,5.505847971366942,5.505847971366942,5.5135891646354125,5.5135891646354125,5.578247111059394,5.645784513933841,5.73637105688124,5.81039350172243,5.848030218981052,5.863801781829003,5.863801781829003,5.863801781829003,5.863801781829003,5.8793768462809455,5.8903995767726265,5.928077327695773,5.969327334056734,6.012542185548483,6.062369674084369,6.062369674084369,6.075722758148516,6.088840068321608,6.114374792187967,6.13758191963154,6.150960993309993,6.183791774664364,6.194362680946421,6.194362680946421,6.194362680946421,6.194362680946421,6.194362680946421,6.194362680946421,6.194362680946421,6.194362680946421,6.194362680946421,6.194362680946421,6.194362680946421,6.194362680946421,6.227050989015497,0.006123896560103814,0.016110948863218733,0.015499265791377947,0.02548694805778995,0.035466656656442774,0.03497282953609138,0.03497282953609138,0.03497282953609138,0.03497282953609138,0.03497282953609138,0.03497282953609138,0.03497282953609138,0.03497282953609138,0.03497282953609138,0.03497282953609138,0.03497282953609138,0.03497282953609138,0.03497282953609138,0.03497282953609138,0.03497282953609138,0.03497282953609138,0.03497282953609138,0.03497282953609138,0.03497282953609138,0.03497282953609138,0.015202500541409592,0.005307653500892906,-0.004591072477511338,-0.004591072477511338,-0.004591072477511338,-0.004591072477511338,-0.004591072477511338,-0.004591072477511338,-0.004591072477511338,-0.004591072477511338,-0.004591072477511338,-0.004591072477511338,-0.004591072477511338,-0.004591072477511338,-0.004591072477511338,-0.004591072477511338,-0.004591072477511338,-0.004591072477511338,-0.004591072477511338,-0.004591072477511338,-0.004591072477511338,-0.004591072477511338,-0.004591072477511338,-0.004591072477511338,-0.004591072477511338,-0.004591072477511338,-0.004591072477511338,-0.004591072477511338,-0.004591072477511338,-0.004591072477511338,-0.004591072477511338,-0.004591072477511338,-0.004591072477511338,-0.004591072477511338,-0.004591072477511338,-0.004591072477511338,-0.004591072477511338,-0.004591072477511338,-0.004591072477511338,-0.004591072477511338,-0.004591072477511338,-0.004591072477511338,-0.004591072477511338,-0.004591072477511338,-0.004591072477511338,-0.004591072477511338,-0.004591072477511338,-0.004591072477511338,-0.004591072477511338,-0.004591072477511338,-0.004591072477511338,-0.004591072477511338,-0.004591072477511338,-0.004591072477511338,-0.004591072477511338,-0.004591072477511338,-0.004591072477511338,-0.004591072477511338,-0.004591072477511338,-0.004591072477511338,-0.004591072477511338,-0.004591072477511338,-0.004591072477511338,-0.004591072477511338,-0.004591072477511338,-0.004591072477511338,-0.004591072477511338,-0.004591072477511338,-0.004591072477511338,-0.004591072477511338,-0.004591072477511338,-0.004591072477511338,-0.004591072477511338,-0.004591072477511338,-0.004591072477511338,-0.004591072477511338,-0.004591072477511338,-0.004591072477511338,-0.004591072477511338,-0.004591072477511338,-0.004591072477511338,-0.004591072477511338,-0.004591072477511338,-0.004591072477511338,-0.004591072477511338,-0.004591072477511338,-0.004591072477511338,-0.004591072477511338,-0.004591072477511338,-0.004591072477511338,-0.004591072477511338,-0.004591072477511338,-0.004591072477511338,-0.004591072477511338,-0.004591072477511338,-0.004591072477511338,-0.004591072477511338,-0.004591072477511338,-0.004591072477511338,-0.004591072477511338,-0.004591072477511338,-0.004591072477511338,-0.004591072477511338,-0.004591072477511338,-0.004591072477511338,-0.004591072477511338,-0.004591072477511338,-0.004591072477511338,-0.004591072477511338,-0.004591072477511338,-0.004591072477511338,-0.004591072477511338,-0.004591072477511338,-0.004591072477511338,-0.004591072477511338,-0.004591072477511338,-0.004591072477511338,-0.004591072477511338,-0.004591072477511338,-0.004591072477511338,-0.004591072477511338,-0.004591072477511338,-0.004591072477511338,-0.004591072477511338,-0.004591072477511338,-0.004591072477511338,-0.004591072477511338,-0.004591072477511338,-0.004591072477511338,-0.004591072477511338,-0.004591072477511338,-0.004591072477511338,-0.004591072477511338,-0.004591072477511338,-0.004591072477511338,-0.004591072477511338,-0.004591072477511338,-0.004591072477511338,-0.004591072477511338,-0.004591072477511338,-0.004591072477511338,-0.004591072477511338,-0.004591072477511338,-0.004591072477511338,-0.004591072477511338,-0.004591072477511338,-0.004591072477511338,-0.004591072477511338,-0.004591072477511338,-0.004591072477511338,-0.004591072477511338,-0.004591072477511338,-0.004591072477511338,-0.004591072477511338,-0.004591072477511338,-0.004591072477511338,-0.004591072477511338,-0.004591072477511338,-0.004591072477511338,-0.004591072477511338,-0.004591072477511338,-0.004591072477511338,-0.004591072477511338,-0.004591072477511338,0]],"response_history":["3"],"rt":12768,"trial_type":"polygon-arrow-question","trial_index":0,"trial_index_global":29,"time_elapsed":901471,"internal_chunk_id":"0-0.7-0"},{"nsides":6,"feedback":"Correct! The inverse of 3 under <img src=./images/hexagon_symbol.png style=width:14px;height:14px> is 3 because 3 <img src=./images/hexagon_symbol.png style=width:14px;height:14px> 3 = 0, and  0 is the  identity under <img src=./images/hexagon_symbol.png style=width:14px;height:14px>.","orientation_history":[0],"rt":1664,"trial_type":"polygon-arrow-feedback","trial_index":0,"trial_index_global":30,"time_elapsed":903136,"internal_chunk_id":"0-0.7-0"},{"nsides":6,"question":"What is the inverse of 2 under <img src=./images/hexagon_symbol.png style=width:14px;height:14px>? <br /><br /> (Remember, the inverse of an element is the thing which you combine with it to produce the identity.)","response_type":"free","response_choices":[],"correct_response":"4","response":"4","explain":false,"explanation":"","explanation_history":[],"orientation_history":[[0],[0,0,0,0,0,0,0,0,0,0,0,0,0,0,0,0,0,0,0,0.00038580244999431024,0.09196780872698995,0.34884646389164176,0.5348516290776621,0.7168105274304286,0.8733892417876594,0.9107963315066537,0.9613140057989719,0.9767003660281566,1.0260684485778484,1.0814033345670386,1.1348473999707587,1.1693283815467117,1.1693283815467117,1.2028391307433646,1.2072429515649326,1.2473956088795746,1.3029738038663967,1.3739877361595467,1.450362880772895,1.499690438785231,1.54573540615774,1.54573540615774,1.54573540615774,1.54573540615774,1.54573540615774,1.54573540615774,1.5684617006863215,1.5798219142636718,1.5798219142636718,1.6025218328436077,1.6251750116800303,1.6702495350125153,1.7259304554331516,1.802077216548895,1.8720924538828876,1.933809882340094,1.9804093091257506,1.9895063289925687,1.9895063289925687,1.9895063289925687,1.9895063289925687,1.9895063289925687,1.9895063289925687,1.9895063289925687,1.9895063289925687,1.9895063289925687,1.9895063289925687,1.9895063289925687,1.9895063289925687,1.9895063289925687,1.9985275970961176,2.025333286212234,2.072343517108074,2.1101299975726713,2.130352963815003,2.130352963815003,2.130352963815003,2.130352963815003,2.130352963815003,2.130352963815003,2.130352963815003,2.130352963815003,2.130352963815003,2.130352963815003,2.130352963815003,2.130352963815003,2.130352963815003,2.130352963815003,2.130352963815003,2.187499974895538,2.2620257055540183,2.342496716819479,2.427040472332477,2.549992943254682,2.5874753799463432,2.6364766346227,2.658629352791166,2.658629352791166,2.6754199906548606,2.7033334998525698,2.714766047938526,2.7359473547484146,2.774904492390017,2.8139566668803866,2.8595286693110205,2.9092259343429854,2.9607930802858218,2.996132613739001,3.0198831555168812,3.0437566396857565,3.05573125125727,3.091766029704152,3.139799079775237,3.175477983493911,3.1873485395255843,3.1873485395255843,3.2110361121053685,3.233384188742018,3.2796600355446306,3.302567079225167,3.3139530573659313,3.336576642551954,3.336576642551954,3.336576642551954,3.336576642551954,3.336576642551954,3.336576642551954,3.336576642551954,3.336576642551954,3.3478091554595513,3.4314656195405915,3.5191304593441015,3.6780606605701074,3.8446985401601013,3.9282173086044607,3.985630374152971,3.985630374152971,4.02079071764003,4.041162962174376,4.061142408873131,4.096915369783656,4.110688603464257,4.143197471746281,4.156602259210386,4.17833590351183,4.1878683250540005,4.1878683250540005,4.196269936987194,4.196269936987194,4.196269936987194,4.196269936987194,4.196269936987194,4.196269936987194,4.196269936987194,4.196269936987194,4.196269936987194,4.22194391069124,4.274496799108057,4.351629603472333,4.424523755892165,4.525195478049042,4.638159187229717,4.756877877825429,4.8242409441203495,4.899818092828363,4.936804989421835,4.936804989421835,4.936804989421835,4.936804989421835,4.936804989421835,4.936804989421835,4.936804989421835,4.936804989421835,4.9459529711945835,4.973139793912662,5.014489450753874,5.0474622105957305,5.080973781190573,5.119811281392846,5.149627636249204,5.179214850859551,5.224757626008587,5.232761586248432,5.232761586248432,5.232761586248432,5.232761586248432,5.2120902580951425,5.191376295185274,5.191376295185274,5.191376295185274,5.191376295185274,5.191376295185274,5.191376295185274,5.191376295185274,5.191376295185274,5.191376295185274,5.191376295185274,5.191376295185274,5.191376295185274,5.191376295185274,5.191376295185274,5.191376295185274,5.191376295185274,5.191376295185274,5.191376295185274,5.191376295185274,5.191376295185274,5.191376295185274,5.191376295185274,5.191376295185274,5.191376295185274,5.191376295185274,5.191376295185274,5.191376295185274,5.191376295185274,5.191376295185274,5.191376295185274,5.191376295185274,5.191376295185274,5.191376295185274,5.191376295185274,5.191376295185274,5.191376295185274,5.191376295185274,5.191376295185274,5.191376295185274,5.191376295185274,5.191376295185274,5.191376295185274,5.191376295185274,5.191376295185274,5.191376295185274,5.191376295185274,5.2201256467835675,5.266131156469673,5.30244054040926,5.355550299860436,5.456318733815851,5.590073728398871,5.590073728398871,5.73927176103009,5.892578263481899,5.987230111825229,6.02222576962396,6.031373751396709,6.05384582389225,6.073906853996894,6.092125723209826,6.095343596767303,6.095343596767303,6.095343596767303,6.113361167963379,6.140576762122729,6.187851191677651,6.233467084377531,6.260715828962278,-0.004926068528423144,-0.004926068528423144,-0.004926068528423144,-0.004926068528423144,-0.004926068528423144,-0.004926068528423144,-0.004926068528423144,-0.004926068528423144,-0.004926068528423144,-0.004926068528423144,-0.004926068528423144,-0.004926068528423144,-0.004926068528423144,-0.004926068528423144,-0.004926068528423144,-0.004926068528423144,0]],"response_history":["4"],"rt":11384,"trial_type":"polygon-arrow-question","trial_index":0,"trial_index_global":31,"time_elapsed":914521,"internal_chunk_id":"0-0.7-0"},{"nsides":6,"feedback":"Correct! The inverse of 2 under <img src=./images/hexagon_symbol.png style=width:14px;height:14px> is 4 because 2 <img src=./images/hexagon_symbol.png style=width:14px;height:14px> 4 = 0, and 0 is the identity under <img src=./images/hexagon_symbol.png style=width:14px;height:14px>.","orientation_history":[0],"rt":1338,"trial_type":"polygon-arrow-feedback","trial_index":0,"trial_index_global":32,"time_elapsed":915860,"internal_chunk_id":"0-0.7-0"},{"nsides":6,"question":"What is the inverse of 0 under <img src=./images/hexagon_symbol.png style=width:14px;height:14px>? <br /><br /> (Remember, the inverse of an element is the thing which you combine with it to produce the identity.)","response_type":"free","response_choices":[],"correct_response":"0","response":"6","explain":false,"explanation":"","explanation_history":[],"orientation_history":[[0],[0,0,0,0,0,0,0,0,0,0,0,0,0,0,0,0,0,0,0,0,0,0,0,0,0,0,0,0,0,0,0,0,0,0,0,0,0,0,0,0,0,0,0,0,0,0,0,0,0,0,0,0,0,0,0,0,0,0,0,0,0,0,0,0,0,0,0,0,0,0,0,0,0,0,0,0,0,0,0,0,0,0,0,0,0,0,0,0,0,0,0,0,0,0,0,0,0,0,0,0,0,0,0,0,0,0,0,0,0,0,0,0,0,0,0,0,0,0,0,0,0,0,0,0,0,0,0,0,0,0,0,0,0,0,0,0,0,0,0,0,0,0,0,0,0,0,0,0,0,0,0,0,0,0,0,0,0,0,0,0,0,0,0,0,0,0,0,0,0,0,0,-6.192421808067986,-6.037815364027972,-5.863143165019733,-5.772140459868757,-5.772140459868757,-5.772140459868757,-5.772140459868757,-5.772140459868757,-5.772140459868757,-5.732615409368191,-5.6718358100073365,-5.60699178245413,-5.53521984951831,-5.482636787907368,-5.440109253287584,-5.3881818525123215,-5.322723664749149,-5.240189764941513,-5.127565237632479,-5.083121293907993,-5.083121293907993,-5.083121293907993,-5.083121293907993,-5.083121293907993,-5.083121293907993,-5.083121293907993,-5.083121293907993,-5.083121293907993,-5.083121293907993,-5.083121293907993,-5.083121293907993,-5.083121293907993,-5.083121293907993,-5.083121293907993,-5.083121293907993,-5.083121293907993,-5.083121293907993,-5.083121293907993,-5.083121293907993,-5.083121293907993,-5.064412458328139,-5.046009628093827,-4.942217287636784,-4.826941161665832,-4.711126620440886,-4.615231178983734,-4.534312165659547,-4.510259354591009,-4.497245667903739,-4.4714269429665645,-4.4714269429665645,-4.44591084034908,-4.420724677892446,-4.383617972293221,-4.347383022652822,-4.277761162754559,-4.244460152686384,-4.201686951024091,-4.1708462602835,-4.160803166905189,-4.13138429740186,-4.103024920709486,-4.103024920709486,-4.103024920709486,-4.103024920709486,-4.103024920709486,-4.103024920709486,-4.103024920709486,-4.103024920709486,-4.103024920709486,-4.103024920709486,-4.103024920709486,-4.103024920709486,-4.103024920709486,-4.103024920709486,-4.103024920709486,-4.103024920709486,-4.071753584270691,-4.002500348313217,-3.9034372975648246,-3.7917317255455587,-3.694108722086903,-3.6228650511199048,-3.568235463232467,-3.5249647433814433,-3.4866354421328536,-3.4443905890663142,-3.4443905890663142,-3.403110636796918,-3.3308635030921696,-3.270025691361492,-3.186610548870033,-3.1143946878608375,-3.0662740465600136,-3.030353582197656,-2.9828589040685545,-2.97107804386349,-2.97107804386349,-2.97107804386349,-2.97107804386349,-2.97107804386349,-2.97107804386349,-2.97107804386349,-2.97107804386349,-2.97107804386349,-2.97107804386349,-2.97107804386349,-2.97107804386349,-2.97107804386349,-2.97107804386349,-2.97107804386349,-2.97107804386349,-2.97107804386349,-2.912881864234535,-2.737654536424984,-2.737654536424984,-2.561292857708264,-2.3603965567330296,-2.207343617463323,-2.1414887506122877,-2.1307182606525172,-2.1307182606525172,-2.1109091852123445,-2.104195373370654,-2.1057203435953156,-2.1057203435953156,-2.1057203435953156,-2.1057203435953156,-2.1057203435953156,-2.1057203435953156,-2.1057203435953156,-2.1057203435953156,-2.1057203435953156,-2.1057203435953156,-2.1057203435953156,-2.1057203435953156,-2.1057203435953156,-2.1057203435953156,-2.1057203435953156,-2.1057203435953156,-2.091893033651427,-2.051773128708433,-1.9942092367365678,-1.918190208184634,-1.8384551822197297,-1.6999353654578684,-1.6999353654578684,-1.5641927713527384,-1.4681506301177354,-1.3458176591604714,-1.2722247177720742,-1.20687496733622,-1.168122165139848,-1.138378578847842,-1.129795478413885,-1.121278694265099,-1.1047095416827464,-1.079446719849753,-1.079446719849753,-1.079446719849753,-1.079446719849753,-1.079446719849753,-1.079446719849753,-1.079446719849753,-1.079446719849753,-1.079446719849753,-1.079446719849753,-1.079446719849753,-1.079446719849753,-1.079446719849753,-1.079446719849753,-1.079446719849753,-1.079446719849753,-1.079446719849753,-1.079446719849753,-1.079446719849753,-1.079446719849753,-1.079446719849753,-1.079446719849753,-1.079446719849753,-1.079446719849753,-1.079446719849753,-1.079446719849753,-1.079446719849753,-1.079446719849753,-1.079446719849753,-1.079446719849753,-1.079446719849753,-1.079446719849753,-1.079446719849753,-1.079446719849753,-1.0540419167310064,-1.0168264692842115,-1.0168264692842115,-0.9940224712476287,-0.9676433673725597,-0.9275578996837375,-0.8596639142702687,-0.742857399047816,-0.5807676496415315,-0.4484972531260363,-0.3567057179738118,-0.31241408650371394,-0.31241408650371394,-0.31241408650371394,-0.31241408650371394,-0.31241408650371394,-0.31241408650371394,-0.31241408650371394,-0.31241408650371394,-0.31241408650371394,-0.31241408650371394,-0.31241408650371394,-0.31241408650371394,-0.31241408650371394,-0.31241408650371394,-0.31241408650371394,-0.31241408650371394,-0.31241408650371394,-0.22538389207113507,-0.19467795588488546,-0.14561238475106464,-0.053706133426274505,-6.259631787757169,-6.2432466412675165,-6.2432466412675165,-6.2432466412675165,-6.2432466412675165,-6.2432466412675165,-6.2432466412675165,-6.2432466412675165,-6.2432466412675165,-6.243040157685896,0.006747192327122953,-0.01931874512473808,6.283185307179586]],"response_history":["6"],"rt":12813,"trial_type":"polygon-arrow-question","trial_index":0,"trial_index_global":33,"time_elapsed":928674,"internal_chunk_id":"0-0.7-0"},{"nsides":6,"feedback":"Sorry, that was incorrect. The inverse of 0 under <img src=./images/hexagon_symbol.png style=width:14px;height:14px> is 0 because 0 <img src=./images/hexagon_symbol.png style=width:14px;height:14px> 0 = 0, and 0 is the identity under <img src=./images/hexagon_symbol.png style=width:14px;height:14px>.","orientation_history":[0],"rt":1799,"trial_type":"po lygon-arrow-feedback","trial_index":0,"trial_index_global":34,"time_elapsed":930474,"internal_chunk_id":"0-0.7-0"},{"nsides":6,"instructions":"It is also possible to successively apply <img src=./images/hexagon_symbol.png style=width:14px;height:14px>, and the operation can simply be performed starting with the left-most pair. For example, 2 <img src=./images/hexagon_symbol.png style=width:14px;height:14px> 3 <img src=./images/hexagon_symbol.png style=width:14px;height:14px> 4 = 5 <img src=./images/hexagon_symbol.png style=width:14px;height:14px> 4 = 3.","orientation_history":[0],"rt":1855,"trial_type":"polygon-arrow-instructions","trial_index":0,"trial_index_global":35,"time_elapsed":932330,"internal_chunk_id":"0-0"},{"nsides":6,"instructions":"We have one last definition to learn today, using the successive operations we just learned. Let's start with an example. Under our operation <img src=./images/hexagon_symbol.png style=width:14px ;height: 14px> we can make every other number using just 1: 2 = 1 <img src=./images/hexagon_symbol.png style=width:14px;height:14px> 1, 3 = 1 <img src=./images/hexagon_symbol.png style=width:14px;height:14px> 1 <img src=./images/hexagon_symbol.png style=width:14px;height:14px> 1, 4 = 1 <img src=./images/hexagon_symbol.png style=width:14px;height:14px> 1 <img src=./images/hexagon_symbol.png style=width:14px;height:14px> 1 <img src=./images/hexagon_symbol.png style=width:14px;height:14px> 1, 5 = 1 <img src=./images/hexagon_symbol.png style=width:14px;height:14px> 1 <img src=./images/hexagon_symbol.png style=width:14px;height:14px> 1 <img src=./images/hexagon_symbol.png style=width:14px;height:14px> 1 <img src=./images/hexagon_symbol.png style=width:14px;height:14px> 1, and 0 = 1 <img src=./images/hexagon_symbol.png style=width:14px;height:14px> 1 <img src=./images/hexagon_symbol.png style=wi dth:14px ;height:14px> 1 <img src=./images/hexagon_symbol.png style=width:14px;height:14px> 1 <img src=./images/hexagon_symbol.png style=width:14px;height:14px> 1 <img src=./images/hexagon_symbol.png style=width:14px;height:14px> 1. Because 1 can make every other element under <img src=./images/hexagon_symbol.png style=width:14px;height:14px>, we say that 1 is a <i>generator</i> under <img src=./images/hexagon_symbol.png style=width:14px;height:14px>. <br /><br /> However, 2 is not a generator under <img src=./images/hexagon_symbol.png style=width:14px;height:14px>, because 4 = 2 <img src=./images/hexagon_symbol.png style=width:14px;height:14px> 2, and 0 = 2 <img src=./images/hexagon_symbol.png style=width:14px;height:14px> 2 <img src=./images/hexagon_symbol.png style=width:14px;height:14px> 2, but there is no way to make 1, 3, or 5 using just 2.","orientation_history":[0],"rt":1383,"trial_type":"polygon-arrow- instruct ions","trial_index":0,"trial_index_global":36,"time_elapsed":933714,"internal_chunk_id":"0-0"},{"nsides":6,"question":"Now you try! Is 3 a generator under <img src=./images/hexagon_symbol.png style=width:14px;height:14px>? <br /><br /> (Remember, a generator is an element which can make every other element.)","response_type":"multi","response_choices":["Yes","No"],"correct_response":"No","response":"Yes","explain":false,"explanation":"","explanation_history":[],"orientation_history":[[0],[0,0,0,0,0,0,0,0,0,0,0,0,0,0,0,0,0,0,0.00038580244999431024,0.17452373193190485,0.6163361361730493,0.9524999633285539,1.1293636410357886,1.2242783404952815,1.2425942490052857,1.2425942490052857,1.2425942490052857,1.2425942490052857,1.2425942490052857,1.2425942490052857,1.2425942490052857,1.2425942490052857,1.2535278140983668,1.2867732070433642,1.3460052201992843,1.3957234430013392,1.4664386662212856,1.5116752740004538,1.5570985534220307,1.5900536510363288,1.6119884160161846,1.6119884160161846,1.6119884160161846,1.6119884160161846,1.6338704446918089,1.6773940303499848,1.709747881817296,1.7417829335084853,1.7838974014759166,1.8149631012230274,1.8455281119404257,1.8656048491539439,1.8755487897681857,1.8952410821266783,1.91217010369692,1.9414733831908226,1.9414733831908226,1.9880475408224072,2.020746162422837,2.063173516718372,2.1539244574077316,2.2749305493829803,2.342496716819479,2.427562256788124,2.4822055911086425,2.536861982914497,2.5783348666905477,2.596717260991163,2.596717260991163,2.596717260991163,2.596717260991163,2.6114118755202,2.6398618620434027,2.745287665859127,2.860635782061016,2.860635782061016,2.9571596687416446,3.0402082250874267,3.0620561109142335,3.0849106203491563,3.0849106203491563,3.085367345597143,3.085367345597143,3.085367345597143,3.085367345597143,3.085367345597143,3.085367345597143,3.085367345597143,3.085367345597143,3.085367345597143,3.085367345597143,3.086252301118339,3.0875128046524276,3.088311606279831,3.088311606279831,3.088311606279831,3.088311606279831,3.088311606279831,3.088311606279831,3.088311606279831,3.088311606279831,3.088311606279831,3.088311606279831,3.088311606279831,3.088311606279831,3.088311606279831,3.088311606279831,3.088311606279831,3.088311606279831,3.088311606279831,3.0984915920129223,3.0984915920129223,3.0984915920129223,3.0984915920129223,3.0984915920129223,3.0984915920129223,3.0984915920129223,3.0984915920129223,3.0984915920129223,3.0984915920129223,3.0984915920129223,3.0984915920129223,3.0984915920129223,3.0984915920129223,3.0984915920129223,3.0984915920129223,3.0984915920129223,3.0984915920129223,3.0984915920129223,3.0984915920129223,3.0984915920129223,3.0984915920129223,3.0984915920129223,3.0984915920129223,3.0984915920129223,3.0984915920129223,3.0984915920129223,3.0984915920129223,3.0984915920129223,3.0984915920129223,3.0984915920129223,3.0984915920129223,3.0984915920129223,3.0984915920129223,3.0984915920129223,3.0984915920129223,3.0984915920129223,3.0984915920129223,3.0984915920129223,3.0984915920129223,3.0984915920129223,3.0984915920129223,3.0984915920129223,3.0984915920129223,3.0984915920129223,3.1082895493597227,3.141592653589793]],"response_history":["Yes"],"rt":13128,"trial_type":"polygon-arrow-question","trial_index":0,"trial_index_global":37,"time_elapsed":946843,"internal_chunk_id":"0-0.10-0"},{"nsides":6,"feedback":"Sorry, that's incorrect. 3 is not a generator under <img src=./images/hexagon_symbol.png style=width:14px;height:14px>, because 3 = 3, 0 = 3 <img src=./images/hexagon_symbol.png style=width:14px;height:14px> 3, but there is no way to make 1, 2, 4, or 5 using just 3.","orientation_history":[0],"rt":5691,"trial_type":"polygon-arrow-feedback","trial_index":0,"trial_index_global":38,"time_elapsed":952536,"internal_chunk_id":"0-0.10-0"},{"nsides":6,"question":"Is 5 a generator under <img src=./images/hexagon_symbol.png style=width:14px;height:14px>? <br /><br /> (Remember, a generator is an element which can make every o ther ele ment.)","response_type":"multi","response_choices":["Yes","No"],"correct_response":"Yes","response":"No","explain":false,"explanation":"","explanation_history":[],"orientation_history":[[0]],"response_history":["No"],"rt":7536,"trial_type":"polygon-arrow-question","trial_index":0,"trial_index_global":39,"time_elapsed":960073,"internal_chunk_id":"0-0.10-0"},{"nsides":6,"feedback":"Sorry, that's incorrect. 5 is a generator under <img src=./images/hexagon_symbol.png style=width:14px;height:14px>, because 5 = 5, 4 = 5 <img src=./images/hexagon_symbol.png style=width:14px;height:14px> 5, 3 = 5 <img src=./images/hexagon_symbol.png style=width:14px;height:14px> 5 <img src=./images/hexagon_symbol.png style=width:14px;height:14px> 5, 2 = 5 <img src=./images/hexagon_symbol.png style=width:14px;height:14px> 5 <img src=./images/hexagon_symbol.png style=width:14px;height:14px> 5 <img src=./images/hexagon_symbol.png style=width:14px;he ight:14p x> 5, 1 = 5 <img src=./images/hexagon_symbol.png style=width:14px;height:14px> 5 <img src=./images/hexagon_symbol.png style=width:14px;height:14px> 5 <img src=./images/hexagon_symbol.png style=width:14px;height:14px> 5 <img src=./images/hexagon_symbol.png style=width:14px;height:14px> 5, and 0 = 5 <img src=./images/hexagon_symbol.png style=width:14px;height:14px> 5 <img src=./images/hexagon_symbol.png style=width:14px;height:14px> 5 <img src=./images/hexagon_symbol.png style=width:14px;height:14px> 5 <img src=./images/hexagon_symbol.png style=width:14px;height:14px> 5 <img src=./images/hexagon_symbol.png style=width:14px;height:14px> 5, so you can make all of the numbers under <img src=./images/hexagon_symbol.png style=width:14px;height:14px> using 5","orientation_history":[0],"rt":1945,"trial_type":"polygon-arrow-feedback","trial_index":0,"trial_index_global":40,"time_elapsed":962019,"internal_chunk_id":"0-0.10-0"},{"nsides":6,"question":"Is 4 a generator under <img src=./images/hexagon_symbol.png style=width:14px;height:14px>? <br /><br /> (Remember, a generator is an element which can make every other element.)","response_type":"multi","response_choices":["Yes","No"],"correct_response":"No","response":"No","explain":false,"explanation":"","explanation_history":[],"orientation_history":[[0]],"response_history":["No"],"rt":8572,"trial_type":"polygon-arrow-question","trial_index":0,"trial_index_global":41,"time_elapsed":970592,"internal_chunk_id":"0-0.10-0"},{"nsides":6,"feedback":"Correct! 4 is not a generator under <img src=./images/hexagon_symbol.png style=width:14px;height:14px>, because 4 = 4, 2 = 4 <img src=./images/hexagon_symbol.png style=width:14px;height:14px> 4, and 0 = 4 <img src=./images/hexagon_symbol.png style=width:14px;height:14px> 4 <img src=./images/hexagon_symbol.png style=width:14px;height:14px> 4, but there is  no way t o make 1, 3, or 5 using just 4.","orientation_history":[0],"rt":1630,"trial_type":"polygon-arrow-feedback","trial_index":0,"trial_index_global":42,"time_elapsed":972223,"internal_chunk_id":"0-0.10-0"},{"nsides":6,"question":"Is 0 a generator under <img src=./images/hexagon_symbol.png style=width:14px;height:14px>? <br /><br /> (Remember, a generator is an element which can make every other element.)","response_type":"multi","response_choices":["Yes","No"],"correct_response":"No","response":"No","explain":false,"explanation":"","explanation_history":[],"orientation_history":[[0]],"response_history":["No"],"rt":2823,"trial_type":"polygon-arrow-question","trial_index":0,"trial_index_global":43,"time_elapsed":975047,"internal_chunk_id":"0-0.10-0"},{"nsides":6,"feedback":"Correct! 0 is not a generator under <img src=./images/hexagon_symbol.png style=width:14px;height:14px>, because 0 = 0, but there is no way to make 1, 2, 3, 4, or 5 using just 0.","orientation_history":[0],"rt":1146,"trial_type":"polygon-arrow-feedback","trial_index":0,"trial_index_global":44,"time_elapsed":976194,"internal_chunk_id":"0-0.10-0"},{"nsides":9,"instructions":"Now we are going to ask you some questions about a new operation, <img src=./images/nonagon_symbol.png style=width:14px;height:14px>, on the numbers 0, 1, 2, 3, 4, 5, 6, 7, 8. It works exactly like <img src=./images/hexagon_symbol.png style=width:14px;height:14px>, except now you use the nonagon shown at the right. Equivalently, after adding the two numbers you subtract 9 if your result is 9 or greater.<br /><br />Do you see how the different ways of performing <img src=./images/nonagon_symbol.png style=width:14px;height:14px> give the same result, just like with <img src=./images/hexagon_symbol.png style=width:14px;height:14px>? By labeling the points of the nonagon with the numbers from 0 to 8, we ensure that when we combine two numbers under <img src=./images/nonagon_sy mbol.png  style=width:14px;height:14px>, we only produce numbers between 0 and 8. When we use the arithmetic strategy, adding the second number to the first mimics counting around the nonagon, and subtracting 9 each time we get above 8 makes sure the results correspond to the numbers on the points of the nonagon.<br /><br />We'll give you one practice question with feedback to make sure you understand the new operation. After that, try to complete the remaining questions as accurately as possible.","orientation_history":[0],"rt":1631,"trial_type":"polygon-arrow-instructions","trial_index":0,"trial_index_global":45,"time_elapsed":977826,"internal_chunk_id":"0-0"},{"nsides":9,"question":"Practice: What is 5 <img src=./images/nonagon_symbol.png style=width:14px;height:14px> 5?","response_type":"free","response_choices":[],"correct_response":"1","response":"1","explain":false,"explanation":"","explanation_history":[],"orientation_history":[[0],[0,0,0.014641503185889082,0.04534411539387673,0.07883091375462725,0.10888661511549302,0.1977607899286009,0.1977607899286009,0.3828365395915685,0.8524117614422534,1.3786902499076217,1.6107287647275805,1.7675895980205558,1.823038784684715,1.8863741200867579,1.949671679619607,2.0322315500247976,2.1312829410570098,2.19777001498546,2.2599562307849608,2.309938016495984,2.3227497166194704,2.3358812574978103,2.3425692925313717,2.3425692925313717,2.363133469029087,2.391752618803803,2.41414725200082,2.4779344279386573,2.538794158052026,2.604484399495413,2.6854187469894963,2.753787136033731,2.7935658252649285,2.804537171868959,2.8323937412627185,2.865399411471123,2.898893374336895,2.9570674101135426,2.9570674101135426,3.002550015591054,3.0598523734326184,3.0943305775891012,3.1058212883155223,3.1165319382200867,3.1277504263438596,3.1277504263438596,3.1383353361197877,3.1714927127415082,3.215388363170745,3.2479855082886973,3.290892967665096,3.364069032792366,3.420979359578718,3.4690142246962665,3.4690142246962665,3.4652158649734233,3.474536770311494,3.46700619526667,3.46700619526667,3.46700619526667,3.46700619526667,3.46700619526667,3.46700619526667,3.46700619526667,3.46700619526667,3.46700619526667,3.46700619526667,3.46700619526667,3.46700619526667,3.46700619526667,3.46700619526667,3.46700619526667,3.46700619526667,3.46700619526667,3.46700619526667,3.46700619526667,3.46700619526667,3.46700619526667,3.46700619526667,3.490658503988659],[3.490658503988659,3.490658503988659,3.490658503988659,3.490658503988659,3.490658503988659,3.490658503988659,3.490658503988659,3.490658503988659,3.490658503988659,3.490658503988659,3.490658503988659,3.490658503988659,3.490658503988659,3.490658503988659,3.490658503988659,3.490658503988659,3.490658503988659,3.490658503988659,3.490658503988659,3.490658503988659,3.490658503988659,3.49543124218341,3.546739250798858,3.680129894323755,3.7392045183357627,3.751533263971128,3.751533263971128,3.751533263971128,3.751533263971128,3.751533263971128,3.751533263971128,3.751533263971128,3.751533263971128,3.751533263971128,3.751533263971128,3.751533263971128,3.751533263971128,3.751533263971128,3.751533263971128,3.751533263971128,3.751533263971128,3.751533263971128,3.751533263971128,3.751533263971128,3.804734868033712,3.961562606107313,4.0798282275531665,4.215180872971933,4.268296728449579,4.284950969053563,4.284950969053563,4.284950969053563,4.284950969053563,4.284950969053563,4.284950969053563,4.284950969053563,4.2902534770611584,4.2902534770611584,4.306652987713184,4.3341829240000305,4.350169495597239,4.350169495597239,4.350169495597239,4.350169495597239,4.350169495597239,4.350169495597239,4.350169495597239,4.350169495597239,4.350169495597239,4.350169495597239,4.350169495597239,4.350169495597239,4.350169495597239,4.350169495597239,4.357170903262688,4.357170903262688,4.376274847611446,4.4043798950719015,4.416931537141469,4.520735060278776,4.574524962030271,4.682679554077014,4.740622188534044,4.769581344860075,4.769581344860075,4.769581344860075,4.769581344860075,4.769581344860075,4.769581344860075,4.769581344860075,4.7984677800071385,4.87005589885676,4.926311517434433,4.9676961565638695,5.0082541816112585,5.0082541816112585,5.0082541816112585,5.0082541816112585,5.0082541816112585,5.0082541816112585,5.0082541816112585,5.0082541816112585,5.0082541816112585,5.0082541816112585,5.0082541816112585,5.0082541816112585,5.0082541816112585,5.021571286612264,5.021571286612264,5.0256624385384665,5.083264459989337,5.138540891065931,5.222024940904603,5.30188876699178,5.330729039562021,5.354926735883977,5.407736272408949,5.419009991746345,5.419009991746345,5.419009991746345,5.419009991746345,5.430076568560121,5.451600457744783,5.451600457744783,5.4620640442644,5.491923282008788,5.491923282008788,5.521052134459605,5.540092270704752,5.549246565332856,5.549246565332856,5.549246565332856,5.549246565332856,5.549246565332856,5.549246565332856,5.549246565332856,5.549246565332856,5.549246565332856,5.549246565332856,5.549246565332856,5.549246565332856,5.549246565332856,5.549246565332856,5.58979975338727,5.6968765628616875,5.868978279941958,6.072692025154344,0.03128352914125676,0.10123680988624573,0.10123680988624573,0.10123680988624573,0.10123680988624573,0.10123680988624573,0.10123680988624573,0.10123680988624573,0.10123680988624573,0.10123680988624573,0.10123680988624573,0.10123680988624573,0.10123680988624573,0.10123680988624573,0.10123680988624573,0.10123680988624573,0.10123680988624573,0.10123680988624573,0.10123680988624573,0.10123680988624573,0.10123680988624573,0.10123680988624573,0.10123680988624573,0.10123680988624573,0.10123680988624573,0.10123680988624573,0.10123680988624573,0.10123680988624573,0.10123680988624573,0.10123680988624573,0.10123680988624573,0.10123680988624573,0.10123680988624573,0.10279105171835212,0.12439869025775008,0.2492864498047178,0.3418613640991597,0.413256963083229,0.504905067370115,0.540368740517605,0.540368740517605,0.540368740517605,0.540368740517605,0.540368740517605,0.5613037050238519,0.5613037050238519,0.5723407844274169,0.5723407844274169,0.5837819327835647,0.6572425778771388,0.7026658572987158,0.8150113154730927,0.846722735758286,0.846722735758286,0.846722735758286,0.846722735758286,0.846722735758286,0.846722735758286,0.846722735758286,0.846722735758286,0.846722735758286,0.846722735