[{"nsides":6,"instructions":"Let's define a new operation <img src=./images/hexagon_symbol.png style=width:14px;height:14px>. This operation will give us a way of combining two of the numbers 0, 1, 2, 3, 4, 5 to get another one of them back. To perform <img src=./images/hexagon_symbol.png style=width:14px;height:14px>, you can either use a method based on the hexagon at right, or a method based on arithmetic.<br /><b>Hexagon method:</b> you can use the interactive diagram on the right, or perform the operation in your mind. Point the arrow at the first number on the hexagon by clicking, then click (or click and drag) to move the arrow the second number of points clockwise around the hexagon. The number the arrow arrives at is your result. (The operation is called <img src=./images/hexagon_symbol.png style=width:14px;height:14px> because it uses the hexagon, which has 6 sides.) <br ><b>Arithmetic method:</b> you start with the first number, and then add  the sec ond one to it. If the sum is smaller than 6, that's your result. If the sum is 6 or bigger, you subtract 6 to get your result. <br /><br />For example, 3 <img src=./images/hexagon_symbol.png style=width:14px;height:14px> 5 = 2, because 5 steps clockwise from 3 on the hexagon brings us to 2. Equivalently, 3 + 5 = 8, and 8 is bigger than 6, so we subtract 6, and 8 - 6 = 2. So 3 <img src=./images/hexagon_symbol.png style=width:14px;height:14px> 5 = 2.<br /><br />Similarly, 1 <img src=./images/hexagon_symbol.png style=width:14px;height:14px> 4 = 5, because 1 + 4 = 5, and 5 is less than 6 so we leave it alone. Equivalently, 4 steps clockwise from 1 on the hexagon brings us to 5. <br /><br />Click Continue when you're ready to move on.","orientation_history":[0],"rt":87263,"trial_type":"polygon-arrow-instructions","trial_index":0,"trial_index_global":1,"time_elapsed":101378,"internal_chunk_id":"0-0"},{"nsides":6,"instructions":"Do you see how the differ ent ways  of performing <img src=./images/hexagon_symbol.png style=width:14px;height:14px> give the same result? By labeling the points of the hexagon with the numbers from 0 to 5, we ensure that when we combine two numbers using the hexagon, we only produce numbers between 0 and 5. When we use the arithmetic strategy, adding the second number to the first mimics counting around the hexagon, and subtracting 6 each time we get above 5 makes sure the results correspond to the numbers on the points of the hexagon. <br /><br />Click Continue when you're ready to move on.","orientation_history":[0],"rt":54878,"trial_type":"polygon-arrow-instructions","trial_index":0,"trial_index_global":2,"time_elapsed":156257,"internal_chunk_id":"0-0"},{"nsides":6,"question":"Now try one on your own! What is 4 <img src=./images/hexagon_symbol.png style=width:14px;height:14px> 5? <br /><br /> (Remember, to perform <img src=./images/hexagon_symbol.png style=width:14px;height:14px>, you  can either use a method based on the hexagon at right, or a method based on arithmetic.<br /><br /><b>Hexagon method:</b> you can use the interactive diagram on the right, or perform the operation in your mind. Point the arrow at the first number, then move the arrow the second number of points clockwise around the hexagon. The number the arrow arrives at is your result. <br /><br /><b>Arithmetic method:</b> you start with the first number, and then add the second one to it. If the sum is smaller than 6, that's your result. If the sum is 6 or bigger, you subtract 6 to get your result.)","response_type":"free","response_choices":[],"correct_response":"3","response":"3","explain":false,"explanation":"","explanation_history":[],"orientation_history":[[0],[0,0,0,0,0,0,0,0,0,0,0,0,0,-0.04577125856972053,-0.0808153365067863,-0.14575027728307077,-0.2274818303039794,-0.31437679831535803,-0.36778610685501967,-0.46798044794989213,-0.5693334383191972,-0.7858500386491141,-0.8974533333345027,-1.019120162313377,-1.1070010727338904,-1.2536729887306528,-1.3313145962535744,-1.4392655903647098,-1.5025118521065997,-1.5598201281494575,-1.6496156579683747,-1.748450668562989,-1.8324112366056537,-1.9299113223067943,-1.99161576820842,-2.0533439024385247,-2.136024065833328,-2.186912548433898,-2.2250061022595675,-2.2521091538736533,-2.2695033581923973,-2.286373918401945,-2.286373918401945,-2.286373918401945,-2.286373918401945,-2.286373918401945,-2.286373918401945,-2.286373918401945,-2.286373918401945,-2.286373918401945,-2.286373918401945,-2.286373918401945,-2.286373918401945,-2.286373918401945,-2.2946172319967775,-2.2870028491366297,-2.2795118926092655,-2.2639337955292778,-2.2483859716936925,-2.2483859716936925,-2.2483859716936925,-2.2483859716936925,-2.2483859716936925,-2.2243456876151226,-2.2087870313875912,-2.1932853435166786,-2.1932853435166786,-2.1932853435166786,-2.1932853435166786,-2.1932853435166786,-2.1932853435166786,-2.1932853435166786,-2.1932853435166786,-2.1932853435166786,-2.1932853435166786,-2.1932853435166786,-2.1932853435166786,-2.1932853435166786,-2.1932853435166786,-2.1932853435166786,-2.1932853435166786,-2.1932853435166786,-2.1932853435166786,-2.1932853435166786,-2.1932853435166786,-2.1932853435166786,-2.1932853435166786,-2.1932853435166786,-2.1932853435166786,-2.1932853435166786,-2.1932853435166786,-2.1932853435166786,-2.1932853435166786,-2.1932853435166786,-2.1932853435166786,-2.1932853435166786,-2.1932853435166786,-2.1932853435166786,-2.1932853435166786,-2.1932853435166786,-2.1932853435166786,-2.1932853435166786,-2.1932853435166786,-2.1844555509210712,-2.159906911976692,-2.1321116093438315,-2.103239244470333,-2.093373366448133,-2.0571851127395346,-2.015354324919694,-1.9604319038831477,-1.909913988333643,-1.8506573866702434,-1.798278157098875,-1.7103674860174047,-1.6717818382018441,-1.606649243680251,-1.5541115776005432,-1.5277973066550308,-1.4621704811386431,-1.4230823389305707,-1.358786131655024,-1.320892739494222,-1.2959757790009228,-1.2591825748544343,-1.2350755707229348,-1.215312856784501,-1.2037012538061287,-1.2037012538061287,-1.2037012538061287,-1.2037012538061287,-1.2037012538061287,-1.1582109322822118,-1.1470858313914256,-1.114326949000911,-1.1036165503799031,-1.1036165503799031,-1.1036165503799031,-1.1036165503799031,-1.1036165503799031,-1.1036165503799031,-1.1036165503799031,-1.1036165503799031,-1.1036165503799031,-1.1036165503799031,-1.1036165503799031,-1.1036165503799031,-1.1036165503799031,-1.0618441480673955,-0.9626289558473706,-0.9069317224643649,-0.9069317224643649,-0.8477313162868008,-0.7727959499248689,-0.7210871777308308,-0.6774546010103535,-0.6312012841835779,-0.5962046378264221,-0.5300979124472791,-0.5018821825916957,-0.48460942839191823,-0.45640074842039535,-0.4338057243336966,-0.41676192033869963,-0.3883824449121196,-0.3649492350326522,-0.3649492350326522,-0.3080363035731688,-0.2959572306055609,-0.23974719325381688,-0.23974719325381688,-0.21513677845975465,-0.1847509968241141,-0.1577978871372565,-0.1577978871372565,-0.1455523358763129,-0.1455523358763129,-0.1455523358763129,-0.1455523358763129,-0.1455523358763129,-0.1455523358763129,-0.1455523358763129,-0.1455523358763129,-0.1455523358763129,-0.1455523358763129,-0.1455523358763129,-0.1455523358763129,-0.1455523358763129,-0.1455523358763129,-0.10680127782397708,-0.02011651105483292,-6.240998370668252,-6.204601571202545,-6.180302857209357,-6.169205181981306,-6.169205181981306,-6.169205181981306,-6.169205181981306,-6.169205181981306,-6.169205181981306,-6.169205181981306,-6.169205181981306,-6.169205181981306,-6.169205181981306,-6.169205181981306,-6.169205181981306,-6.169205181981306,-6.169205181981306,-6.169205181981306,-6.169205181981306,-6.169205181981306,-6.169205181981306,-6.169205181981306,-6.169205181981306,-6.169205181981306,-6.169205181981306,-6.169205181981306,-6.169205181981306,-6.15725470699511,-6.15725470699511,-6.15725470699511,-6.15725470699511,-6.15725470699511,-6.15725470699511,-6.1215811560345506,-6.058323155107555,-5.9315928681158345,-5.893150278094646,-5.784376714740155,-5.7416045801971185,-5.710911852522527,-5.69105862016993,-5.63978727700056,-5.54714433008448,-5.445726693788309,-5.32411770497858,-5.229008818528865,-5.17201922065082,-5.1425846120983865,-5.1425846120983865,-5.1425846120983865,-5.1425846120983865,-5.1425846120983865,-5.1425846120983865,-5.1425846120983865,-5.1425846120983865,-5.1425846120983865,-5.1425846120983865,-5.1425846120983865,-5.1425846120983865,-5.1425846120983865,-5.1425846120983865,-5.1425846120983865,-5.1425846120983865,-5.1425846120983865,-5.1425846120983865,-5.1425846120983865,-5.1425846120983865,-5.1425846120983865,-5.1425846120983865,-5.1425846120983865,-5.1425846120983865,-5.1425846120983865,-5.128014889645408,-5.113239607104088,-5.083081611103366,-5.047281909981994,-5.02087071822684,-5.007098763236315,-4.943149487464921,-4.909345943771466,-4.864962502800091,-4.829984259845518,-4.800804604856659,-4.751743374336163,-4.68254709571758,-4.652253335798805,-4.611957505898706,-4.591887208516835,-4.558192101170818,-4.5275503537936395,-4.495293175984097,-4.4851515358677,-4.442580921938934,-4.412697939779111,-4.383300780115103,-4.341568142221231,-4.322598569690174,-4.309559373917519,-4.300168061618227,-4.272419755176089,-4.272419755176089,-4.272419755176089,-4.272419755176089,-4.272419755176089,-4.272419755176089,-4.272419755176089,-4.272419755176089,-4.272419755176089,-4.272419755176089,-4.272419755176089,-4.272419755176089,-4.272419755176089,-4.272419755176089,-4.272419755176089,-4.272419755176089,-4.272419755176089,-4.272419755176089,-4.272419755176089,-4.263314701963685,-4.241118052043493,-4.174484271469863,-4.133521955909984,-4.089004382646238,-4.053017133718454,-4.0329976735819235,-3.9826542259983366,-3.968456397105422,-3.9399798649888593,-3.9042410119944515,-3.8611932119995322,-3.8324909858961504,-3.796045560583833,-3.7511366746088566,-3.722476733311892,-3.6800376175852265,-3.671432334925962,-3.634689532493855,-3.6119118226703657,-3.5844479046372726,-3.566470043743653,-3.557463081551319,-3.5218781094641747,-3.483149929707932,-3.4671277870630335,-3.4335013233193257,-3.42145371346514,-3.400480297435081,-3.345493949791585,-3.323482264151971,-3.314532273102093,-3.3127050326107805,-3.3037987861634135,-3.3037987861634135,-3.2916042687151617,-3.2827903943916072,-3.272513509548518,-3.2536478235268476,-3.2350164392815826,-3.226291465719365,-3.2252953737953383,-3.2166277076529175,-3.2166277076529175,-3.2166277076529175,-3.2166277076529175,-3.2166277076529175,-3.2166277076529175,-3.2166277076529175,-3.197745060116924,-3.1537428761440527,-3.145351563338677,-3.136745562541604,-3.128415892636624,-3.128415892636624,-3.128415892636624,-3.128415892636624,-3.128415892636624,-3.128415892636624,-3.128415892636624,-3.128415892636624,-3.128415892636624,-3.128415892636624,-3.128415892636624,-3.128415892636624,-3.128415892636624,-3.128415892636624,-3.128415892636624,-3.128415892636624,-3.128415892636624,-3.128415892636624,-3.128415892636624,-3.128415892636624,-3.128415892636624,-3.128415892636624,-3.128415892636624,-3.128415892636624,3.141592653589793]],"response_history":["3"],"rt":29515,"trial_type":"polygon-arrow-question","trial_index":0,"trial_index_global":3,"time_elapsed":185774,"internal_chunk_id":"0-0.3-0"},{"nsides":6,"feedback":"Correct! 4 <img src=./images/hexagon_symbol.png style=width:14px;height:14px> 5 = 3 because 5 steps clockwise on the hexagon from 4 brings us to 3. Equivalently, 4 + 5 = 9 and 9 - 6 = 3.","orientation_history":[0],"rt":6985,"trial_type":"polygon-arrow-feedback","trial_index":0,"trial_index_global":4,"time_elapsed":192760,"internal_chunk_id":"0-0.3-0"},{"nsides":6,"question":"What is 3 <img src=./images/hexagon_symbol.png style=width:14px;height:14px> 2? Try to solve this problem using the hexagon. <br /><br /> (Remember, to perform <img src=./images/hexagon_symbol.png style=width:14px;height:14px> on the hexagon, you can use the interactive dia gram on  the right, or perform the operation in your mind. Point the arrow at the first number on the hexagon, and then move the arrow the second number of points clockwise around the hexagon.)","response_type":"free","response_choices":[],"correct_response":"5","response":"5","explain":false,"explanation":"","explanation_history":[],"orientation_history":[[0]],"response_history":["4","5"],"rt":7726,"trial_type":"polygon-arrow-question","trial_index":0,"trial_index_global":5,"time_elapsed":200486,"internal_chunk_id":"0-0.3-0"},{"nsides":6,"feedback":"Correct! 3 <img src=./images/hexagon_symbol.png style=width:14px;height:14px> 2 = 5 because 2 steps clockwise on the hexagon from 3 brings us to 5. Equivalently, 3 + 2 = 5 and 5 is less than 6.","orientation_history":[0],"rt":2125,"trial_type":"polygon-arrow-feedback","trial_index":0,"trial_index_global":6,"time_elapsed":202611,"internal_chunk_id":"0-0.3-0"},{"nsides":6,"question":"What is 1 <img src=./images/hexagon_symbol.png  style =width:14px;height:14px> 5? Try to solve this probem using the arithmetic technique. <br /><br /> (Remember, to perform <img src=./images/hexagon_symbol.png style=width:14px;height:14px> by arithmetic, you start with the first number, and then add the second one to it. If the sum is smaller than 6, that's your result. If the sum is 6 or bigger, you subtract 6 to get your result.)","response_type":"free","response_choices":[],"correct_response":"0","response":"0","explain":false,"explanation":"","explanation_history":[],"orientation_history":[[0]],"response_history":["0"],"rt":10316,"trial_type":"polygon-arrow-question","trial_index":0,"trial_index_global":7,"time_elapsed":212927,"internal_chunk_id":"0-0.3-0"},{"nsides":6,"feedback":"Correct! 1 <img src=./images/hexagon_symbol.png style=width:14px;height:14px> 5 = 0 because 1 + 5 = 6 and 6 - 6 = 0.  Equivalently, 5 steps clockwise on the hexagon from 1 brings us to 0.","orientation_history":[0],"rt":3034,"trial_type":"polygon-arrow-feedback","trial_index":0,"trial_index_global":8,"time_elapsed":215961,"internal_chunk_id":"0-0.3-0"},{"nsides":6,"question":"What is 1 <img src=./images/hexagon_symbol.png style=width:14px;height:14px> 1? Try to solve this problem using the hexagon. <br /><br /> (Remember, to perform <img src=./images/hexagon_symbol.png style=width:14px;height:14px> on the hexagon, you can use the interactive diagram on the right, or perform the operation in your mind. Point the arrow at the first number on the hexagon, and then move the arrow the second number of points clockwise around the hexagon.)","response_type":"free","response_choices":[],"correct_response":"2","response":"2","explain":false,"explanation":"","explanation_history":[],"orientation_history":[[0],[0,0,0,0,0,0,0,0.04542327942157698,0.09065988720074514,0.13970887428916368,0.172860606787145,0.2760970193954364,0.4133304045393278,0.5211381434841182,0.60554466360497,0.6624262938331511,0.7636624565556556,0.8066715494215094,0.8685393952858895,0.9634911016286458,1.1859326787832343,1.2793395323170293,1.3811827110205073,1.4406942690849316,1.463106455962076,1.463106455962076,1.463106455962076,1.463106455962076,1.463106455962076,1.463106455962076,1.463106455962076,1.463106455962076,1.463106455962076,1.463106455962076,1.463106455962076,1.463106455962076,1.4570043196511886,1.4189138694149455,1.4108832036366774,1.340393890736035,1.257520145801225,1.2170931807137748,1.187512179049211,1.187512179049211,1.187512179049211,1.187512179049211,1.187512179049211,1.187512179049211,1.1678847359413809,1.1678847359413809,1.1540940660554981,1.1205707305341814,1.1205707305341814,1.1003920638583051,1.1003920638583051,1.1003920638583051,1.1003920638583051,1.1003920638583051,1.1003920638583051,1.1003920638583051,1.1003920638583051,1.1003920638583051,1.1003920638583051,1.1003920638583051,1.1003920638583051,1.1003920638583051,1.1003920638583051,1.0738277219158432,1.0738277219158432,1.0480072414144943,1.0480072414144943,1.0480072414144943,1.0480072414144943,1.0480072414144943,1.0480072414144943,1.0480072414144943,1.0480072414144943,1.0480072414144943,1.0480072414144943,1.0480072414144943,1.0480072414144943,1.0480072414144943,1.0480072414144943,1.0480072414144943,1.0480072414144943,1.0480072414144943,1.0480072414144943,1.0480072414144943,1.0480072414144943,1.0471975511965976],[1.0471975511965976,1.0471975511965976,1.0471975511965976,1.0471975511965976,1.0471975511965976,1.0471975511965976,1.0471975511965976,1.0599033477277158,1.0990989496547705,1.1538387297046513,1.167955438955815,1.2311923967796385,1.2459220727873574,1.3253723116824059,1.374525053350806,1.4692697774969872,1.5471228300350999,1.5627465586555767,1.6242075145383426,1.6395184499253548,1.7003332951259265,1.7572266748706822,1.7862231597962097,1.828998607806502,1.8569811237667644,1.8800128381774028,1.9067156783789379,1.9329173864977933,1.971235451728204,1.9837371329078224,2.0441437827128803,2.0557974558603878,2.089892502241986,2.122686355769965,2.1541855747931318,2.164400191313902,2.174473523711451,2.174473523711451,2.174473523711451,2.174473523711451,2.174473523711451,2.174473523711451,2.174473523711451,2.174473523711451,2.174473523711451,2.174473523711451,2.174473523711451,2.174473523711451,2.174473523711451,2.174473523711451,2.174473523711451,2.174473523711451,2.174473523711451,2.174473523711451,2.174473523711451,2.174473523711451,2.0943951023931953]],"response_history":["2"],"rt":19630,"trial_type":"polygon-arrow-question","trial_index":0,"trial_index_global":9,"time_elapsed":235591,"internal_chunk_id":"0-0.3-0"},{"nsides":6,"feedback":"Correct! 1 <img src=./images/hexagon_symbol.png style=width:14px;height:14px> 1 = 2 because 1 step clockwise on the hexagon from 1 brings us to 2. Equivalently, 1 + 1 = 2 and 2 is less than 6.","orientation_history":[0],"rt":2138,"trial_type":"polygon-arrow-feedback","trial_index":0,"trial_index_global":10,"time_elapsed":237729,"internal_chunk_id":"0- 0.3-0"},{"nsides":6,"question":"What is 3 <img src=./images/hexagon_symbol.png style=width:14px;height:14px> 0? Try to solve this problem using the arithmetic technique. <br /><br /> (Remember, to perform <img src=./images/hexagon_symbol.png style=width:14px;height:14px> using arithmetic, you start with the first number, and then add the second one to it. If the sum is smaller than 6, that's your result. If the sum is 6 or bigger, you subtract 6 to get your result.)","response_type":"free","response_choices":[],"correct_response":"3","response":"3","explain":false,"explanation":"","explanation_history":[],"orientation_history":[[0]],"response_history":["3"],"rt":10558,"trial_type":"polygon-arrow-question","trial_index":0,"trial_index_global":11,"time_elapsed":248287,"internal_chunk_id":"0-0.3-0"},{"nsides":6,"feedback":"Correct! 3 <img src=./images/hexagon_symbol.png style=width:14px;height:14px> 0 = 3 because 3 + 0 = 3 and 3 - 6 = 3.  Equivalently, 0 steps c lockwise  on the hexagon from 3 brings us to 3.","orientation_history":[0],"rt":2797,"trial_type":"polygon-arrow-feedback","trial_index":0,"trial_index_global":12,"time_elapsed":251085,"internal_chunk_id":"0-0.3-0"},{"nsides":6,"question":"What is 4 <img src=./images/hexagon_symbol.png style=width:14px;height:14px> 4? Try to solve this problem using the hexagon. <br /><br /> (Remember, to perform <img src=./images/hexagon_symbol.png style=width:14px;height:14px> on the hexagon, you can use the interactive diagram on the right, or perform the operation in your mind. Point the arrow at the first number on the hexagon, and then move the arrow the second number of points clockwise around the hexagon.)","response_type":"free","response_choices":[],"correct_response":"2","response":"2\n","explain":false,"explanation":"","explanation_history":[],"orientation_history":[[0],[0,0,0,0,0,-0.0008022461175025697,6.196262640106212,6.14690545380387,6.069502647791307,5.963109793092403,5.860357223510977,5.613566968163019,5.505133200801427,5.250067455461778,4.984932605399168,4.800618208614128,4.56464831077768,4.483117383455487,4.365804526017038,4.314926259336519,4.242897756381038,4.208465729492661,4.175133168374899,4.158885444573543,4.105933713206874,4.076783983560721,4.048703089383898,3.992881904145274,3.9684905482197808,3.9115526136795653,3.8800107011662988,3.8800107011662988,3.8800107011662988,3.8800107011662988,3.8800107011662988,3.8800107011662988,3.8800107011662988,3.8800107011662988,3.8798107011689655,3.8798107011689655,3.8798107011689655,3.8798107011689655,3.8798107011689655,3.8895153654381813,3.8895153654381813,3.8895153654381813,3.8895153654381813,3.8895153654381813,3.8895153654381813,3.9091056365080314,3.9091056365080314,3.9091056365080314,3.9286658572967,3.9391063131995594,4.000476129380605,4.0317474658194,4.051558864580989,4.051558864580989,4.051558864580989,4.051558864580989,4.051558864580989,4.051558864580989,4.051558864580989,4.051558864580989,4.051558864580989,4.051558864580989,4.063337361291825,4.1343984171302095,4.185331559561418,4.246819304905798,4.25945775664101,4.25945775664101,4.25945775664101,4.25945775664101,4.25945775664101,4.25945775664101,4.25945775664101,4.25945775664101,4.25945775664101,4.25945775664101,4.25945775664101,4.25945775664101,4.25945775664101,4.25945775664101,4.25945775664101,4.25945775664101,4.25945775664101,4.25945775664101,4.25945775664101,4.25945775664101,4.25945775664101,4.25945775664101,4.25945775664101,4.25945775664101,4.25945775664101,4.25945775664101,4.25945775664101,4.25945775664101,4.25945775664101,4.25945775664101,4.25945775664101,4.302999473304284,4.503702710540153,4.600568417928545,4.655308197978425,4.709309698354393,4.7362122971336555,4.81607093860426,4.9066359821392656,4.931822144595899,4.968928850195124,5.017037439498357,5.0404657043419,5.074785659733786,5.086000709364933,5.086000709364933,5.108086669801961,5.108086669801961,5.118955806979232,5.118955806979232,5.118955806979232,5.118955806979232,5.118955806979232,5.118955806979232,5.118955806979232,5.140342919830961,5.1612585972495015,5.1817005622048455,5.191743655583156,5.191743655583156,5.191743655583156,5.191743655583156,5.191743655583156,5.191743655583156,5.191743655583156,5.191743655583156,5.191743655583156,5.191743655583156,5.191743655583156,5.233633684258842,5.296416966838131,5.388123299764932,5.486545787256991,5.553433972966251,5.630694649294589,5.678820143785885,5.701924895990408,5.762456915772516,5.774651433220767,5.853116802973261,5.91282834377965,6.01033832836628,6.054476456392442,6.082365851624996,6.149332633503544,6.200793475630474,-0.04488626495801262,-0.03269537323354599,-0.020511726492723037,-0.020511726492723037,-0.020511726492723037,-0.020511726492723037,-0.020511726492723037,-0.020511726492723037,-0.020511726492723037,-0.020511726492723037,-0.020511726492723037,-0.020511726492723037,-0.020511726492723037,-0.020511726492723037,-0.020511726492723037,-0.020511726492723037,-0.020511726492723037,-0.020511726492723037,-0.020511726492723037,-0.020511726492723037,-0.020511726492723037,-0.020511726492723037,-0.020511726492723037,-0.020511726492723037,-0.020511726492723037,-0.020511726492723037,-0.00833893109633288,0.11202044359511243,0.23785627644254248,0.33021282079981185,0.368541685933367,0.4010723763913251,0.4228697299132038,0.4559771270027744,0.4897080584829827,0.5645791398768245,0.5815541847477204,0.6082086454242709,0.6423230897969431,0.6423230897969431,0.6423230897969431,0.6423230897969431,0.6766392965087538,0.7452649107975887,0.7948855447670076,0.8516550818909078,0.8516550818909078,0.8587206888803172,0.8587206888803172,0.8587206888803172,0.8587206888803172,0.9131744130096245,0.9288379306685981,0.9598611519168341,0.9598611519168341,0.9598611519168341,0.9598611519168341,0.9598611519168341,0.9598611519168341,0.9598611519168341,0.9598611519168341,0.9598611519168341,0.9598611519168341,0.9598611519168341,0.9598611519168341,0.9598611519168341,0.9598611519168341,0.9598611519168341,0.9598611519168341,0.9598611519168341,0.9598611519168341,0.9598611519168341,0.9656916279643546,1.005542926553302,1.0551440339211244,1.0653728627120178,1.1180259523340494,1.1882196891521541,1.2687368812617679,1.3404698779362672,1.4275099707128531,1.5384018864442315,1.6217272690886784,1.766981310619385,1.810560217765035,1.884038974091407,1.929780050112455,1.9585860177970058,1.9819502771788355,1.9819502771788355,1.9819502771788355,2.0000865142310795,2.0000865142310795,2.0000865142310795,2.0000865142310795,2.0000865142310795,2.0000865142310795,2.0000865142310795,2.0000865142310795,2.0000865142310795,2.0000865142310795,2.0000865142310795,2.0000865142310795,2.0000865142310795,2.0000865142310795,2.0000865142310795,2.0000865142310795,2.0943951023931953]],"response_history":["2\n"],"rt":11258,"trial_type":"polygon-arrow-question","trial_index":0,"trial_index_global":13,"time_elapsed":262343,"internal_chunk_id":"0-0.3-0"},{"nsides":6,"feedback":"Sorry, that was incorrect. 4 <img src=./ima ges/hexa gon_symbol.png style=width:14px;height:14px> 4 = 2 because 4 steps clockwise on the hexagon from 4 brings us to 2. Equivalently, 4 + 4 = 8 and 8 - 6 = 2.","orientation_history":[0],"rt":3943,"trial_type":"polygon-arrow-feedback","trial_index":0,"trial_index_global":14,"time_elapsed":266287,"internal_chunk_id":"0-0.3-0"},{"nsides":6,"question":"What is 1 <img src=./images/hexagon_symbol.png style=width:14px;height:14px> 3? Try to solve this problem using the arithmetic technique. <br /><br /> (Remember, to perform <img src=./images/hexagon_symbol.png style=width:14px;height:14px> by arithmetic, you start with the first number, and then add the second one to it. If the sum is smaller than 6, that's your result. If the sum is 6 or bigger, you subtract 6 to get your result.)","response_type":"free","response_choices":[],"correct_response":"4","response":"4","explain":false,"explanation":"","explanation_history":[],"orientation_history":[[0]],"response_history":["4"],"rt":7868,"trial_type":"polygon-arrow-question","trial_index":0,"trial_index_global":15,"time_elapsed":274155,"internal_chunk_id":"0-0.3-0"},{"nsides":6,"feedback":"Correct! 1 <img src=./images/hexagon_symbol.png style=width:14px;height:14px> 3 = 4 because 1 + 3 = 4 and 4 - 6 = 4.  Equivalently, 3 steps clockwise on the hexagon from 1 brings us to 4.","orientation_history":[0],"rt":2330,"trial_type":"polygon-arrow-feedback","trial_index":0,"trial_index_global":16,"time_elapsed":276485,"internal_chunk_id":"0-0.3-0"},{"nsides":6,"question":"What is 4 <img src=./images/hexagon_symbol.png style=width:14px;height:14px> 3? <br /><br /> (Remember, to perform <img src=./images/hexagon_symbol.png style=width:14px;height:14px>, you can either use a method based on the hexagon at right, or a method based on arithmetic.<br /><br /><b>Hexagon method:</b> you can use the interactive diagram on the right, or perform the operation in your mind. Point the arrow at t he first  number, then move the arrow the second number of points clockwise around the hexagon. The number the arrow arrives at is your result. <br /><br /><b>Arithmetic method:</b> you start with the first number, and then add the second one to it. If the sum is smaller than 6, that's your result. If the sum is 6 or bigger, you subtract 6 to get your result.)","response_type":"free","response_choices":[],"correct_response":"1","response":"1","explain":false,"explanation":"","explanation_history":[],"orientation_history":[[0]],"response_history":["1\n","1"],"rt":11846,"trial_type":"polygon-arrow-question","trial_index":0,"trial_index_global":17,"time_elapsed":288331,"internal_chunk_id":"0-0.3-0"},{"nsides":6,"feedback":"Correct! 4 <img src=./images/hexagon_symbol.png style=width:14px;height:14px> 3 = 1 because 3 steps clockwise on the hexagon from 4 brings us to 1. Equivalently, 4 + 3 = 7 and 7 - 6 = 1.","orientation_history":[0],"rt":1630,"trial_type":"polygon-arrow-feedback ","trial_index":0,"trial_index_global":18,"time_elapsed":289961,"internal_chunk_id":"0-0.3-0"},{"nsides":6,"question":"What is 0 <img src=./images/hexagon_symbol.png style=width:14px;height:14px> 5? <br /><br /> (Remember, to perform <img src=./images/hexagon_symbol.png style=width:14px;height:14px>, you can either use a method based on the hexagon at right, or a method based on arithmetic.<br /><br /><b>Hexagon method:</b> you can use the interactive diagram on the right, or perform the operation in your mind. Point the arrow at the first number, then move the arrow the second number of points clockwise around the hexagon. The number the arrow arrives at is your result. <br /><br /><b>Arithmetic method:</b> you start with the first number, and then add the second one to it. If the sum is smaller than 6, that's your result. If the sum is 6 or bigger, you subtract 6 to get your result.)","response_type":"free","response_choices":[],"correct_response":"5","response":"5 ","explain":false,"explanation":"","explanation_history":[],"orientation_history":[[0]],"response_history":["5"],"rt":5312,"trial_type":"polygon-arrow-question","trial_index":0,"trial_index_global":19,"time_elapsed":295273,"internal_chunk_id":"0-0.3-0"},{"nsides":6,"feedback":"Correct! 0 <img src=./images/hexagon_symbol.png style=width:14px;height:14px> 5 = 5 because 5 steps clockwise on the hexagon from 0 brings us to 5. Equivalently, 0 + 5 = 5 and 5 is less than 6.","orientation_history":[0],"rt":1624,"trial_type":"polygon-arrow-feedback","trial_index":0,"trial_index_global":20,"time_elapsed":296897,"internal_chunk_id":"0-0.3-0"},{"nsides":6,"question":"What is 2 <img src=./images/hexagon_symbol.png style=width:14px;height:14px> 5? <br /><br /> (Remember, to perform <img src=./images/hexagon_symbol.png style=width:14px;height:14px>, you can either use a method based on the hexagon at right, or a method based on arithmetic.<br /><br /><b>Hexagon method:</b>  you can  use the interactive diagram on the right, or perform the operation in your mind. Point the arrow at the first number, then move the arrow the second number of points clockwise around the hexagon. The number the arrow arrives at is your result. <br /><br /><b>Arithmetic method:</b> you start with the first number, and then add the second one to it. If the sum is smaller than 6, that's your result. If the sum is 6 or bigger, you subtract 6 to get your result.)","response_type":"free","response_choices":[],"correct_response":"1","response":"1","explain":false,"explanation":"","explanation_history":[],"orientation_history":[[0]],"response_history":["1"],"rt":4922,"trial_type":"polygon-arrow-question","trial_index":0,"trial_index_global":21,"time_elapsed":301819,"internal_chunk_id":"0-0.3-0"},{"nsides":6,"feedback":"Correct! 2 <img src=./images/hexagon_symbol.png style=width:14px;height:14px> 5 = 1 because 5 steps clockwise on the hexagon from 2 brings us to 1. Equivalent ly, 2 +  5 = 7 and 7 - 6 = 1.","orientation_history":[0],"rt":1478,"trial_type":"polygon-arrow-feedback","trial_index":0,"trial_index_global":22,"time_elapsed":303297,"internal_chunk_id":"0-0.3-0"},{"nsides":6,"instructions":"Now we're going to discuss a couple special properties of this new operation, <img src=./images/hexagon_symbol.png style=width:14px;height:14px> that we've learned. First, notice that the number 0 behaves in a special way under <img src=./images/hexagon_symbol.png style=width:14px;height:14px>. Whenever we combine 0 with anything else, we get that same thing back. We'll say that 0 is the <i>identity</i> under <img src=./images/hexagon_symbol.png style=width:14px;height:14px>, because when you combine it with something it gives you that identical thing back.","orientation_history":[0],"rt":17432,"trial_type":"polygon-arrow-instructions","trial_index":0,"trial_index_global":23,"time_elapsed":320731,"internal_chunk_id":"0-0"},{"nsides":6,"instructions":"Now that we know 0 is the identity under <img src=./images/hexagon_symbol.png style=width:14px;height:14px>, we're going to make a new definition. We'll say that the <i>inverse</i> of a number is the element that you combine with it to produce the identity. For example, 5 <img src=./images/hexagon_symbol.png style=width:14px;height:14px> 1 = 0, so we say 1 is the inverse of 5 under <img src=./images/hexagon_symbol.png style=width:14px;height:14px>, (remember 0 is the identity under <img src=./images/hexagon_symbol.png style=width:14px;height:14px>). Similarly, 3 is its own inverse under <img src=./images/hexagon_symbol.png style=width:14px;height:14px>, because 3 <img src=./images/hexagon_symbol.png style=width:14px;height:14px> 3 = 0.","orientation_history":[0],"rt":34747,"trial_type":"polygon-arrow-instructions","trial_index":0,"trial_index_global":24,"time_elapsed":355478,"internal_chunk_id":"0-0"},{"nsides":6,"question":"Now y ou try! What is the inverse of 4 under <img src=./images/hexagon_symbol.png style=width:14px;height:14px>? <br /><br /> (Remember, the inverse of an element is the thing which you combine with it to produce the identity.)","response_type":"free","response_choices":[],"correct_response":"2","response":"2","explain":false,"explanation":"","explanation_history":[],"orientation_history":[[0]],"response_history":["2"],"rt":9335,"trial_type":"polygon-arrow-question","trial_index":0,"trial_index_global":25,"time_elapsed":364814,"internal_chunk_id":"0-0.7-0"},{"nsides":6,"feedback":"Correct! The inverse of 4 under <img src=./images/hexagon_symbol.png style=width:14px;height:14px> is 2 because 4 <img src=./images/hexagon_symbol.png style=width:14px;height:14px> 2 = 0, and 0 is the identity under <img src=./images/hexagon_symbol.png style=width:14px;height:14px>.","orientation_history":[0],"rt":1845,"trial_type":"polygon-arrow-feedback","trial_index":0,"trial_index_global":26,"time_elapsed":366660,"internal_chunk_id":"0-0.7-0"},{"nsides":6,"question":"What is the inverse of 1 under <img src=./images/hexagon_symbol.png style=width:14px;height:14px>? <br /><br /> (Remember, the inverse of an element is the thing which you combine with it to produce the identity.)","response_type":"free","response_choices":[],"correct_response":"5","response":"5","explain":false,"explanation":"","explanation_history":[],"orientation_history":[[0]],"response_history":["5"],"rt":3863,"trial_type":"polygon-arrow-question","trial_index":0,"trial_index_global":27,"time_elapsed":370524,"internal_chunk_id":"0-0.7-0"},{"nsides":6,"feedback":"Correct! The inverse of 1 under <img src=./images/hexagon_symbol.png style=width:14px;height:14px> is 5 because 1 <img src=./images/hexagon_symbol.png style=width:14px;height:14px> 5 = 0, and 0 is the identity under <img src=./images/hexagon_symbol.png style=width:14px;height:14px>.","orientation_history":[0],"rt":1259,"trial_type":"polygon-arrow-feedback","trial_index":0,"trial_index_global":28,"time_elapsed":371784,"internal_chunk_id":"0-0.7-0"},{"nsides":6,"question":"What is the inverse of 3 under <img src=./images/hexagon_symbol.png style=width:14px;height:14px>? <br /><br /> (Remember, the inverse of an element is the thing which you combine with it to produce the identity.)","response_type":"free","response_choices":[],"correct_response":"3","response":"3","explain":false,"explanation":"","explanation_history":[],"orientation_history":[[0]],"response_history":["3"],"rt":3359,"trial_type":"polygon-arrow-question","trial_index":0,"trial_index_global":29,"time_elapsed":375144,"internal_chunk_id":"0-0.7-0"},{"nsides":6,"feedback":"Correct! The inverse of 3 under <img src=./images/hexagon_symbol.png style=width:14px;height:14px> is 3 because 3 <img src=./images/hexagon_symbol.png style=width:14px;height:14px> 3 = 0, and 0 is the identity und er <img  src=./images/hexagon_symbol.png style=width:14px;height:14px>.","orientation_history":[0],"rt":1048,"trial_type":"polygon-arrow-feedback","trial_index":0,"trial_index_global":30,"time_elapsed":376192,"internal_chunk_id":"0-0.7-0"},{"nsides":6,"question":"What is the inverse of 2 under <img src=./images/hexagon_symbol.png style=width:14px;height:14px>? <br /><br /> (Remember, the inverse of an element is the thing which you combine with it to produce the identity.)","response_type":"free","response_choices":[],"correct_response":"4","response":"4","explain":false,"explanation":"","explanation_history":[],"orientation_history":[[0]],"response_history":["4"],"rt":3455,"trial_type":"polygon-arrow-question","trial_index":0,"trial_index_global":31,"time_elapsed":379648,"internal_chunk_id":"0-0.7-0"},{"nsides":6,"feedback":"Correct! The inverse of 2 under <img src=./images/hexagon_symbol.png style=width:14px;height:14px> is 4 because 2 <img src=./images/he xagon_sy mbol.png style=width:14px;height:14px> 4 = 0, and 0 is the identity under <img src=./images/hexagon_symbol.png style=width:14px;height:14px>.","orientation_history":[0],"rt":871,"trial_type":"polygon-arrow-feedback","trial_index":0,"trial_index_global":32,"time_elapsed":380520,"internal_chunk_id":"0-0.7-0"},{"nsides":6,"question":"What is the inverse of 0 under <img src=./images/hexagon_symbol.png style=width:14px;height:14px>? <br /><br /> (Remember, the inverse of an element is the thing which you combine with it to produce the identity.)","response_type":"free","response_choices":[],"correct_response":"0","response":"6","explain":false,"explanation":"","explanation_history":[],"orientation_history":[[0]],"response_history":["6"],"rt":14237,"trial_type":"polygon-arrow-question","trial_index":0,"trial_index_global":33,"time_elapsed":394758,"internal_chunk_id":"0-0.7-0"},{"nsides":6,"feedback":"Sorry, that was incorrect. The inverse of 0 under <img src= ./imag es/hexagon_symbol.png style=width:14px;height:14px> is 0 because 0 <img src=./images/hexagon_symbol.png style=width:14px;height:14px> 0 = 0, and 0 is the identity under <img src=./images/hexagon_symbol.png style=width:14px;height:14px>.","orientation_history":[0],"rt":2225,"trial_type":"polygon-arrow-feedback","trial_index":0,"trial_index_global":34,"time_elapsed":396984,"internal_chunk_id":"0-0.7-0"},{"nsides":6,"instructions":"It is also possible to successively apply <img src=./images/hexagon_symbol.png style=width:14px;height:14px>, and the operation can simply be performed starting with the left-most pair. For example, 2 <img src=./images/hexagon_symbol.png style=width:14px;height:14px> 3 <img src=./images/hexagon_symbol.png style=width:14px;height:14px> 4 = 5 <img src=./images/hexagon_symbol.png style=width:14px;height:14px> 4 = 3.","orientation_history":[0],"rt":29770,"trial_type":"polygon-arrow-instructions","trial_index":0,"trial_index_global":35,"time_elapsed":426754,"internal_chunk_id":"0-0"},{"nsides":6,"instructions":"We have one last definition to learn today, using the successive operations we just learned. Let's start with an example. Under our operation <img src=./images/hexagon_symbol.png style=width:14px;height:14px> we can make every other number using just 1: 2 = 1 <img src=./images/hexagon_symbol.png style=width:14px;height:14px> 1, 3 = 1 <img src=./images/hexagon_symbol.png style=width:14px;height:14px> 1 <img src=./images/hexagon_symbol.png style=width:14px;height:14px> 1, 4 = 1 <img src=./images/hexagon_symbol.png style=width:14px;height:14px> 1 <img src=./images/hexagon_symbol.png style=width:14px;height:14px> 1 <img src=./images/hexagon_symbol.png style=width:14px;height:14px> 1, 5 = 1 <img src=./images/hexagon_symbol.png style=width:14px;height:14px> 1 <img src=./images/hexagon_symbol.png style=width:14 px;heigh t:14px> 1 <img src=./images/hexagon_symbol.png style=width:14px;height:14px> 1 <img src=./images/hexagon_symbol.png style=width:14px;height:14px> 1, and 0 = 1 <img src=./images/hexagon_symbol.png style=width:14px;height:14px> 1 <img src=./images/hexagon_symbol.png style=width:14px;height:14px> 1 <img src=./images/hexagon_symbol.png style=width:14px;height:14px> 1 <img src=./images/hexagon_symbol.png style=width:14px;height:14px> 1 <img src=./images/hexagon_symbol.png style=width:14px;height:14px> 1. Because 1 can make every other element under <img src=./images/hexagon_symbol.png style=width:14px;height:14px>, we say that 1 is a <i>generator</i> under <img src=./images/hexagon_symbol.png style=width:14px;height:14px>. <br /><br /> However, 2 is not a generator under <img src=./images/hexagon_symbol.png style=width:14px;height:14px>, because 4 = 2 <img src=./images/hexagon_symbol.png style=width:1 4px;height:14px> 2, and 0 = 2 <img src=./images/hexagon_symbol.png style=width:14px;height:14px> 2 <img src=./images/hexagon_symbol.png style=width:14px;height:14px> 2, but there is no way to make 1, 3, or 5 using just 2.","orientation_history":[0],"rt":64332,"trial_type":"polygon-arrow-instructions","trial_index":0,"trial_index_global":36,"time_elapsed":491086,"internal_chunk_id":"0-0"},{"nsides":6,"question":"Now you try! Is 3 a generator under <img src=./images/hexagon_symbol.png style=width:14px;height:14px>? <br /><br /> (Remember, a generator is an element which can make every other element.)","response_type":"multi","response_choices":["Yes","No"],"correct_response":"No","response":"Yes","explain":false,"explanation":"","explanation_history":[],"orientation_history":[[0],[0,0,0,0,0,0,0,0,0,0,0,0,0,0,0,0,0,0,0.029336953212394157,0.1787291828874895,0.40721601219867765,0.4924953254616271,0.6047329754715386,0.6752744177664358,0.7159088015516184,0.783668061317433,0.8290434411366134,0.9070766839069768,0.9559013107557951,0.9959508587200847,1.0716736570910768,1.1073023984444865,1.1073023984444865,1.1326345989022113,1.1326345989022113,1.1326345989022113,1.1326345989022113,1.1326345989022113,1.1326345989022113,1.1326345989022113,1.1326345989022113,1.1326345989022113,1.1326345989022113,1.1326345989022113,1.1326345989022113,1.1326345989022113,1.0471975511965976],[1.0471975511965976,1.0471975511965976,1.0471975511965976,1.0471975511965976,1.0471975511965976,1.0471975511965976,1.0471975511965976,1.0471975511965976,1.086650752293637,1.1137657149724214,1.1275610124517181,1.1988030386348705,1.243228855412642,1.3041619417131545,1.4316460892279523,1.4632620569204204,1.526228561977999,1.6181240158458066,1.7082407200472844,1.7522006507728076,1.809344091783583,1.8415240487738826,1.854814279920765,1.8679791707181972,1.8810159880396204,1.8810159880396204,1.9066956015348198,1.9193340532700311,1.9318357344496495,1.9441990092794346,1.9564224471719858,1.9804450798528015,2.0038960574022147,2.0379911037838134,2.0599980628764145,2.0707849573117922,2.091927458994731,2.102284176334959,2.102284176334959,2.102284176334959,2.102284176334959,2.102284176334959,2.102284176334959,2.102284176334959,2.102284176334959,2.102284176334959,2.102284176334959,2.102284176334959,2.102284176334959,2.102284176334959,2.102284176334959,2.102284176334959,2.102284176334959,2.102284176334959,2.102284176334959,2.102284176334959,2.122572125253278,2.1687337653796135,2.2207567786609284,2.247102589178832,2.3206287327675703,2.35309257092769,2.4086704544250424,2.456156446753071,2.471835485545032,2.5487975993729117,2.661236135789557,2.753312080142641,2.831662865531478,2.868436967602846,2.935629229281025,2.976264047803358,3.0163140173689484,3.0261429817465837,3.0261429817465837,3.035802061111183,3.035802061111183,3.035802061111183,3.035802061111183,3.035802061111183,3.035802061111183,3.035802061111183,3.035802061111183,3.035802061111183,3.035802061111183,3.035802061111183,3.035802061111183,3.035802061111183,3.035802061111183,3.035802061111183,3.035802061111183,3.035802061111183,3.035802061111183,3.035802061111183,3.035802061111183,3.035802061111183,3.035802061111183,3.035802061111183,3.035802061111183,3.0449606992356486,3.0816414869923,3.1091574762777547,3.1822184044471484,3.2003468241354778,3.236358352069365,3.2896000342452343,3.335315583130943,3.428882269888411,3.465459110280869,3.5177370147453475,3.568540718803569,3.5954400586296726,3.6265054024438443,3.652978966825927,3.711675396538215,3.796568305810953,3.8321700688349587,3.849700347831595,3.8841808285283577,3.895603308228509,3.895603308228509,3.895603308228509,3.895603308228509,3.895603308228509,3.895603308228509,3.895603308228509,3.895603308228509,3.895603308228509,3.895603308228509,3.895603308228509,3.9011173619767563,3.9184229525283545,3.9184229525283545,3.9411891700483697,3.953528550308123,3.9649910750325255,3.9827988681105593,3.9827988681105593,4.005679387523907,4.012210015725422,4.023641527371764,4.035031922035625,4.053097827538752,4.053097827538752,4.053097827538752,4.053097827538752,4.053097827538752,4.053097827538752,4.053097827538752,4.053097827538752,4.053097827538752,4.053097827538752,4.053097827538752,4.053097827538752,4.071253286407114,4.071253286407114,4.071253286407114,4.071253286407114,4.071253286407114,4.071253286407114,4.071253286407114,4.071253286407114,4.071253286407114,4.071253286407114,4.071253286407114,4.071253286407114,4.071253286407114,4.071253286407114,4.071253286407114,4.071253286407114,4.071253286407114,4.071253286407114,4.071253286407114,4.071253286407114,4.071253286407114,4.071253286407114,4.071253286407114,4.071253286407114,4.071253286407114,4.071253286407114,4.071253286407114,4.071253286407114,4.071253286407114,4.071253286407114,4.071253286407114,4.071253286407114,4.071253286407114,4.071253286407114,4.071253286407114,4.071253286407114,4.071253286407114,4.071253286407114,4.071253286407114,4.071253286407114,4.071253286407114,4.071253286407114,4.071253286407114,4.071253286407114,4.071253286407114,4.071253286407114,4.071253286407114,4.071253286407114,4.071253286407114,4.071253286407114,4.071253286407114,4.071253286407114,4.078132983612495,4.08507448093968,4.139587524015992,4.227985806713445,4.302123601551795,4.380499392132701,4.418694632918296,4.501220123640756,4.55748610744444,4.642914292193584,4.690514639377,4.7568189667375265,4.831453090808682,4.895174328204967,4.965592591357888,5.008073698087957,5.041127314293432,5.07330997477771,5.096857023688296,5.096857023688296,5.104591676072972,5.112268647428955,5.112268647428955,5.112268647428955,5.112268647428955,5.112268647428955,5.112268647428955,5.112268647428955,5.112268647428955,5.112268647428955,5.112268647428955,5.112268647428955,5.112268647428955,5.112268647428955,5.112268647428955,5.134951108809673,5.182394317707827,5.255667666711881,5.344772248460227,5.37037095266274,5.509143441969935,5.604168085999465,5.695159692155734,5.768932053888777,5.801814933694289,5.862030385088412,5.924735208995914,5.983267966803447,6.025838580732213,6.039754183432352,6.09135105738372,6.123565488090931,6.143404154869856,6.143404154869856,6.143404154869856,6.143404154869856,6.143404154869856,6.143404154869856,6.143404154869856,6.143404154869856,6.143404154869856,6.143404154869856,6.143404154869856,6.143404154869856,6.143404154869856,6.143404154869856,6.143404154869856,6.143404154869856,6.143404154869856,6.143404154869856,6.143404154869856,6.213234473895428,0.14704102762232818,0.25879639382315167,0.3666763265293833,0.4851484867091842,0.5404886065819835,0.5924782763756282,0.6189333983199429,0.6438674502634864,0.6819961014084246,0.7068156125546907,0.7316580970528218,0.7440783810452203,0.762929433491617,0.7754053925218982,0.7878658067959128,0.8003068445107223,0.8060175402637539,0.8251156492911175,0.8374759592259433,0.8498019913467169,0.8620901592910426,0.8620901592910426,0.8620901592910426,0.8743369444094528,0.8743369444094528,0.8936537686570416,0.8936537686570416,0.8936537686570416,0.8936537686570416,0.8936537686570416,0.8936537686570416,0.8936537686570416,0.8936537686570416,0.8936537686570416,0.8936537686570416,0.8936537686570416,0.8936537686570416,0.8936537686570416,0.8936537686570416,0.8936537686570416,0.8936537686570416,0.8936537686570416,0.9008412173433781,0.9326221959588669,0.9400398782911791,0.9400398782911791,0.9475288987054358,0.9475288987054358,0.9475288987054358,0.9475288987054358,0.9475288987054358,0.9475288987054358,0.9475288987054358,0.9475288987054358,0.9475288987054358,0.9475288987054358,0.9475288987054358,0.9475288987054358,0.9475288987054358,0.9475288987054358,0.9475288987054358,0.9475288987054358,0.9475288987054358,0.9475288987054358,0.9475288987054358,0.9475288987054358,0.9475288987054358,0.9475288987054358,0.9475288987054358,0.9475288987054358,0.9475288987054358,0.9475288987054358,0.9475288987054358,0.9475288987054358,0.9475288987054358,0.9475288987054358,0.9475288987054358,0.9475288987054358,0.9475288987054358,0.9475288987054358,0.9475288987054358,0.9475288987054358,0.9475288987054358,0.9475288987054358,0.9475288987054358,0.9475288987054358,0.9475288987054358,0.9475288987054358,0.9475288987054358,0.9475288987054358,0.9475288987054358,0.9475288987054358,0.9475288987054358,0.9475288987054358,0.9475288987054358,0.9475288987054358,0.9475288987054358,0.9475288987054358,0.9475288987054358,0.9475288987054358,0.9475288987054358,0.9475288987054358,1.0471975511965976],[1.0471975511965976,1.0471975511965976,1.0471975511965976,1.0471975511965976,1.0471975511965976,1.060703949220945,1.1166301247068127,1.1310785462258457,1.1755050943301093,1.2214800779822133,1.2849736794300146,1.3673141201193342,1.4009831572844293,1.4691928422935723,1.5380493315946169,1.6069058208956615,1.6919939960529669,1.7420673111871654,1.823167066767213,1.8546185852070205,1.9303894758101328,1.945020116963388,2.055336711922238,2.118052105802298,2.153388873400009,2.1870448905911175,2.1978977578835392,2.2395328680528737,2.2784328792175383,2.287748382312741,2.296905057240668,2.296905057240668,2.3059054349346626,2.3059054349346626,2.3059054349346626,2.3059054349346626,2.3059054349346626,2.3059054349346626,2.3059054349346626,2.3059054349346626,2.3059054349346626,2.3059054349346626,2.3059054349346626,2.3059054349346626,2.3059054349346626,2.3059054349346626,2.3059054349346626,2.3059054349346626,2.3059054349346626,2.3059054349346626,2.3059054349346626,2.3059054349346626,2.3059054349346626,2.297366453701313,2.2708644333811234,2.2439692503838584,2.2439692503838584,2.226408109010066,2.2108818791883804,2.2108818791883804,2.2108818791883804,2.2108818791883804,2.2108818791883804,2.2108818791883804,2.2108818791883804,2.2108818791883804,2.2108818791883804,2.2108818791883804,2.2108818791883804,2.2108818791883804,2.2108818791883804,2.2108818791883804,2.2108818791883804,2.2108818791883804,2.2108818791883804,2.2108818791883804,2.2108818791883804,2.2108818791883804,2.2108818791883804,2.1766842987486017,2.1527122835167827,2.136018382548391,2.119429515399516,2.119429515399516,2.1129379328647087,2.1129379328647087,2.1129379328647087,2.1129379328647087,2.1129379328647087,2.1129379328647087,2.1129379328647087,2.1129379328647087,2.0943951023931953],[2.0943951023931953,2.0943951023931953,2.0943951023931953,2.0943951023931953,2.0943951023931953,2.0943951023931953,2.101821789789423,2.101821789789423,2.167805158310273,2.235161743390324,2.266344293209496,2.386698420017151,2.4352753209315194,2.490815157884832,2.5469924683289573,2.5469924683289573,2.624914602833581,2.737510557522606,2.816432405168044,2.900649475943447,2.968501154669803,3.050556217542952,3.129582533334789,3.168037752329367,3.180844933828878,3.1803587889960037,3.239655542059255,3.2517208776955897,3.2842993984118536,3.294167499135393,3.3037774542283813,3.3037774542283813,3.3037774542283813,3.3037774542283813,3.3037774542283813,3.3037774542283813,3.3037774542283813,3.3037774542283813,3.3037774542283813,3.3037774542283813,3.3037774542283813,3.3037774542283813,3.3037774542283813,3.3037774542283813,3.3037774542283813,3.3037774542283813,3.3037774542283813,3.3037774542283813,3.3037774542283813,3.359839763210637,3.486208144897847,3.6060499528084957,3.730404947355257,3.8357536583417313,3.852187363968308,3.8979586225380287,3.9052479405548337,3.912876242215053,3.912876242215053,3.912876242215053,3.935099647648835,3.9572037954091432,3.9572037954091432,3.9572037954091432,3.9572037954091432,3.964280666328088,3.9857067124532453,4.000137837743733,4.000137837743733,4.000137837743733,4.000137837743733,4.000137837743733,4.000137837743733,4.000137837743733,4.000137837743733,4.000137837743733,4.000137837743733,4.000137837743733,4.000137837743733,4.000137837743733,4.000137837743733,4.000137837743733,4.000137837743733,4.000137837743733,4.000137837743733,4.000137837743733,4.036855165648375,4.110911324467621,4.148049230595826,4.24955106160178,4.351994915108905,4.513758123828351,4.6514217090422365,4.723507583748829,4.843764765402214,4.94874365132345,5.076345680548762,5.127705545187372,5.176846279603392,5.2194561323000395,5.230230623094127,5.244922737861391,5.244922737861391,5.244922737861391,5.244922737861391,5.244922737861391,5.244922737861391,5.244922737861391,5.244922737861391,5.244922737861391,5.244922737861391,5.244922737861391,5.244922737861391,5.244922737861391,5.244922737861391,5.244922737861391,5.244922737861391,5.244922737861391,5.244922737861391,5.244922737861391,5.244922737861391,5.244922737861391,5.244922737861391,5.244922737861391,5.244922737861391,5.244922737861391,5.244922737861391,5.244922737861391,5.244922737861391,5.244922737861391,5.244922737861391,5.244922737861391,5.244922737861391,5.244922737861391,5.244922737861391,5.244922737861391,5.244922737861391,5.244922737861391,5.289211441046539,5.491603940994701,5.60925405517393,5.661324208640415,5.734434983871103,5.791509231525557,5.85916283447814,5.897488692283562,5.897488692283562,5.897488692283562,5.897488692283562,5.897488692283562,5.897488692283562,5.897488692283562,5.897488692283562,5.897488692283562,5.897488692283562,5.897488692283562,5.897488692283562,5.897488692283562,5.897488692283562,5.897488692283562,5.897488692283562,5.897488692283562,5.897488692283562,5.897488692283562,5.917600586648242,5.917600586648242,5.917600586648242,5.917600586648242,5.917600586648242,5.917600586648242,5.917600586648242,5.917600586648242,5.917600586648242,5.917600586648242,5.917600586648242,5.917600586648242,5.917600586648242,5.917600586648242,5.979786503058243,6.100051540860307,6.212687532612192,0.12364492909579128,0.2910745901469405,0.4202871519732574,0.5031120683158492,0.6322631891569948,0.684861350349677,0.7528868577370975,0.8189829980194204,0.8430571009481824,0.8666788648808056,0.8898353136122163,0.8898353136122163,0.9213785522643537,0.9281049082195086,0.9500793925161711,0.9500793925161711,0.9500793925161711,0.9500793925161711,0.9500793925161711,0.9500793925161711,0.9500793925161711,0.9500793925161711,0.9500793925161711,0.9500793925161711,0.9500793925161711,0.9500793925161711,0.9564197789008191,1.0073378281548613,1.0220460034864134,1.0655310537164517,1.1267355436044195,1.2066929178509995,1.2498554626161509,1.3164236263919746,1.4221903070963253,1.5611897270818234,1.73675469442742,1.7820362203592666,1.8499056760179045,1.8850002199579996,1.901666629422227,1.907054344782301,1.907054344782301,1.907054344782301,1.907054344782301,1.907054344782301,1.907054344782301,1.907054344782301,1.907054344782301,1.907054344782301,1.907054344782301,1.907054344782301,1.907054344782301,1.907054344782301,1.907054344782301,1.907054344782301,1.9152110148927977,1.9313817120706098,1.9442509208626224,1.952112394125158,1.9676874585771005,1.9830622604264954,1.998233510139669,2.0131983793200843,2.027954485569902,2.035253626013599,2.035253626013599,2.035253626013599,2.035253626013599,2.035253626013599,2.035253626013599,2.035253626013599,2.035253626013599,2.035253626013599,2.035253626013599,2.035253626013599,2.035253626013599,2.035253626013599,2.035253626013599,2.035253626013599,2.035253626013599,2.035253626013599,2.035253626013599,2.035253626013599,2.035253626013599,2.035253626013599,2.035253626013599,2.035253626013599,2.035253626013599,2.0424998759934963,2.0424998759934963,2.0496930556163653,2.070952738692923,2.070952738692923,2.0848582898790537,2.0848582898790537,2.0848582898790537,2.0848582898790537,2.0848582898790537,2.0848582898790537,2.0848582898790537,2.0848582898790537,2.0848582898790537,2.0848582898790537,2.0848582898790537,2.0848582898790537,2.0848582898790537,2.0848582898790537,2.0848582898790537,2.0848582898790537,2.0848582898790537,2.0848582898790537,2.0848582898790537,2.0848582898790537,2.0848582898790537,2.0848582898790537,2.0848582898790537,2.0848582898790537,2.0848582898790537,2.0848582898790537,2.0848582898790537,2.0848582898790537,2.0848582898790537,2.0848582898790537,2.0848582898790537,2.0848582898790537,2.0848582898790537,2.0848582898790537,2.0848582898790537,2.0848582898790537,2.0943951023931953],[2.0943951023931953,2.0822363724489543,2.0822363724489543,2.0822363724489543,2.0822363724489543,2.0943951023931953,2.1181416615829507,2.163387887182015,2.252207388305979,2.3190188906826696,2.3852957852611674,2.4311059305660505,2.551480463341149,2.5580427113940014,2.6669643254011817,2.704682277868046,2.759547069637124,2.813589063220335,2.857499335211755,2.8691036826836243,3.0049018396973945,3.0171121967224117,3.085188654980411,3.118143752594709,3.150313818314797,3.1719269936563963,3.1806423693131247,3.2108389855902573,3.221186073017795,3.2197865691408776,3.2197865691408776,3.2197865691408776,3.2197865691408776,3.2197865691408776,3.2197865691408776,3.2197865691408776,3.2197865691408776,3.2197865691408776,3.2197865691408776,3.2197865691408776,3.2197865691408776,3.141592653589793],[3.141592653589793,3.141592653589793,3.141592653589793,3.141592653589793,3.141592653589793,3.141592653589793,3.156572806357163,3.256942502509769,3.491681344809133,3.558733957728339,3.696143924816987,3.8019287089958964,3.8864724645088944,3.9479334203916605,3.970245408252661,3.9839073158011513,3.9839073158011513,3.9839073158011513,3.9839073158011513,4.020001513600766,4.040791240435013,4.083868024358775,4.112189061903065,4.126215573379351,4.140146560647537,4.140146560647537,4.140146560647537,4.140146560647537,4.140146560647537,4.140146560647537,4.140146560647537,4.140146560647537,4.1887902047863905],[4.1887902047863905,4.182098316977585,4.182098316977585,4.182098316977585,4.182098316977585,4.187131831513976,4.199179441368162,4.2556166196798655,4.295560982645827,4.365298992264149,4.468903698787328,4.625806934495038,4.815219902750364,4.9297545469011315,5.076448773602714,5.1518552327350795,5.209677330157152,5.2316448195758145,5.2316448195758145,5.2316448195758145,5.2316448195758145,5.2316448195758145,5.2316448195758145,5.2316448195758145,5.2316448195758145,5.2316448195758145,5.2316448195758145,5.2316448195758145,5.2316448195758145,5.2316448195758145,5.2316448195758145,5.2316448195758145,5.2316448195758145,5.2316448195758145,5.2316448195758145,5.2316448195758145,5.242423967772733,5.270147304541198,5.491676109157947,5.569947249679225,5.6472709371349765,5.708226414134036,5.756164491707179,5.838737712697437,5.914986864861667,6.021891881934576,6.068868323031407,6.082388733171445,6.127514532681691,6.142752830602427,6.15604705274619,6.198290311566251,6.21137947100293,6.225172874097222,6.238631682534207,6.238631682534207,6.238631682534207,6.238631682534207,6.238631682534207,6.238631682534207,6.238631682534207,6.238631682534207,6.238631682534207,6.238631682534207,6.238631682534207,6.238631682534207,0.0833927837274191,0.1838772532945243,0.36106279919402784,0.5284832888168043,0.6720082731248542,0.7338638493516799,0.786694400704422,0.8303376245342668,0.8594072218170713,0.9232125781614733,0.9373770998949428,0.9655099691843985,0.9849697917270265,0.9987176891229397,1.0039982971878998,1.0407659444855062,1.0407659444855062,1.066862959553704,1.079764297145838,1.079764297145838,1.0884860411003316,1.0884860411003316,1.0884860411003316,1.0884860411003316,1.0884860411003316,1.0884860411003316,1.0884860411003316,1.0884860411003316,1.0884860411003316,1.0884860411003316,1.0884860411003316,1.0884860411003316,1.0884860411003316,1.0884860411003316,1.0884860411003316,1.0884860411003316,1.0884860411003316,1.0884860411003316,1.0884860411003316,1.0884860411003316,1.0884860411003316,1.0884860411003316,1.0884860411003316,1.0884860411003316,1.0884860411003316,1.0884860411003316,1.0884860411003316,1.166162846504285,1.252338849254207,1.312442834280887,1.392925140842502,1.4640166400128765,1.5346942873138274,1.5846826261438558,1.6046639792939954,1.652692665698446,1.6721132457753611,1.720280120147735,1.7282591677375638,1.7658121779872449,1.7751154955171788,1.784381986911976,1.8119470563534659,1.8119470563534659,1.821052984488505,1.821052984488505,1.8301156488196253,1.8301156488196253,1.8301156488196253,1.8301156488196253,1.8301156488196253,1.8301156488196253,1.8301156488196253,1.8301156488196253,1.8301156488196253,1.8301156488196253,1.8301156488196253,1.8301156488196253,1.8301156488196253,1.8301156488196253,1.8301156488196253,1.8301156488196253,1.8570325583633425,1.8747404734016586,1.8747404734016586,1.8835204029325725,1.9009275856328476,1.9095531149516405,1.9181255225223783,1.9181255225223783,1.9266440494084343,1.9351079774562807,1.943516628973612,1.951869366352028,1.9601655916373015,1.9684047460503036,2.012523941631938,2.0322854497582616,2.0598185556391093,2.1169036549213374,2.1526878957182727,2.235436893855501,2.3081918104722248,2.332333840511656,2.3971075874108996,2.442839775756297,2.513323738352991,2.5429232382808045,2.55876521790318,2.602094351577197,2.627582474231932,2.668171022684561,2.704789107579094,2.7230711773682144,2.733798377819803,2.75195410300861,2.7700570545001852,2.8034221514227164,2.8111470909918044,2.8111470909918044,2.8111470909918044,2.8111470909918044,2.8111470909918044,2.8111470909918044,2.8111470909918044,2.8111470909918044,2.8111470909918044,2.8111470909918044,2.8111470909918044,2.8111470909918044,2.8111470909918044,2.8111470909918044,2.8111470909918044,2.8424437981370865,2.9149878575989305,2.95638684436896,3.0494873277713612,3.101012517966094,3.1441020950777383,3.1973494648299816,3.2245312016001,3.2431714897984225,3.3202652349354262,3.3670980484684696,3.4189028721136543,3.472156438352329,3.5019784048168594,3.5403734052506852,3.6160052628133292,3.6791269144988075,3.7234842225131692,3.758912430377015,3.863617610515641,3.9145905571103428,3.95789989823698,3.9939203476661698,4.0115396695637955,4.051091225327446,4.0841200651478875,4.0841200651478875,4.0841200651478875,4.0841200651478875,4.0841200651478875,4.0841200651478875,4.0841200651478875,4.0841200651478875,4.0841200651478875,4.0841200651478875,4.0841200651478875,4.0841200651478875,4.0841200651478875,4.0841200651478875,4.1887902047863905]],"response_history":["Yes"],"rt":45239,"trial_type":"polygon-arrow-question","trial_index":0,"trial_index_global":37,"time_elapsed":536326,"internal_chunk_id":"0-0. 10-0"},{"nsides":6,"feedback":"Sorry, that's incorrect. 3 is not a generator under <img src=./images/hexagon_symbol.png style=width:14px;height:14px>, because 3 = 3, 0 = 3 <img src=./images/hexagon_symbol.png style=width:14px;height:14px> 3, but there is no way to make 1, 2, 4, or 5 using just 3.","orientation_history":[0],"rt":7924,"trial_type":"polygon-arrow-feedback","trial_index":0,"trial_index_global":38,"time_elapsed":544250,"internal_chunk_id":"0-0.10-0"},{"nsides":6,"question":"Is 5 a generator under <img src=./images/hexagon_symbol.png style=width:14px;height:14px>? <br /><br /> (Remember, a generator is an element which can make every other element.)","response_type":"multi","response_choices":["Yes","No"],"correct_response":"Yes","response":"No","explain":false,"explanation":"","explanation_history":[],"orientation_history":[[0]],"response_history":["No"],"rt":28148,"trial_type":"polygon-arrow-question","trial_index":0,"trial_index_global":39,"time_elapsed":572398,"internal_chunk_id":"0-0.10-0"},{"nsides":6,"feedback":"Sorry, that's incorrect. 5 is a generator under <img src=./images/hexagon_symbol.png style=width:14px;height:14px>, because 5 = 5, 4 = 5 <img src=./images/hexagon_symbol.png style=width:14px;height:14px> 5, 3 = 5 <img src=./images/hexagon_symbol.png style=width:14px;height:14px> 5 <img src=./images/hexagon_symbol.png style=width:14px;height:14px> 5, 2 = 5 <img src=./images/hexagon_symbol.png style=width:14px;height:14px> 5 <img src=./images/hexagon_symbol.png style=width:14px;height:14px> 5 <img src=./images/hexagon_symbol.png style=width:14px;height:14px> 5, 1 = 5 <img src=./images/hexagon_symbol.png style=width:14px;height:14px> 5 <img src=./images/hexagon_symbol.png style=width:14px;height:14px> 5 <img src=./images/hexagon_symbol.png style=width:14px;height:14px> 5 <img src=./images/hexagon_symbol.png style=width:14px;heigh t:14px > 5, and 0 = 5 <img src=./images/hexagon_symbol.png style=width:14px;height:14px> 5 <img src=./images/hexagon_symbol.png style=width:14px;height:14px> 5 <img src=./images/hexagon_symbol.png style=width:14px;height:14px> 5 <img src=./images/hexagon_symbol.png style=width:14px;height:14px> 5 <img src=./images/hexagon_symbol.png style=width:14px;height:14px> 5, so you can make all of the numbers under <img src=./images/hexagon_symbol.png style=width:14px;height:14px> using 5","orientation_history":[0],"rt":1988,"trial_type":"polygon-arrow-feedback","trial_index":0,"trial_index_global":40,"time_elapsed":574386,"internal_chunk_id":"0-0.10-0"},{"nsides":6,"question":"Is 4 a generator under <img src=./images/hexagon_symbol.png style=width:14px;height:14px>? <br /><br /> (Remember, a generator is an element which can make every other element.)","response_type":"multi","response_choices":["Yes","No"],"correct_response":"No","response":" No","explain":false,"explanation":"","explanation_history":[],"orientation_history":[[0]],"response_history":["No"],"rt":5124,"trial_type":"polygon-arrow-question","trial_index":0,"trial_index_global":41,"time_elapsed":579510,"internal_chunk_id":"0-0.10-0"},{"nsides":6,"feedback":"Correct! 4 is not a generator under <img src=./images/hexagon_symbol.png style=width:14px;height:14px>, because 4 = 4, 2 = 4 <img src=./images/hexagon_symbol.png style=width:14px;height:14px> 4, and 0 = 4 <img src=./images/hexagon_symbol.png style=width:14px;height:14px> 4 <img src=./images/hexagon_symbol.png style=width:14px;height:14px> 4, but there is no way to make 1, 3, or 5 using just 4.","orientation_history":[0],"rt":9643,"trial_type":"polygon-arrow-feedback","trial_index":0,"trial_index_global":42,"time_elapsed":589153,"internal_chunk_id":"0-0.10-0"},{"nsides":6,"question":"Is 0 a generator under <img src=./images/hexagon_symbol.png style=width:14px;he ight:14p x>? <br /><br /> (Remember, a generator is an element which can make every other element.)","response_type":"multi","response_choices":["Yes","No"],"correct_response":"No","response":"Yes","explain":false,"explanation":"","explanation_history":[],"orientation_history":[[0]],"response_history":["Yes"],"rt":8831,"trial_type":"polygon-arrow-question","trial_index":0,"trial_index_global":43,"time_elapsed":597985,"internal_chunk_id":"0-0.10-0"},{"nsides":6,"feedback":"Sorry, that's incorrect. 0 is not a generator under <img src=./images/hexagon_symbol.png style=width:14px;height:14px>, because 0 = 0, but there is no way to make 1, 2, 3, 4, or 5 using just 0.","orientation_history":[0],"rt":2946,"trial_type":"polygon-arrow-feedback","trial_index":0,"trial_index_global":44,"time_elapsed":600932,"internal_chunk_id":"0-0.10-0"},{"nsides":9,"instructions":"Now we are going to ask you some questions about a new operation, <img src=./images/nonagon_symbol.png style=width :14px;he ight:14px>, on the numbers 0, 1, 2, 3, 4, 5, 6, 7, 8. It works exactly like <img src=./images/hexagon_symbol.png style=width:14px;height:14px>, except now you use the nonagon shown at the right. Equivalently, after adding the two numbers you subtract 9 if your result is 9 or greater.<br /><br />Do you see how the different ways of performing <img src=./images/nonagon_symbol.png style=width:14px;height:14px> give the same result, just like with <img src=./images/hexagon_symbol.png style=width:14px;height:14px>? By labeling the points of the nonagon with the numbers from 0 to 8, we ensure that when we combine two numbers under <img src=./images/nonagon_symbol.png style=width:14px;height:14px>, we only produce numbers between 0 and 8. When we use the arithmetic strategy, adding the second number to the first mimics counting around the nonagon, and subtracting 9 each time we get above 8 makes sure the results correspond to the numbers on the poi nts of t he nonagon.<br /><br />We'll give you one practice question with feedback to make sure you understand the new operation. After that, try to complete the remaining questions as accurately as possible.","orientation_history":[0],"rt":27435,"trial_type":"polygon-arrow-instructions","trial_index":0,"trial_index_global":45,"time_elapsed":628368,"internal_chunk_id":"0-0"},{"nsides":9,"question":"Practice: What is 5 <img src=./images/nonagon_symbol.png style=width:14px;height:14px> 5?","response_type":"free","response_choices":[],"correct_response":"1","response":"1","explain":false,"explanation":"","explanation_history":[],"orientation_history":[[0],[0,0,0,6.180605454761292,6.1006254540486795,6.022582915432245,5.857980288199968,5.739707712466543,5.64341552435296,5.390508288133735,5.225994985107438,4.974508821650162,4.759972083661673,4.68858395419962,4.483892341092828,4.277035705232388,4.168556524082567,4.072619197558064,4.01536760313209,3.9269908169872414,3.8825756017403306,3.793764065346863,3.741045138431531,3.725863931170702,3.6687385971762025,3.6389353699366156,3.589112628746963,3.574000429160331,3.564446579722734,3.5346506727717255,3.5261973684120065,3.5261973684120065,3.5261973684120065,3.5261973684120065,3.5261973684120065,3.5261973684120065,3.497812308985943,3.4940502764164973,3.4802907377928403,3.470145824141244,3.470145824141244,3.470145824141244,3.470145824141244,3.470145824141244,3.470145824141244,3.470145824141244,3.470145824141244,3.45331009983906,3.4500989493217062,3.437033490733513,3.43403564104183,3.43403564104183,3.43403564104183,3.43403564104183,3.43403564104183,3.43403564104183,3.43403564104183,3.43403564104183,3.43403564104183,3.43403564104183,3.43403564104183,3.43403564104183,3.43403564104183,3.43403564104183,3.4310963255511817,3.4310963255511817,3.4310963255511817,3.44083896919227,3.4505233975135345,3.466600525456441,3.493037447593345,3.5027964090834747,3.55339995895151,3.586011863490892,3.6100479178572904,3.639207775269022,3.6593745122024797,3.720307598502992,3.773730615118787,3.8289455396934025,3.877032421265299,3.893669821108994,3.9187265423275903,3.9603118128654886,3.986748643375639,4.02073235853149,4.047099552554155,4.064056991297429,4.073754013230705,4.073754013230705,4.073754013230705,4.073754013230705,4.073754013230705,4.073754013230705,4.080935481445591,4.100662015328815,4.124386376837123,4.134487043422444,4.134487043422444,4.134487043422444,4.134487043422444,4.134487043422444,4.134487043422444,4.134487043422444,4.134487043422444,4.134487043422444,4.134487043422444,4.134487043422444,4.134487043422444,4.134487043422444,4.134487043422444,4.155093445267184,4.237692097304515,4.299260148106288,4.350659738864758,4.557788434953489,4.69956916991179,4.799666693334151,4.9074092477896105,5.008315018848898,5.026893284801435,5.044815285768786,5.065930940135808,5.076367936894334,5.076367936894334,5.086722596392273,5.086722596392273,5.086722596392273,5.086722596392273,5.086722596392273,5.086722596392273,5.086722596392273,5.086722596392273,5.086722596392273,5.086722596392273,5.086722596392273,5.086722596392273,5.086722596392273,5.086722596392273,5.086722596392273,5.086722596392273,5.086722596392273,5.086722596392273,5.086722596392273,5.086722596392273,5.086722596392273,5.086722596392273,5.086722596392273,5.141736321745856,5.1958359819518884,5.230170838997376,5.297266594104723,5.346941782161198,5.395780225872025,5.42703927602853,5.442724748408468,5.4590468461186585,5.4590468461186585,5.4590468461186585,5.4590468461186585,5.4590468461186585,5.4590468461186585,5.4590468461186585,5.4590468461186585,5.4590468461186585,5.4590468461186585,5.4590468461186585,5.4590468461186585,5.4590468461186585,5.4590468461186585,5.4590468461186585,5.4590468461186585,5.4590468461186585,5.4590468461186585,5.4590468461186585,5.4590468461186585,5.4590468461186585,5.4590468461186585,5.482163415161661,5.529522517310596,5.570827709085258,5.646677091391635,5.708296705909493,5.7655361978028115,5.81953769817878,5.8575628388399545,5.87990382546075,5.907224353308281,5.9186593047726515,5.969247093843045,5.984686375593407,6.0115857154195105,6.038206644052722,6.041113612608467,6.076311358199844,6.102258846425465,6.102258846425465,6.102258846425465,6.11608350724848,6.12964152464003,6.142935697542981,6.167426089458775,6.180103698656886,6.191489150919724,6.214328817878542,6.249107595592578,6.271949824921624,0.011235482257962559,0.022468128585825475,0.03369510734601633,0.07849010263733192,0.11189026617167608,0.14504169832660563,0.16697016902492878,0.22104706267501872,0.2633976325455005,0.32511754504015,0.3785455953114931,0.46834241018830114,0.5530314441506405,0.628796286415433,0.6907909282777186,0.7130608328588532,0.7283173809911836,0.73508095893597,0.73508095893597,0.73508095893597,0.73508095893597,0.73508095893597,0.73508095893597,0.73508095893597,0.73508095893597,0.73508095893597,0.73508095893597,0.73508095893597,0.73508095893597,0.6981317007977318]],"response_history":["1"],"rt":10783,"trial_type":"polygo n-arrow- question","trial_index":0,"trial_index_global":46,"time_elapsed":639151,"internal_chunk_id":"0-0.12-0"},{"nsides":9,"feedback":"Correct! 5 <img src=./images/nonagon_symbol.png style=width:14px;height:14px> 5 = 1 because 5 steps clockwise on the nonagon from 5 brings us to 1. Equivalently, 5 + 5 = 10 and 10 - 9 = 1.","orientation_history":[0],"rt":2067,"trial_type":"polygon-arrow-feedback","trial_index":0,"trial_index_global":47,"time_elapsed":641219,"internal_chunk_id":"0-0.12-0"},{"nsides":9,"question":"What is 3 <img src=./images/nonagon_symbol.png style=width:14px;height:14px> 3?","response_type":"free","response_choices":[],"correct_response":"6","response":"6","explain":false,"explanation":"","explanation_history":[],"orientation_history":[[0]],"response_history":["6"],"rt":4841,"trial_type":"polygon-arrow-question","trial_index":0,"trial_index_global":48,"time_elapsed":646061,"internal_chunk_id":"0-0.12-0"},{"nsides":9,"question":"What is 7 <img src=. /images/ nonagon_symbol.png style=width:14px;height:14px> 4?","response_type":"free","response_choices":[],"correct_response":"2","response":"2","explain":false,"explanation":"","explanation_history":[],"orientation_history":[[0]],"response_history":["2"],"rt":6677,"trial_type":"polygon-arrow-question","trial_index":0,"trial_index_global":49,"time_elapsed":652739,"internal_chunk_id":"0-0.12-0"},{"nsides":9,"question":"What is 1 <img src=./images/nonagon_symbol.png style=width:14px;height:14px> 8?","response_type":"free","response_choices":[],"correct_response":"0","response":"0","explain":false,"explanation":"","explanation_history":[],"orientation_history":[[0]],"response_history":["0"],"rt":3095,"trial_type":"polygon-arrow-question","trial_index":0,"trial_index_global":50,"time_elapsed":655835,"internal_chunk_id":"0-0.12-0"},{"nsides":9,"question":"What is 5 <img src=./images/nonagon_symbol.png style=width:14px;height:14px> 4?","response_type":"free","response_choices":[],"correct_response":"0","response":"0","explain":false,"explanation":"","explanation_history":[],"orientation_history":[[0]],"response_history":["0"],"rt":2693,"trial_type":"polygon-arrow-question","trial_index":0,"trial_index_global":51,"time_elapsed":658529,"internal_chunk_id":"0-0.12-0"},{"nsides":9,"question":"What is 6 <img src=./images/nonagon_symbol.png style=width:14px;height:14px> 6?","response_type":"free","response_choices":[],"correct_response":"3","response":"3","explain":false,"explanation":"","explanation_history":[],"orientation_history":[[0]],"response_history":["3"],"rt":3333,"trial_type":"polygon-arrow-question","trial_index":0,"trial_index_global":52,"time_elapsed":661863,"internal_chunk_id":"0-0.12-0"},{"nsides":9,"instructions":"On the following question, and several others later in the HIT, we will ask you to explain how you got your answer. On these questions, you will be given one box for your answer to the question, and a second for your  explana tion. Please explain your thought process in as much detail as possible (at least one sentence, and more if you can).","orientation_history":[0],"rt":15589,"trial_type":"polygon-arrow-instructions","trial_index":0,"trial_index_global":53,"time_elapsed":677453,"internal_chunk_id":"0-0.12-0"},{"nsides":9,"question":"What is 4 <img src=./images/nonagon_symbol.png style=width:14px;height:14px> 1? Please explain in words how you got your answer.","response_type":"free","response_choices":[],"correct_response":"5","response":"5","explain":true,"explanation":"I put the arrow on the number 4 and moved it 1 time to get 5.","explanation_history":["I put the arrow on the number 4 and mobe","I put the arrow on the number 4 and mob","I put the arrow on the number 4 and moved it 1 time to get 5."],"orientation_history":[[0]],"response_history":["5"],"rt":58147,"trial_type":"polygon-arrow-question","trial_index":0,"trial_index_global":54,"time_elapsed":735601,"internal_chunk_id":"0 -0.12-0"},{"nsides":9,"question":"What is 8 <img src=./images/nonagon_symbol.png style=width:14px;height:14px> 4? Please explain in words how you got your answer.","response_type":"free","response_choices":[],"correct_response":"3","response":"3","explain":true,"explanation":"I put the arrow on the 8 and moved it 4 times and ended on 3.","explanation_history":["I put the arrow on the 8 and mobe","I put the arrow on the 8 and mob","I put the arrow on the 8 and moved it 4 times and enden","I put the arrow on the 8 and moved it 4 times and ended on th","I put the arrow on the 8 and moved it 4 times and ended on t","I put the arrow on the 8 and moved it 4 times and ended on 3."],"orientation_history":[[0],[0,0,0,0,6.240336906753429,6.167883310664841,6.11069619995261,5.982158499937034,5.884450821498609,5.809044362366244,5.750061210564581,5.738696135875541,5.716399947729348,5.705468746661815,5.705468746661815,5.705468746661815,5.705468746661815,5.705468746661815,5.705468746661815,5.705468746661815,5.705468746661815,5.705468746661815,5.705468746661815,5.705468746661815,5.705468746661815,5.705468746661815,5.705468746661815,5.705468746661815,5.705468746661815,5.705468746661815,5.705468746661815,5.705468746661815,5.705468746661815,5.705468746661815,5.677182033196312,5.656202755862289,5.645932342013415,5.645932342013415,5.645932342013415,5.645932342013415,5.645932342013415,5.645932342013415,5.645932342013415,5.645932342013415,5.645932342013415,5.645932342013415,5.645932342013415,5.645932342013415,5.645932342013415,5.645932342013415,5.645932342013415,5.645932342013415,5.645932342013415,5.645932342013415,5.645932342013415,5.645932342013415,5.687892431817319,5.755274927660697,5.894263678816033,5.950110766138714,5.976321990335714,6.01960943362017,6.075990642826877,6.14396442816693,6.157704021546463,6.157704021546463,6.1714804174523845,6.1714804174523845,6.212979070242238,6.226851012747405,6.226851012747405,6.226851012747405,6.226851012747405,6.226851012747405,6.226851012747405,6.226851012747405,6.226851012747405,6.226851012747405,6.226851012747405,6.226851012747405,6.226851012747405,6.226851012747405,6.226851012747405,6.226851012747405,6.226851012747405,6.226851012747405,6.226851012747405,-0.014675661907793014,0.06835396995560306,0.21641500528810398,0.2806352544883144,0.3815636827027309,0.4350839511620461,0.4823859186578503,0.4823859186578503,0.4823859186578503,0.4823859186578503,0.5187207231486768,0.5483692871787005,0.5668462176399724,0.5778192285372026,0.5778192285372026,0.5778192285372026,0.5778192285372026,0.6175552460218418,0.6255190665756002,0.6359317412559968,0.6359317412559968,0.6359317412559968,0.6359317412559968,0.6359317412559968,0.6359317412559968,0.6359317412559968,0.6359317412559968,0.6359317412559968,0.6562575881038403,0.6661746183579431,0.6927023905572567,0.73865469048571,0.73865469048571,0.8113259617994194,0.8474943927594334,0.9143960751443472,0.954230065408569,0.9836333536125741,1.0665374501011444,1.1212420947038908,1.2204821145594944,1.2467918318124165,1.277189809058682,1.2939427596530684,1.3072204532354794,1.3395739998086604,1.3527525110749892,1.36833147981825,1.383577406769735,1.383577406769735,1.383577406769735,1.383577406769735,1.383577406769735,1.383577406769735,1.3966042883853138,1.3966042883853138,1.3966042883853138,1.3966042883853138,1.3966042883853138,1.3966042883853138,1.3966042883853138,1.3966042883853138,1.3966042883853138,1.3966042883853138,1.3966042883853138,1.3966042883853138,1.3966042883853138,1.3966042883853138,1.3966042883853138,1.3966042883853138,1.3966042883853138,1.3966042883853138,1.3966042883853138,1.3966042883853138,1.3966042883853138,1.3966042883853138,1.3966042883853138,1.3966042883853138,1.3966042883853138,1.3966042883853138,1.3966042883853138,1.3966042883853138,1.3966042883853138,1.3966042883853138,1.3966042883853138,1.3966042883853138,1.3966042883853138,1.3966042883853138,1.3966042883853138,1.3966042883853138,1.3966042883853138,1.3966042883853138,1.3966042883853138,1.3966042883853138,1.3966042883853138,1.3966042883853138,1.3966042883853138,1.3966042883853138,1.3966042883853138,1.3966042883853138,1.3966042883853138,1.3966042883853138,1.3966042883853138,1.3966042883853138,1.3966042883853138,1.3966042883853138,1.3966042883853138,1.3966042883853138,1.3966042883853138,1.3966042883853138,1.3966042883853138,1.3966042883853138,1.3966042883853138,1.3966042883853138,1.3966042883853138,1.3966042883853138,1.3966042883853138,1.3966042883853138,1.3966042883853138,1.3966042883853138,1.3966042883853138,1.3966042883853138,1.3966042883853138,1.3966042883853138,1.3966042883853138,1.3966042883853138,1.3966042883853138,1.3966042883853138,1.3966042883853138,1.3966042883853138,1.3966042883853138,1.3966042883853138,1.3966042883853138,1.3966042883853138,1.3966042883853138,1.3966042883853138,1.3966042883853138,1.3966042883853138,1.3966042883853138,1.3966042883853138,1.3966042883853138,1.3966042883853138,1.3966042883853138,1.3966042883853138,1.3966042883853138,1.3966042883853138,1.3966042883853138,1.3966042883853138,1.4359678060650578,1.4624026832438992,1.4889498173964442,1.555565212250282,1.595515520515829,1.661661594974475,1.7497288953913392,1.8361020039886042,1.8718570763768794,1.958044457980765,2.0006719917178706,2.016084005450897,2.0361740378757176,2.055838673678885,2.065510991088112,2.065510991088112,2.0750765565755254,2.0750765565755254,2.0750765565755254,2.0845354061717414,2.0845354061717414,2.093887651484683,2.093887651484683,2.093887651484683,2.093887651484683,2.093887651484683,2.093887651484683,2.093887651484683,2.093887651484683,2.093887651484683,2.093887651484683,2.093887651484683,2.093887651484683,2.093887651484683,2.093887651484683,2.093887651484683,2.0943951023931953]],"response_history":["3"],"rt":49383,"trial_type":"polygon-arrow-question","trial_index":0,"trial_index_global":55,"time_elapsed":784985,"internal_chunk_id":"0-0.12-0"},{"nsides":9,"question":"What is the identity under <img src=./images/nonagon_symbol.png style=width:14 px;heigh t:14px>? Please explain in words how you got your answer.","response_type":"free","response_choices":[],"correct_response":"0","response":"0","explain":true,"explanation":"The number added by zero makes the same number so its an identical number.","explanation_history":["The nm","The number add ","The number addde","The number addd","The number added to ","The number added to","The number added t","The number added g","The number added by zero makes the same nj","The number added by zero makes the same number so its an a","The number added by zero makes the same number so its an identical number."],"orientation_history":[[0]],"response_history":["0"],"rt":67702,"trial_type":"polygon-arrow-question","trial_index":0,"trial_index_global":56,"time_elapsed":852687,"internal_chunk_id":"0-0.12-0"},{"nsides":9,"question":"What is the inverse of 5 under <img src=./images/nonagon_symbol.png style=width:14px;height:14px>?","response_type":"free","response_choices":[],"correct_response":"4","response":"4","explain":false,"explanation":"","explanation_history":[],"orientation_history":[[0]],"response_history":["4"],"rt":13104,"trial_type":"polygon-arrow-question","trial_index":0,"trial_index_global":57,"time_elapsed":865791,"internal_chunk_id":"0-0.12-0"},{"nsides":9,"question":"What is the inverse of 2 under <img src=./images/nonagon_symbol.png style=width:14px;height:14px>?","response_type":"free","response_choices":[],"correct_response":"7","response":"7","explain":false,"explanation":"","explanation_history":[],"orientation_history":[[0]],"response_history":["7"],"rt":3166,"trial_type":"polygon-arrow-question","trial_index":0,"trial_index_global":58,"time_elapsed":868957,"internal_chunk_id":"0-0.12-0"},{"nsides":9,"question":"What is the inverse of 0 under <img src=./images/nonagon_symbol.png style=width:14px;height:14px>?","response_type":"free","response_choices":[],"correct_response":"0","response":"9","explain":false,"explanation":"","explanation_history":[],"orientation_history":[[0]],"response_history":["0","9"],"rt":14687,"trial_type":"polygon-arrow-question","trial_index":0,"trial_index_global":59,"time_elapsed":883644,"internal_chunk_id":"0-0.12-0"},{"nsides":9,"question":"What is the inverse of 3 under <img src=./images/nonagon_symbol.png style=width:14px;height:14px>? Please explain in words how you got your answer.","response_type":"free","response_choices":[],"correct_response":"6","response":"6","explain":true,"explanation":"Adding 6 to 3 gets you 0 which is the definition of an inverse.","explanation_history":["add","ad","a","Adding 6 to 3 gets you 0 which is the definition of an inber","Adding 6 to 3 gets you 0 which is the definition of an inbe","Adding 6 to 3 gets you 0 which is the definition of an inb","Adding 6 to 3 gets you 0 which is the definition of an inverse."],"orientation_history":[[0]],"response_history":["6"],"rt":79842,"trial_type":"polygon-arrow-question","trial_index":0,"trial_index_global":60,"time_elapsed":963486,"internal_chunk_id":"0-0.12-0"},{"nsides":9,"question":"Is 2 a generator under <img src=./images/nonagon_symbol.png style=width:14px;height:14px>? Please explain in words how you got your answer.","response_type":"multi","response_choices":["Yes","No"],"correct_response":"Yes","response":"Yes","explain":true,"explanation":"Because you can add up the two's and make every number 0 through 8.","explanation_history":["Because you v","Because you can add up the two's an d","Because you can add up the two's an ","Because you can add up the two's andn","Because you can add up the two's and make every number 0 through 8."],"orientation_history":[[0],[0,0,0,0,0,0,0,0,0,-0.016614013123445126,-6.165455642456887,-6.050495669963031,-5.820311192932346,-5.688952002582056,-5.504008215441994,-5.441056976634759,-5.391191922542913,-5.331075020399757,-5.292806103801315,-5.268656210403799,-5.268656210403799,-5.268656210403799,-5.268656210403799,-5.268656210403799,-5.268656210403799,-5.268656210403799,-5.25409413301106,-5.215049083610645,-5.152113556917138,-5.113061382426769,-5.0741042447851665,-4.975383712065609,-4.93797732182732,-4.917502367803152,-4.901147368222903,-4.901147368222903,-4.901147368222903,-4.901147368222903,-4.901147368222903,-4.864978015755931,-4.829543554465729,-4.813205139152905,-4.794907934817671,-4.778698884150071,-4.745080446281785,-4.745080446281785,-4.71238898038469,-4.71238898038469,-4.696277335476708,-4.680653606856231,-4.680653606856231,-4.680653606856231,-4.680653606856231,-4.680653606856231,-4.680653606856231,-4.680653606856231,-4.680653606856231,-4.680653606856231,-4.680653606856231,1.3962634015954636],[1.3962634015954636,1.3962634015954636,1.3962634015954636,1.3962634015954636,1.3962634015954636,1.3962634015954636,1.3962634015954636,1.3962634015954636,1.3962634015954636,1.3962634015954636,1.3962634015954636,1.3962634015954636,1.3962634015954636,1.4114954083804596,1.4420813013611005,1.4727827311733972,1.4881588554632712,1.5189256590244615,1.5496633732583776,1.5803141485136445,1.5955891061072731,1.6411289937142162,1.6711846950750822,1.6711846950750822,1.7303411052977522,1.7448977478192702,1.7593508218592382,1.829901073950629,1.8840486343562313,1.8972404812038905,1.9231931193789702,1.9610171051398917,1.9854805092014927,1.9974836261634474,2.0210299982179754,2.0210299982179754,2.0210299982179754,2.0210299982179754,2.0210299982179754,2.0210299982179754,2.0210299982179754,2.0210299982179754,2.0210299982179754,2.0210299982179754,2.0210299982179754,2.0210299982179754,2.0210299982179754,2.0210299982179754,2.0210299982179754,2.0210299982179754,2.073298710726845,2.102453518974098,2.1521847089104105,2.1998908380068167,2.227072574776935,2.322825750545432,2.4050820475213053,2.4767821310535982,2.533919083768179,2.5956167400429973,2.6549969364887334,2.729180934196095,2.7888757237720183,2.8143984438502354,2.817014869067674,2.817014869067674,2.817014869067674,2.817014869067674,2.817014869067674,2.817014869067674,2.841524770932029,2.8438167449953946,2.8438167449953946,2.8438167449953946,2.8438167449953946,2.8438167449953946,2.8438167449953946,2.8438167449953946,2.8438167449953946,2.8438167449953946,2.8438167449953946,2.8438167449953946,2.8438167449953946,2.8438167449953946,2.8438167449953946,2.8438167449953946,2.8438167449953946,2.8438167449953946,2.8438167449953946,2.8438167449953946,2.8438167449953946,2.8438167449953946,2.8438167449953946,2.8438167449953946,2.8438167449953946,2.8438167449953946,2.8438167449953946,2.8438167449953946,2.8438167449953946,2.8438167449953946,2.8438167449953946,2.8438167449953946,2.8438167449953946,2.8438167449953946,2.8438167449953946,2.8438167449953946,2.8438167449953946,2.8438167449953946,2.8438167449953946,2.8438167449953946,2.8438167449953946,2.8438167449953946,2.8438167449953946,2.8438167449953946,2.8438167449953946,2.8438167449953946,2.8438167449953946,2.8438167449953946,2.8438167449953946,2.90257843271056,3.013190421389462,3.1248007580556187,3.1937675100571017,3.2232285316482603,3.279338560042337,3.348787170939601,3.3815973993699053,3.416143756019652,3.4299744683395232,3.463028084544997,3.483775793564906,3.5304105803883736,3.552966345806939,3.5565025951075784,3.571062360914384,3.578257448908168,3.578257448908168,3.578257448908168,3.578257448908168,3.578257448908168,3.578257448908168,3.578257448908168,3.578257448908168,3.578257448908168,3.578257448908168,3.578257448908168,3.578257448908168,3.578257448908168,3.578257448908168,3.5853958959368093,3.5995026797974443,3.641701916886281,3.653146044448044,3.695583094568824,3.7422676425245855,3.761290588223578,3.791519780537855,3.809778351714269,3.834741953817291,3.8597367474362114,3.8850477965790597,3.942350831244857,3.961943465543465,3.9817089029662327,4.014337292867412,4.026990684898473,4.0395902472286895,4.0395902472286895,4.0395902472286895,4.0395902472286895,4.0395902472286895,4.0395902472286895,4.0395902472286895,4.0395902472286895,4.0395902472286895,4.0395902472286895,4.0395902472286895,4.0395902472286895,4.0395902472286895,4.062221321877926,4.067232973871414,4.067232973871414,4.0748969357796145,4.0748969357796145,4.0748969357796145,4.0748969357796145,4.0748969357796145,4.0748969357796145,4.0748969357796145,4.0748969357796145,4.0748969357796145,4.0748969357796145,4.0748969357796145,4.0748969357796145,4.0748969357796145,4.0748969357796145,4.0748969357796145,4.0748969357796145,4.0748969357796145,4.0748969357796145,4.0748969357796145,4.0748969357796145,4.0748969357796145,4.0748969357796145,4.0748969357796145,4.0748969357796145,4.0748969357796145,4.0748969357796145,4.0748969357796145,4.0748969357796145,4.0748969357796145,4.09045330316434,4.160213915808793,4.26096554644106,4.373656428434746,4.434041577610913,4.525705984815321,4.5759386322150775,4.61544067122675,4.674538199037665,4.694115311757386,4.722649192464451,4.761116895313984,4.769489905380421,4.788377859645347,4.788377859645347,4.788377859645347,4.788377859645347,4.788377859645347,4.788377859645347,4.788377859645347,4.788377859645347,4.788377859645347,4.788377859645347,4.788377859645347,4.788377859645347,4.788377859645347,4.788377859645347,4.788377859645347,4.788377859645347,4.788377859645347,4.788377859645347,4.788377859645347,4.846261796650198,4.894721836270644,4.999514829957097,5.100414514322173,5.223036847795905,5.255860875222869,5.283220910102519,5.308560918701087,5.3352807968123415,5.379295906827689,5.417713263758207,5.424081550838139,5.469474417328147,5.469474417328147,5.469474417328147,5.469474417328147,5.469474417328147,5.469474417328147,5.469474417328147,5.488532467439061,5.495377101784315,5.495377101784315,5.495377101784315,5.495377101784315,5.495377101784315,5.495377101784315,5.495377101784315,5.495377101784315,5.495377101784315,5.495377101784315,5.495377101784315,5.495377101784315,5.495377101784315,5.495377101784315,5.495377101784315,5.495377101784315,5.495377101784315,5.495377101784315,5.495377101784315,5.495377101784315,5.495377101784315,5.495377101784315,5.495377101784315,5.495377101784315,5.495377101784315,5.495377101784315,5.495377101784315,5.495377101784315,5.495377101784315,5.495377101784315,5.495377101784315,5.495377101784315,5.495377101784315,5.495377101784315,5.502305007166928,5.596769890498093,5.717363331990338,5.786901827583511,5.839021967303735,5.860554219488206,5.903298971549109,5.954712703014021,6.001459538880317,6.069918979917281,6.098822493061692,6.148724911846191,6.196702838528849,-0.05782038714502935,-0.04838838352935948,-0.04838838352935948,-0.04838838352935948,-0.04838838352935948,-0.04838838352935948,-0.04838838352935948,-0.04838838352935948,-0.04838838352935948,-0.04838838352935948,-0.04838838352935948,-0.04838838352935948,-0.04838838352935948,-0.04838838352935948,-0.04838838352935948,-0.04838838352935948,-0.04838838352935948,-0.029536117084166147,0.04547354203934728,0.11923283211618663,0.2838997730496171,0.3472528050337558,0.43356649041345285,0.4980823912128529,0.5308237598206771,0.5561767418603826,0.5615422168644028,0.5762470392422542,0.588996803718398,0.6017889286395433,0.6017889286395433,0.6017889286395433,0.6017889286395433,0.6017889286395433,0.6216703186638312,0.6344689591790219,0.6344689591790219,0.6344689591790219,0.6344689591790219,0.6344689591790219,0.6344689591790219,0.6344689591790219,0.6344689591790219,0.6344689591790219,0.6344689591790219,0.6344689591790219,0.6344689591790219,0.6344689591790219,0.6344689591790219,0.6344689591790219,0.6344689591790219,0.6344689591790219,0.6344689591790219,0.6344689591790219,0.6344689591790219,0.6344689591790219,0.6344689591790219,0.6344689591790219,0.6344689591790219,0.6344689591790219,0.6344689591790219,0.6344689591790219,0.6344689591790219,0.6344689591790219,0.6344689591790219,0.6344689591790219,0.6344689591790219,0.6344689591790219,0.6344689591790219,0.654129116012074,0.6858972114111641,0.7313012293191739,0.8184771980670383,0.8943787915830939,1.0312368559133132,1.0999083319306007,1.2000823458040444,1.25158696312523,1.281761288221267,1.3117541152571612,1.3117541152571612,1.3117541152571612,1.3117541152571612,1.3117541152571612,1.3117541152571612,1.3117541152571612,1.3117541152571612,1.3117541152571612,1.3117541152571612,1.3117541152571612,1.3117541152571612,1.3117541152571612,1.3117541152571612,1.3117541152571612,1.3117541152571612,1.3117541152571612,1.3117541152571612,1.3117541152571612,1.3616452026397023,1.3897502501001584,1.5220586593118755,1.6324530289278578,1.6955902744845965,1.7572163533825091,1.7744891075822868,1.8336028696533004,1.8663655902309626,1.8904179749748944,1.9217665868230955,1.9217665868230955,1.9371237411956284,1.9483241802230016,1.9483241802230016,1.9483241802230016,1.9483241802230016,1.9483241802230016,1.9483241802230016,1.9483241802230016,1.9483241802230016,1.9483241802230016,1.9483241802230016,1.9483241802230016,1.9483241802230016,1.9483241802230016,1.9483241802230016,1.9483241802230016,1.9483241802230016,1.9483241802230016,1.955912148906277,1.9709211922113312,1.9895741865839625,1.9895741865839625,1.9969208800213887,2.008211616616566,2.022688371490389,2.022688371490389,2.022688371490389,2.022688371490389,2.022688371490389,2.022688371490389,2.022688371490389,2.0340047608321683,2.041128903902613,2.048193043968884,2.059519200976272,2.0892565352662134,2.147043366037151,2.241357317364331,2.294928373025228,2.403586982353967,2.4839606880462357,2.56560875972321,2.6484089275048213,2.689181077675289,2.7107276805121314,2.721348196211853,2.7447141766180208,2.747379743403049,2.747379743403049,2.747379743403049,2.747379743403049,2.747379743403049,2.747379743403049,2.747379743403049,2.747379743403049,2.747379743403049,2.747379743403049,2.747379743403049,2.747379743403049,2.747379743403049,2.747379743403049,2.747379743403049,2.747379743403049,2.747379743403049,2.747379743403049,2.747379743403049,2.747379743403049,2.747379743403049,2.747379743403049,2.755198989766476,2.8592315109021937,2.968181782526127,3.066208681858819,3.2838181478178585,3.5027443799739606,3.5841073090540805,3.6308117509206026,3.658698216452451,3.658698216452451,3.658698216452451,3.658698216452451,3.658698216452451,3.658698216452451,3.658698216452451,3.658698216452451,3.658698216452451,3.658698216452451,3.658698216452451,3.658698216452451,3.658698216452451,3.658698216452451,3.658698216452451,3.658698216452451,3.658698216452451,3.658698216452451,3.658698216452451,3.658698216452451,3.658698216452451,3.658698216452451,3.658698216452451,3.658698216452451,3.658698216452451,3.658698216452451,3.658698216452451,3.658698216452451,3.658698216452451,3.658698216452451,3.658698216452451,3.658698216452451,3.6385361614012606,3.6181710403408855,3.612474983253451,3.5827324244941847,3.546967987431592,3.543938503694161,3.5290578588597326,3.514181166854499,3.514181166854499,3.514181166854499,3.514181166854499,3.514181166854499,3.514181166854499,3.514181166854499,3.514181166854499,3.514181166854499,3.5409447642889287,3.5619337099617763,3.5859973174061226,3.626439795899584,3.645265048687972,3.69298293496351,3.69700937279583,3.7414792382971322,3.7708625726231038,3.830042507829302,3.879536140002604,3.8942058484357194,3.937251029067003,3.9618196878488376,3.9714646320125624,3.9714646320125624,3.9714646320125624,3.9714646320125624,3.9714646320125624,3.994831185885566,3.994831185885566,4.0098191581103535,4.0098191581103535,4.0098191581103535,4.0098191581103535,4.0098191581103535,4.0098191581103535,4.0098191581103535,4.0098191581103535,4.0098191581103535,4.0098191581103535,4.0098191581103535,4.0098191581103535,4.0098191581103535,4.0098191581103535,4.0098191581103535,4.0098191581103535,4.0098191581103535,4.0098191581103535,4.015331575413241,4.07049029134142,4.169065580510899,4.289689249091001,4.412040238304455,4.447739350983779,4.555101197627469,4.596562035527527,4.631246914902693,4.652031353222008,4.6727141232334,4.700251445127747,4.713991400134704,4.73455101758125,4.74821651935636,4.755035129881149,4.755035129881149,4.755035129881149,4.755035129881149,4.755035129881149,4.755035129881149,4.755035129881149,4.755035129881149,4.755035129881149,4.755035129881149,4.755035129881149,4.755035129881149,4.755035129881149,4.755035129881149,4.755035129881149,4.755035129881149,4.755035129881149,4.755035129881149,4.755035129881149,4.795710628929882,4.8835670226401895,4.960622499102634,5.030454728508807,5.091738715839469,5.117256893237436,5.133987265161407,5.153445535844487,5.1650610561232275,5.189837040167864,5.203734226177222,5.215717673829449,5.2262172096309865,5.238363947629216,5.238363947629216,5.238363947629216,5.238363947629216,5.238363947629216,5.243553804312197,5.261004862773186,5.282306990210742,5.300056842838859,5.335794906215236,5.3488967321020375,5.362763709831814,5.376041617990376,5.380346939956965,5.394185453212087,5.398869452155494,5.403267105775513,5.403267105775513,5.403267105775513,5.403267105775513,5.403267105775513,5.403267105775513,5.403267105775513,5.403267105775513,5.403267105775513,5.403267105775513,5.403267105775513,5.403267105775513,5.403267105775513,5.403267105775513,5.403267105775513,5.403267105775513,5.403267105775513,5.403267105775513,5.403267105775513,5.403267105775513,5.403267105775513,5.403267105775513,5.403267105775513,5.403267105775513,5.412353259158129,5.4259668959206255,5.444357078353114,5.4627799566663615,5.467553190105038,5.467553190105038,5.467553190105038,5.467553190105038,5.467553190105038,5.467553190105038,5.467553190105038,5.467553