[{"nsides":6,"instructions":"Let's define a new operation <img src=./images/hexagon_symbol.png style=width:14px;height:14px>. This operation will give us a way of combining two of the numbers 0, 1, 2, 3, 4, 5 to get another one of them back. Consider the hexagon at the right, where I've labeled each point with one of the numbers. To perform <img src=./images/hexagon_symbol.png style=width:14px;height:14px>, you can use the interactive diagram on the right, or perform the operation in your mind. Point the arrow at the first number on the hexagon by clicking, then click (or click and drag) to move the arrow the second number of points clockwise around the hexagon. The number the arrow arrives at is your result. (The operation is called <img src=./images/hexagon_symbol.png style=width:14px;height:14px> because it uses the hexagon, which has 6 sides.) <br /><br />For example, 3 <img src=./images/hexagon_symbol.png style=width:14px;height:14px> 5 =  2, becau se 5 steps clockwise from 3 on the hexagon brings us to 2. So 3 <img src=./images/hexagon_symbol.png style=width:14px;height:14px> 5 = 2.<br /><br />Similarly, 1 <img src=./images/hexagon_symbol.png style=width:14px;height:14px> 4 = 5, because 4 steps clockwise from 1 brings us to 5. <br /><br />Click Continue when you're ready to move on.","orientation_history":[0],"rt":35482,"trial_type":"polygon-arrow-instructions","trial_index":0,"trial_index_global":1,"time_elapsed":41714,"internal_chunk_id":"0-0"},{"nsides":6,"instructions":"Do you see how <img src=./images/hexagon_symbol.png style=width:14px;height:14px> works? By labeling the points of the hexagon with the numbers from 0 to 5, we ensure that when we combine two numbers under <img src=./images/hexagon_symbol.png style=width:14px;height:14px>, we only produce numbers between 0 and 5.<br /><br />Click Continue when you are ready to move on.","orientation_history":[0],"rt":4162,"trial_type":"polygon-arrow-instructions","trial_index":0,"trial_index_global":2,"time_elapsed":45877,"internal_chunk_id":"0-0"},{"nsides":6,"question":"Now try one on your own! What is 4 <img src=./images/hexagon_symbol.png style=width:14px;height:14px> 5? <br /><br /> (Remember, to perform <img src=./images/hexagon_symbol.png style=width:14px;height:14px>, you can use the interactive diagram on the right, or perform the operation in your mind. Point the arrow at the first number on the hexagon, then move the arrow the second number of points clockwise around the hexagon. The number the arrow arrives at is your result.)","response_type":"free","response_choices":[],"correct_response":"3","response":"2","explain":false,"explanation":"","explanation_history":[],"orientation_history":[[0],[0,0,-0.0057802824436619105,-0.00999966668666552,-0.01696549828968319,-0.024825598425678663,-0.030650775255266716,-0.06836872772213098,-0.08210233118867727,-0.11983422968440927,-0.14010172439663027,-0.1865798557476328,-0.22718252881265144,-0.24982871328070644,-0.2953637183037401,-0.3248853403664551,-0.483125664817333,-0.6805212246672143,-0.932211196425401,-1.0198138391212588,-1.1441688336680205,-1.2209407249377984,-1.2209407249377984,-1.2209407249377984,-1.2209407249377984,-1.2209407249377984,-1.2209407249377984,-1.2209407249377984,-1.2209407249377984,-1.2209407249377984,-1.2209407249377984,-1.2290706271177427,-1.2685238282147822,-1.310922646140722,-1.3199071303533874,-1.3521273809209546,-1.358229517231842,-1.358229517231842,-1.3610424493344286,-1.3610424493344286,-1.3610424493344286,-1.3610424493344286,-1.3610424493344286,-1.3610424493344286,-1.3610424493344286,-1.3610424493344286,-1.3610424493344286,-1.3610424493344286,-1.3610424493344286,-1.305156647438828,-1.2789401181457514,-1.2472504421907207,-1.2472504421907207,-1.2472504421907207,-1.2209407249377984,-1.1876197290595512,-1.1876197290595512,-1.1614085048625498,-1.1614085048625498,-1.1614085048625498,-1.1614085048625498,-1.1614085048625498,-1.1614085048625498,-1.1614085048625498,-1.1614085048625498,-1.1614085048625498,-1.1614085048625498,-1.1614085048625498,-1.1614085048625498,-1.1614085048625498,-1.1614085048625498,-1.1614085048625498,-1.1614085048625498,-1.1614085048625498,-1.1614085048625498,-1.1614085048625498,-1.1614085048625498,-1.1614085048625498,-1.1614085048625498,-1.1614085048625498,-1.1614085048625498,-1.1614085048625498,-1.1614085048625498,-1.1614085048625498,-1.1614085048625498,-1.1614085048625498,-1.1614085048625498,-1.1614085048625498,-1.1614085048625498,-1.1614085048625498,-1.1614085048625498,-1.1614085048625498,-1.1614085048625498,-1.1614085048625498,-1.1614085048625498,-1.1614085048625498,-1.1614085048625498,-1.1614085048625498,-1.1614085048625498,-1.1614085048625498,-1.1614085048625498,-1.1614085048625498,-1.1614085048625498,-1.1356220332354088,-1.1007179382764898,-1.064690589059814,-1.064690589059814,-1.0275828282067048,-1.0275828282067048,-0.9894519685909557,-0.9894519685909557,-0.9894519685909557,-0.9503703806056834,-0.9503703806056834,-0.9503703806056834,-0.9104256527991197,-0.9104256527991197,-0.9104256527991197,-0.8697202467671827,-0.8697202467671827,-0.8283705899259699,-0.8283705899259699,-0.810223761823126,-0.810223761823126,-0.810223761823126,-0.810223761823126,-0.810223761823126,-0.810223761823126,-0.810223761823126,-0.810223761823126,-0.810223761823126,-0.810223761823126,-0.810223761823126,-0.810223761823126,-0.810223761823126,-0.810223761823126,-0.810223761823126,-0.810223761823126,-0.810223761823126,-0.810223761823126,-0.810223761823126,-0.810223761823126,-0.810223761823126,-0.810223761823126,-0.810223761823126,-0.810223761823126,-0.810223761823126,-0.810223761823126,-0.810223761823126,-0.810223761823126,-0.810223761823126,-0.810223761823126,-0.810223761823126,-0.810223761823126,-0.810223761823126,-0.810223761823126,-0.810223761823126,-0.810223761823126,-0.810223761823126,-0.810223761823126,-0.810223761823126,-0.810223761823126,-0.810223761823126,-0.810223761823126,-0.810223761823126,-0.810223761823126,-0.810223761823126,-0.810223761823126,-0.7470893884430385,-0.7470893884430385,-0.7470893884430385,-0.7470893884430385,-0.7470893884430385,-0.7470893884430385,-0.7470893884430385,-0.7470893884430385,-0.7470893884430385,-0.7470893884430385,-0.7470893884430385,-0.7259445040887913,-0.7037728474776772,-0.7037728474776772,-0.7037728474776772,-0.6805212246672143,-0.6805212246672143,-0.6561358154944958,-0.6561358154944958,-0.6305628289452718,-0.6305628289452718,-0.6305628289452718,-0.6305628289452718,-0.6305628289452718,-0.5756442859369804,-0.5698640034933184,-0.5386241700630503,-0.5386241700630503,-0.5058490256589749,-0.3979662721976265,-0.3796009903067894,-0.3374972842465116,-0.266014350082429,-0.266014350082429,-0.21687361566640817,-0.16606991160818652,-0.11379200714370796,-0.11379200714370796,-0.11379200714370796,-0.11379200714370796,-0.11379200714370796,-0.06979526027800631,-0.012231805836630194,-6.178308368449352,-6.1195525457336295,-6.003636169441113,-5.9472177012534555,-5.787701324751666,-5.563645416527187,-5.4553290150478615,-5.337411699806188,-5.28803326632167,-5.244020257442407,-5.223808979050527,-5.169433603911271,-5.169433603911271,-5.137727814431086,-5.137727814431086,-5.109116095843576,-5.071159650655262,-5.0589651332070105,-5.0473546244701915,-5.012403827939539,-5.0023031613542175,-4.969241283174388,-4.921743940738794,-4.892242480177168,-4.869631882919928,-4.863663424220059,-4.836008680946318,-4.813835935684173,-4.809274385974743,-4.809274385974743,-4.787365541446934,-4.787365541446934,-4.787365541446934,-4.76528077925041,-4.761830817580575,-4.761830817580575,-4.718169262828352,-4.718169262828352,-4.696167923521893,-4.696167923521893,-4.674080205430279,-4.674080205430279,-4.650962937045986,-4.650962937045986,-4.650962937045986,-4.650962937045986,-4.650962937045986,-4.650962937045986,-4.650962937045986,-4.650962937045986,-4.650962937045986,-4.650962937045986,-4.650962937045986,-4.650962937045986,-4.650962937045986,-4.650962937045986,-4.650962937045986,-4.650962937045986,-4.650962937045986,-4.650962937045986,-4.650962937045986,-4.629247748496248,-4.629247748496248,-4.607512041654456,-4.607512041654456,-4.607512041654456,-4.607512041654456,-4.585776334812663,-4.585776334812663,-4.585776334812663,-4.585776334812663,-4.585776334812663,-4.585776334812663,-4.585776334812663,-4.585776334812663,-4.564061146262925,-4.54238687832007,-4.52077370297847,-4.52077370297847,-4.477809504498543,-4.456496698733096,-4.435321227131517,-4.41430055780665,-4.393451358090634,-4.346909649907115,-4.326279839736161,-4.305892995388216,-4.285761487257814,-4.265896551006648,-4.238816138996405,-4.21919332348199,-4.1998805361968286,-4.1998805361968286,-4.172158766502154,-4.15320995496114,-4.124998746631979,-4.106498654850866,-4.07792244287238,-4.042362601647696,-3.9967860772652473,-3.9681261359682827,-3.923217249993306,-3.879194660663272,-3.7935502204182474,-3.6523356042886688,-3.5183793924144204,-3.3012040974087915,-3.0991345248555167,-2.9742969048636017,-2.696333776217652,-2.5978564158960524,-2.511131921307949,-2.4487131113119918,-2.3477913266446975,-2.313736361458068,-2.222753893623351,-2.1507406340072635,-2.0606786455480153,-2.0308237900954396,-2.0083509580546126,-2.0023548456693936,-2.0023548456693936,-2.0023548456693936,-2.0023548456693936,-2.0023548456693936,-2.0023548456693936,-2.0023548456693936,-2.0023548456693936,-2.0023548456693936,-2.0023548456693936,-2.0023548456693936,-2.0023548456693936,-2.0023548456693936,-2.0023548456693936,-2.0023548456693936,-2.0023548456693936,-2.0023548456693936,-2.0023548456693936,-2.0023548456693936,-2.0023548456693936,-2.0023548456693936,-2.0023548456693936,-2.0023548456693936,4.1887902047863905],[4.2487413713838835,4.2487413713838835,4.2487413713838835,4.2487413713838835,4.239262982254021,4.239262982254021,4.239262982254021,4.239262982254021,4.239262982254021,4.239262982254021,4.239262982254021,4.239262982254021,4.1887902047863905],[4.239262982254021,4.239262982254021,4.239262982254021,4.239262982254021,4.239262982254021,4.239262982254021,4.239262982254021,4.239262982254021,4.239262982254021,4.239262982254021,4.239262982254021,4.1887902047863905],[4.1887902047863905,4.1887902047863905,4.1887902047863905,4.1887902047863905,4.202627631817275,4.2453196375019315,4.48583902137974,4.689660108131419,4.7856952646536035,4.830685006550005,4.903487721100258,4.929076698438785,4.985759693557933,5.048538956679371,5.094258708075659,5.130927790440307,5.142868053478812,5.154665357880718,5.154665357880718,5.154665357880718,5.154665357880718,5.154665357880718,5.154665357880718,5.154665357880718,5.154665357880718,5.154665357880718,5.166319031028225,5.189193647288699,5.189193647288699,5.189193647288699,5.189193647288699,5.189193647288699,5.189193647288699,5.189193647288699,5.189193647288699,5.189193647288699,5.189193647288699,5.235987755982988],[5.078964370228869,5.078964370228869,5.078964370228869,5.078964370228869,5.078964370228869,5.078964370228869,5.078964370228869,5.078964370228869,5.078964370228869,5.078964370228869,5.078964370228869,5.235987755982988],[5.003845774862556,5.003845774862556,5.003845774862556,5.003845774862556,5.003845774862556,5.003845774862556,5.003845774862556,5.003845774862556,5.003845774862556,5.003845774862556,5.003845774862556,5.003845774862556,5.003845774862556,5.003845774862556,5.003845774862556,5.003845774862556,5.003845774862556,5.003845774862556,5.003845774862556,5.003845774862556,5.003845774862556,5.003845774862556,5.003845774862556,5.003845774862556,5.003845774862556,5.003845774862556,5.003845774862556,5.003845774862556,5.003845774862556,5.003845774862556,5.003845774862556,5.003845774862556,5.003845774862556,5.003845774862556,5.003845774862556,5.003845774862556,5.003845774862556,5.003845774862556,5.003845774862556,5.006935363384119,5.006935363384119,5.006935363384119,5.006935363384119,5.006935363384119,5.006935363384119,5.006935363384119,5.017192004974927,5.023759284782591,5.023759284782591,5.027146641775998,5.041181671889644,5.041181671889644,5.044815285768786,5.044815285768786,5.0485270311702575,5.059223877965698,5.063116928632893,5.063116928632893,5.063116928632893,5.063116928632893,5.063116928632893,5.06709463239563,5.071159650655262,5.075314751396423,5.079562814202909,5.095132490230265,5.095132490230265,5.095132490230265,5.095132490230265,5.095132490230265,5.099682583590766,5.099682583590766,5.099682583590766,5.099682583590766,5.099682583590766,5.099682583590766,5.099682583590766,5.099682583590766,5.099682583590766,5.099682583590766,5.099682583590766,5.099682583590766,5.109097643275904,5.125517812663091,5.125517812663091,5.130613309963919,5.135828386544409,5.152919321001203,5.1584945293280935,5.1584945293280935,5.1584945293280935,5.1584945293280935,5.1584945293280935,5.1584945293280935,5.1584945293280935,5.1584945293280935,5.1584945293280935,5.1584945293280935,5.1584945293280935,5.1584945293280935,5.1584945293280935,5.1584945293280935,5.1584945293280935,5.1584945293280935,5.1584945293280935,5.1584945293280935,5.1584945293280935,5.1584945293280935,5.1584945293280935,5.1584945293280935,5.1584945293280935,5.1584945293280935,5.1584945293280935,5.1584945293280935,5.1584945293280935,5.1584945293280935,5.1584945293280935,5.1584945293280935,5.1584945293280935,5.1584945293280935,5.1584945293280935,5.1584945293280935,5.1584945293280935,5.1584945293280935,5.164202822282345,5.181988900040087,5.200722931441096,5.2194874847770265,5.238455399381452,5.252808480655274,5.2602525118865255,5.2602525118865255,5.2837264602183165,5.291952965678012,5.32184751832961,5.330816974757209,5.340018406186184,5.349459309660373,5.369090642504124,5.4115815701063585,5.459830698593823,5.51077342670231,5.537765830905428,5.578691242937369,5.593385262445978,5.593385262445978,5.608444364956034,5.608444364956034,5.608444364956034,5.623875238846728,5.639684198386302,5.655877114903824,5.672459342790377,5.689435640468815,5.706810086588403,5.706810086588403,5.724585991836024,5.790699541307661,5.809829265344671,5.829341305658076,5.84923193778569,5.869496093900723,5.890127287997654,5.9111175483214655,5.976139575160795,6.004885648174475,6.027033924613983,6.049442126310685,6.072091973956839,6.118036629764959,6.141288252575422,6.141288252575422,6.141288252575422,6.167426089458775,6.213530733451018,6.215108848921586,6.215108848921586,6.237762027758009,6.260461946337945,0.02272336084164106,0.04542327942157698,0.06807645825799935,0.08865588186743745,0.08865588186743745,0.08865588186743745,0.08865588186743745,0.08865588186743745,0.08865588186743745,0.08865588186743745,0.08865588186743745,0.08865588186743745,0.08865588186743745,0.08865588186743745,0.08865588186743745,0.08865588186743745,0.08865588186743745,0.08865588186743745,0.08865588186743745,0.08865588186743745,0.08865588186743745,0.08865588186743745,0.08865588186743745,0.08865588186743745,0.08673833867598502,0.08673833867598502,0.0651251633343859,0.0651251633343859,0.0651251633343859,0.0651251633343859,0.0651251633343859,0.0651251633343859,0.0651251633343859,0.06374331253268695,0.06374331253268695,0.04164257909858837,0.04164257909858837,0.04164257909858837,0.04164257909858837,0.040793682867865444,0.020405330686537937,0.020405330686537937,0.020405330686537937,0.020405330686537937,0.020405330686537937,0.020405330686537937,0.020405330686537937,0.020405330686537937,0.020405330686537937,0.020405330686537937,0.020405330686537937,0.020405330686537937,0.020405330686537937,0.020405330686537937,0.020405330686537937,0.020405330686537937,0.020405330686537937,0.020405330686537937,0.020405330686537937,0.020405330686537937,0.020405330686537937,0.020405330686537937,0.020405330686537937,0.020405330686537937,0.020405330686537937,0.020405330686537937,0.020405330686537937,0.020405330686537937,0.020405330686537937,0.020405330686537937,0.020405330686537937,0.020405330686537937,0.020405330686537937,0.020405330686537937,0,0,0,0,0,0,0,6.263579976322381,6.263579976322381,6.263579976322381,6.263579976322381,6.263579976322381,6.263579976322381,6.263579976322381,6.263579976322381,6.263579976322381,6.263579976322381,6.263579976322381,6.263579976322381,6.263579976322381,6.263579976322381,6.263579976322381,6.263579976322381,6.263579976322381,6.263579976322381,6.263579976322381,6.263579976322381,6.263579976322381,6.263579976322381,6.263579976322381,6.263579976322381,6.263579976322381,6.263579976322381,6.263579976322381,6.263579976322381,6.263579976322381,6.263579976322381,6.263579976322381,6.263579976322381,6.263579976322381,6.263579976322381,6.263579976322381,6.263579976322381,6.263579976322381,0,0,0,0,0,0,0,0,0,0,0,0,0,0,0,0,0,0,0,0,0,0,0,0,0,0,0,0,0,0,0,0,0,0,0,0,0,0,0,0,0,0,0,0,0,0,0,0,0,0],[0,0,0,0,0,0,0,0,0,0,0.02940328820400495,0.0596307131311693,0.12062366858010276,0.17021192528547435,0.18822150530477066,0.22208190190548005,0.24111767845146836,0.26481732990578877,0.285117735172596,0.32709809700579284,0.3487710035839069,0.4398425828157362,0.5372847143007717,0.6397697828266256,0.7328151017865066,0.7720656201033026,0.7853981633974483,0.7853981633974483,0.8117078806503705,0.9234041870549677,1.1160770519739271,1.2679114584199251,1.4489538897749794,1.5323537367737086,1.6447353644528369,1.7444675251364703,1.800028260071892,1.8384126315796583,1.873681195169868,1.8971551435016591,1.910893446304659,1.9195673303788037,1.932883734488625,1.9974238199217726,2.0521935508522002,2.075356765571142,2.075356765571142,2.075356765571142,2.075356765571142,2.075356765571142,2.0691121210052024,2.0691121210052024,2.0691121210052024,2.0630075936344627,2.068139043141719,2.068139043141719,2.0622145723891236,2.0622145723891236,2.0622145723891236,2.0622145723891236,2.0730987048928493,2.0838542362039356,2.09448098779114,2.09448098779114,2.09448098779114,2.09448098779114,2.09448098779114,2.09448098779114,2.1049789017002807,2.1153480349509333,2.1153480349509333,2.1153480349509333,2.1153480349509333,2.1153480349509333,2.1153480349509333,2.1153480349509333,2.1153480349509333,2.1153480349509333,2.1153480349509333,2.1153480349509333,2.1153480349509333,2.1153480349509333,2.1153480349509333,2.1153480349509333,2.1153480349509333,2.1153480349509333,2.1091708401411267,2.1031188380277426,2.0971886910213167,2.0971886910213167,2.087026997406644,2.087026997406644,2.087026997406644,2.087026997406644,2.087026997406644,2.087026997406644,2.087026997406644,2.087026997406644,2.087026997406644,2.087026997406644,2.087026997406644,2.087026997406644,2.087026997406644,2.087026997406644,2.087026997406644,2.087026997406644,2.087026997406644,2.087026997406644,2.087026997406644,2.087026997406644,2.087026997406644,2.087026997406644,2.087026997406644,2.087026997406644,2.087026997406644,2.087026997406644,2.087026997406644,2.087026997406644,2.087026997406644,2.087026997406644,2.087026997406644,2.087026997406644,2.087026997406644,2.0943951023931953]],"response_history":["2"],"rt":55050,"trial_type":"polygon-arrow-question","trial_index":0,"trial_index_global":3,"time_elapsed":100929,"internal_chunk_id":"0- 0.3-0"},{"nsides":6,"feedback":"Sorry, that was incorrect. 4 <img src=./images/hexagon_symbol.png style=width:14px;height:14px> 5 = 3 because 5 steps clockwise on the hexagon from 4 brings us to 3","orientation_history":[0],"rt":5125,"trial_type":"polygon-arrow-feedback","trial_index":0,"trial_index_global":4,"time_elapsed":106055,"internal_chunk_id":"0-0.3-0"},{"nsides":6,"question":"What is 3 <img src=./images/hexagon_symbol.png style=width:14px;height:14px> 2? <br /><br /> (Remember, to perform <img src=./images/hexagon_symbol.png style=width:14px;height:14px>, you can use the interactive diagram on the right, or perform the operation in your mind. Point the arrow at the first number on the hexagon, then move the arrow the second number of points clockwise around the hexagon. The number the arrow arrives at is your result.)","response_type":"free","response_choices":[],"correct_response":"5","response":"2","explain":false,"explanation":"","explanation_history":[],"orientation_history":[[0],[0,0,0,0,0,0,0,0,0,0,0,0,0,0,0,0,0,0,0,0,0,0,0,0,0,0,0,0,0,0,0,0,0,0,0,0,0,0,0,0,0,0,0,0,0,0,0,0,0,0,0,0,0,0,0,0,0,0,0,0,-0.05956452522379596,-0.13323575574174562,-0.18812095226337977,-0.2575388844137061,-0.32436834946395887,-0.3756827787076009,-0.48339152922022066,-0.5167998022687197,-0.5798349924932671,-0.6165292339490129,-0.6873326665189214,-0.7136246510745252,-0.7464785048154923,-0.7626000453832624,-0.7858573001879581,-0.8158971778289397,-0.8301046115385322,-0.8370420621831869,-0.843871224308975,-0.8505939914511771,-0.8505939914511771,-0.8572122370833473,-0.863727813512142,-0.863727813512142,-0.863727813512142,-0.863727813512142,-0.863727813512142,-0.863727813512142,-0.8572122370833473,-0.822279355198364,-0.7704738984073627,-0.6798140112066182,-0.5898552878230952,-0.5212217570221487,-0.46596301520525074,-0.4429094560288789,-0.41385376245593086,-0.37783640064723567,-0.328099675430618,-0.28555290338249506,-0.20672529798859252,-0.1771237522506448,-0.13668122244818726,-0.12308175866743376,-0.08067385367375479,-0.06708318053610007,-0.06708318053610007,-0.06708318053610007,-0.06708318053610007,-0.039077235385883036,-0.025594087488261863,-0.025054422133204746,-0.025054422133204746,-0.025054422133204746,-0.011736083384512597,0.0015917216959397962,-6.255103906716744,-6.255103906716744,-6.255103906716744,-6.255103906716744,-6.255103906716744,-6.255103906716744,-6.255103906716744,-6.255103906716744,-6.255103906716744,-6.255103906716744,-6.255103906716744,-6.255103906716744,-6.255103906716744,-6.255103906716744,-6.255103906716744,-6.255103906716744,-6.255103906716744,-6.255103906716744,-6.255103906716744,-6.255103906716744,-6.255103906716744,-6.255103906716744,-6.255103906716744,-6.255103906716744,-6.255103906716744,-6.255103906716744,-6.255103906716744,-6.255103906716744,-6.255103906716744,-6.255103906716744,-6.268261042189501,-6.268261042189501,-6.268261042189501,-6.268261042189501,0.00176712951732938,-0.011385452262836715,-0.03765879662085592,-0.0507705365623794,-0.0507705365623794,-0.0507705365623794,-0.0507705365623794,-0.0507705365623794,-0.0507705365623794,-0.0507705365623794,-0.0507705365623794,-0.0507705365623794,-0.0507705365623794,-0.0507705365623794,-0.0507705365623794,-0.0507705365623794,-0.0507705365623794,-0.0507705365623794,-0.0507705365623794,-0.0507705365623794,-0.0507705365623794,-0.0507705365623794,-0.0507705365623794,-0.0507705365623794,-0.03765879662085592,-0.03765879662085592,-0.03765879662085592,-0.03765879662085592,-0.03765879662085592,-0.024528936106953836,-0.024528936106953836,-0.024528936106953836,-0.011385452262836715,-6.268261042189501,-6.242625633667823,-6.242625633667823,-6.242625633667823,-6.242625633667823,-6.242625633667823,-6.242625633667823,-6.242625633667823,-6.242625633667823,-6.242625633667823,-6.242625633667823,-6.242292854977944,-6.242292854977944,-6.255274759269328,-6.268261042189501,0.00176712951732938,0.00176712951732938,0.00176712951732938,-0.011385452262836715,-0.011385452262836715,-0.011385452262836715,-0.011385452262836715,-0.011385452262836715,-0.011385452262836715,-0.011385452262836715,-0.011385452262836715,-0.011385452262836715,-0.011385452262836715,-0.011385452262836715,-0.011385452262836715,-0.011385452262836715,-0.011385452262836715,-0.011385452262836715,-0.011385452262836715,-0.011385452262836715,-0.011385452262836715,-0.011385452262836715,-0.011385452262836715,-0.011385452262836715,-0.011385452262836715,-0.011385452262836715,-0.011385452262836715,-0.011385452262836715,-0.011385452262836715,-0.011385452262836715,-0.011385452262836715,-0.011385452262836715,-0.011385452262836715,-0.011385452262836715,-0.011385452262836715,-0.011385452262836715,-0.011385452262836715,-0.011385452262836715,-0.011385452262836715,-0.011385452262836715,-0.011385452262836715,-0.011385452262836715,-0.011385452262836715,-0.011385452262836715,-0.011385452262836715,-0.011385452262836715,-0.011385452262836715,-0.011385452262836715,-0.011385452262836715,-0.011385452262836715,-0.011385452262836715,-0.011385452262836715,-0.011385452262836715,-0.011385452262836715,-0.011385452262836715,-0.011385452262836715,-0.011385452262836715,-0.011385452262836715,-0.011385452262836715,-0.011385452262836715,-0.011385452262836715,6.283185307179586],[6.283185307179586,6.283185307179586,6.283185307179586,6.283185307179586,6.283185307179586,6.283185307179586,6.283185307179586,6.283185307179586,6.283185307179586,6.283185307179586,6.283185307179586,6.283185307179586,6.283185307179586,6.283185307179586,6.283185307179586,6.283185307179586,6.283185307179586,6.283185307179586,6.283185307179586,6.283185307179586,6.283185307179586,6.283185307179586,6.282783216328719,6.282783216328719,6.297062131580081,0.028161566987892073,0.042866389365743496,0.057564855191897024,0.057564855191897024,0.057564855191897024,0.057564855191897024,0.057564855191897024,0.07290779844250772,0.10493345825766998,0.12163834814648156,0.13710352397775782,0.1723159541010464,0.18807469014611122,0.20657206633893233,0.20657206633893233,0.20657206633893233,0.20657206633893233,0.20657206633893233,0.20657206633893233,0.20657206633893233,0.20657206633893233,0.20657206633893233,0.20657206633893233,0.20657206633893233,0.22240256316929585,0.23813507985005544,0.2731402301147561,0.2731402301147561,0.2887639587352331,0.29297889689368084,0.29297889689368084,0.3290818013483172,0.3447308206002957,0.3811519548148026,0.4178701383307577,0.4396178104015942,0.45478906011476816,0.4768849109986131,0.5221029359074731,0.6024663971625938,0.6617945750576372,0.6848632291073262,0.7208034101971966,0.7332729151023238,0.7454832721273409,0.7561516157485407,0.7561516157485407,0.779864623039324,0.779864623039324,0.7913411650586213,0.7913411650586213,0.7913411650586213,0.8135597303853404,0.835295437227133,0.835295437227133,0.8570106257768711,0.8773030429180274,0.8773030429180274,0.8773030429180274,0.8984615238350623,0.908014665780387,0.9173520708423831,0.9173520708423831,0.9379147249321017,0.9554567849895043,0.9639311583924749,0.9722149925717417,0.9722149925717417,0.9722149925717417,0.9803135428580415,0.9803135428580415,0.9882319293935801,0.9882319293935801,1.01468661620188,1.01468661620188,1.0220249487653281,1.0220249487653281,1.0292014402998102,1.0292014402998102,1.0292014402998102,1.0292014402998102,1.0292014402998102,1.0292014402998102,1.0292014402998102,1.0292014402998102,1.0292014402998102,1.0292014402998102,1.0540939783312449,1.0893656289738627,1.1180706135874527,1.1973773536739092,1.2459675059558781,1.3510030489670979,1.406257135120403,1.4435936399312554,1.4790539084177647,1.5040061874400323,1.5276504289974984,1.5751528675977187,1.5870536942244788,1.6227629199678586,1.646540997059772,1.6584115530914456,1.670265358568079,1.6820991256712299,1.693909600125545,1.7056935664319244,1.729169336747185,1.7408549483869526,1.7641065711974155,1.7756667498528254,1.7871793990875593,1.8100512270055351,1.8214051592087304,1.83270107465169,1.855109276348392,1.855109276348392,1.8662169919386997,1.8692832401614552,1.8915196601866362,1.9243185407994308,1.9243185407994308,1.9496858420309922,1.9603987846763413,1.9710256526409091,1.9815651081405887,1.9963759776673626,2.006825861756699,2.006825861756699,2.017182223362018,2.0218118199157296,2.0218118199157296,2.0218118199157296,2.0218118199157296,2.0218118199157296,2.0321580622144237,2.0321580622144237,2.0321580622144237,2.0321580622144237,2.042406230202527,2.0525555898905603,2.0525555898905603,2.0525555898905603,2.062605502783595,2.062605502783595,2.062605502783595,2.0676559648926673,2.077679737778554,2.077679737778554,2.077679737778554,2.077679737778554,2.077679737778554,2.077679737778554,2.077679737778554,2.077679737778554,2.077679737778554,2.077679737778554,2.077679737778554,2.077679737778554,2.077679737778554,2.077679737778554,2.077679737778554,2.077679737778554,2.077679737778554,2.077679737778554,2.077679737778554,2.077679737778554,2.077679737778554,2.077679737778554,2.077679737778554,2.077679737778554,2.077679737778554,2.077679737778554,2.077679737778554,2.077679737778554,2.077679737778554,2.077679737778554,2.077679737778554,2.077679737778554,2.077679737778554,2.077679737778554,2.077679737778554,2.077679737778554,2.077679737778554,2.077679737778554,2.077679737778554,2.077679737778554,2.077679737778554,2.077679737778554,2.077679737778554,2.077679737778554,2.077679737778554,2.077679737778554,2.077679737778554,2.077679737778554,2.077679737778554,2.077679737778554,2.077679737778554,2.077679737778554,2.077679737778554,2.077679737778554,2.077679737778554,2.077679737778554,2.077679737778554,2.077679737778554,2.077679737778554,2.077679737778554,2.077679737778554,2.077679737778554,2.077679737778554,2.077679737778554,2.077679737778554,2.077679737778554,2.077679737778554,2.077679737778554,2.077679737778554,2.077679737778554,2.077679737778554,2.077679737778554,2.077679737778554,2.077679737778554,2.077679737778554,2.077679737778554,2.077679737778554,2.077679737778554,2.077679737778554,2.077679737778554,2.077679737778554,2.077679737778554,2.077679737778554,2.077679737778554,2.077679737778554,2.077679737778554,2.077679737778554,2.077679737778554,2.077679737778554,2.077679737778554,2.077679737778554,2.077679737778554,2.077679737778554,2.077679737778554,2.077679737778554,2.077679737778554,2.077679737778554,2.077679737778554,2.077679737778554,2.077679737778554,2.077679737778554,2.077679737778554,2.077679737778554,2.077679737778554,2.077679737778554,2.077679737778554,2.077679737778554,2.077679737778554,2.077679737778554,2.077679737778554,2.077679737778554,2.077679737778554,2.077679737778554,2.077679737778554,2.077679737778554,2.077679737778554,2.077679737778554,2.077679737778554,2.077679737778554,2.077679737778554,2.077679737778554,2.077679737778554,2.077679737778554,2.077679737778554,2.077679737778554,2.077679737778554,2.077679737778554,2.077679737778554,2.077679737778554,2.077679737778554,2.077679737778554,2.077679737778554,2.077679737778554,2.077679737778554,2.077679737778554,2.077679737778554,2.077679737778554,2.077679737778554,2.077679737778554,2.077679737778554,2.077679737778554,2.077679737778554,2.077679737778554,2.077679737778554,2.077679737778554,2.077679737778554,2.077679737778554,2.077679737778554,2.077679737778554,2.077679737778554,2.077679737778554,2.077679737778554,2.077679737778554,2.077679737778554,2.077679737778554,2.077679737778554,2.077679737778554,2.077679737778554,2.077679737778554,2.077679737778554,2.077679737778554,2.077679737778554,2.077679737778554,2.077679737778554,2.077679737778554,2.077679737778554,2.077679737778554,2.077679737778554,2.077679737778554,2.077679737778554,2.077679737778554,2.077679737778554,2.077679737778554,2.077679737778554,2.077679737778554,2.077679737778554,2.077679737778554,2.077679737778554,2.077679737778554,2.077679737778554,2.077679737778554,2.077679737778554,2.077679737778554,2.077679737778554,2.077679737778554,2.077679737778554,2.077679737778554,2.077679737778554,2.077679737778554,2.077679737778554,2.077679737778554,2.077679737778554,2.077679737778554,2.077679737778554,2.077679737778554,2.077679737778554,2.077679737778554,2.077679737778554,2.077679737778554,2.077679737778554,2.077679737778554,2.077679737778554,2.077679737778554,2.077679737778554,2.077679737778554,2.077679737778554,2.077679737778554,2.077679737778554,2.077679737778554,2.077679737778554,2.077679737778554,2.077679737778554,2.077679737778554,2.0943951023931953]],"response_history":["2"],"rt":21765,"trial_type":"polygon-arrow-question","trial_index":0,"trial_index_global":5,"time_elapsed":127821,"internal_chunk_id":"0-0.3-0"},{"nsides":6,"feedback":"Sorry, that was incorrect. 3 <img src=./images/hexagon_symbol.png style=width:14px;height:14px> 2 = 5 because 2 steps clockwise on the hexagon from 3 brings us to 5","orientation_history":[0],"rt":4621,"trial_type":"polygon-arrow-feedback","trial_index":0,"trial_index_global":6,"time_elapsed":132444,"internal_chunk_id":"0-0.3-0"},{"nsides":6,"question":"What is 1 <img src=./images/hex agon_sym bol.png style=width:14px;height:14px> 5? <br /><br /> (Remember, to perform <img src=./images/hexagon_symbol.png style=width:14px;height:14px>, you can use the interactive diagram on the right, or perform the operation in your mind. Point the arrow at the first number on the hexagon, then move the arrow the second number of points clockwise around the hexagon. The number the arrow arrives at is your result.)","response_type":"free","response_choices":[],"correct_response":"0","response":"4","explain":false,"explanation":"","explanation_history":[],"orientation_history":[[0],[0,0,0,0,0,0,0,0,0,0,0,0,0,0,0,0,0,0,0,0,0,0,0,0,0,0,0,0,0,0,0,0,0,0,0,0,0,0,0,0,0,0,0,0,0,0,0,0,0,0,0,0,0,0,0,0,0,0,0,0,0,0,0,0,0,0,0,0,0,0,0,0,0,0,0,0,0,0,0,0,0,0,0,0,0,0,0,0,0,0,0,0,0,0,0,0,0,0,0,0,0,0,0,0,0,0,0,0,0,0,0,0,0,0,0,0,0,0,0,0,0,0,0,0,0,0,0,0,0,0,0,0,0,0,0,0,0,0,0,0,0,0,0,0,0,0,0,0,0,0,0,0,0,0,0,0,0,0,0,0,0,0,0,0,0,0,0,0,0,0,0,0,0,0,0,0,0,0,0,0,0,0,0,0,0,0,0,0,0,0,0,0,0,0,0,0,0,0,0,0,0,0,0,0,0,0,0,0,0,0,0,0,0,0,0,0,0,0,0,0,0,0,0,0,0,0,0,0,-0.015376124289874227,-0.04607755410217074,-0.04607755410217074,-0.04607755410217074,-0.04607755410217074,-0.04607755410217074,-0.04607755410217074,-0.04607755410217074,-0.04607755410217074,-0.04607755410217074,-0.04607755410217074,-0.04607755410217074,-0.04607755410217074,-0.04607755410217074,-0.04607755410217074,-0.04607755410217074,-0.04607755410217074,-0.04607755410217074,-0.04607755410217074,-0.04607755410217074,-0.04607755410217074,-0.04607755410217074,-0.04607755410217074,-0.07956830456216135,-0.09527381939330049,-0.09527381939330049,-0.09704372904959513,-0.11293982590519924,-0.11293982590519924,-0.13110077661296593,-0.14976527563403152,-0.14976527563403152,-0.16593637262089533,-0.1852694755392914,-0.1852694755392914,-0.1852694755392914,-0.1852694755392914,-0.1852694755392914,-0.1852694755392914,-0.22146535916632448,-0.25827591930149474,-0.25827591930149474,-0.2793467034287822,-0.3117146952251977,-0.3555078870320676,-0.37149231595043286,-0.38727125177127775,-0.486706797241399,-0.5631408126371094,-0.6350380117629291,-0.6620030369168068,-0.6987072968315626,-0.7347352880232618,-0.7700147616168529,-0.8274228762536522,-0.8831657432073374,-0.9055424756023536,-0.9277834992128069,-0.9717771059371403,-1.0017316028073031,-1.0017316028073031,-1.0017316028073031,-1.0017316028073031,-1.0017316028073031,-1.0017316028073031,-1.0017316028073031,-1.0017316028073031,-1.0017316028073031,-1.0017316028073031,-1.0017316028073031,-1.0017316028073031,-1.0149934247437171,-1.0149934247437171,-1.0149934247437171,-1.0149934247437171,-1.0149934247437171,-1.0149934247437171,-1.0149934247437171,-1.0229088267124506,-1.0229088267124506,-1.0229088267124506,-1.0229088267124506,-1.0229088267124506,-1.0229088267124506,-1.0229088267124506,-1.0229088267124506,-1.0229088267124506,-1.0229088267124506,-1.0229088267124506,-1.057296215013987,-1.057296215013987,-1.057296215013987,-1.057296215013987,-1.057296215013987,-1.057296215013987,-1.057296215013987,-1.0850086620777093,-1.1187857652007596,-1.1325589988813602,-1.1387106642749023,-1.1525013341607862,-1.1525013341607862,-1.17764626707448,-1.1914339685046569,-1.2104107478071962,-1.2243168483101696,-1.2243168483101696,-1.2243168483101696,-1.2243168483101696,-1.2243168483101696,-1.2243168483101696,-1.2243168483101696,-1.2243168483101696,-1.2243168483101696,-1.256913993428122,-1.2710281484204424,-1.2891608758633764,-1.3033169443462276,-1.3069255043568981,-1.3069255043568981,-1.3209972492904907,-1.3209972492904907,-1.3209972492904907,-1.3209972492904907,-1.3209972492904907,-1.3209972492904907,-1.3209972492904907,-1.3209972492904907,-1.3209972492904907,-1.3351642016236118,-1.34942158833847,-1.3637644283276247,-1.378187540064582,-1.39268555037392,-1.39268555037392,-1.409400667303026,-1.409400667303026,-1.409400667303026,-1.409400667303026,-1.409400667303026,-1.409400667303026,-1.409400667303026,-1.438304180447437,-1.438304180447437,-1.438304180447437,-1.438304180447437,-1.4528330725960066,-1.4528330725960066,-1.4528330725960066,-1.4528330725960066,-1.4528330725960066,-1.4528330725960066,-1.4674055514865607,-1.4820155991126898,-1.4966571022985784,-1.5113238676162295,-1.54070810263645,-1.5554129250143012,-1.5848162132183061,-1.5995019824123728,-1.6150436381454698,-1.6150436381454698,-1.6299017152281827,-1.6460728122150465,-1.6610785071141567,-1.6610785071141567,-1.6760365935944037,-1.6929996614846514,-1.6929996614846514,-1.6929996614846514,-1.6929996614846514,-1.6929996614846514,-1.6929996614846514,-1.7080622534095662,-1.7080622534095662,-1.7080622534095662,-1.7080622534095662,-1.7080622534095662,-1.7080622534095662,-1.7080622534095662,-1.7080622534095662,-1.7080622534095662,-1.7080622534095662,-1.6929996614846514,-1.632184816284079,-1.6168738808970664,-1.6015340410288124,-1.5707963267948957,-1.5400295232337067,-1.50929180899979,-1.4786410337445233,-1.463366076150895,-1.4481340693658984,-1.4481340693658984,-1.417826188543951,-1.3728530718833944,-1.310434261887437,-1.2771132660091897,-1.2433708034517679,-1.223858763138363,-1.2092769614449406,-1.1948469245361952,-1.1948469245361952,-1.1606218053145403,-1.1465050960633763,-1.1123103700468953,-1.064561144616282,-1.0381255446866797,-1.0251971522376708,-1.0047373741020502,-0.9796546074910655,-0.9674103214667342,-0.9351634390314798,-0.9148272598557918,-0.9032415132572309,-0.8717036133799301,-0.8514668059227235,-0.8406043514357266,-0.7599140950315313,-0.659357540442957,-0.6113594994304519,-0.565014785613279,-0.5344697808959902,-0.5087962270023185,-0.49700605853014235,-0.47855796713898524,-0.47855796713898524,-0.4603118170743974,-0.4603118170743974,-0.4603118170743974,-0.4422762548362975,-0.42445918103514035,-0.3824909558365741,-0.3651229753317695,-0.32317229313108875,-0.31881464248490765,-0.31881464248490765,-0.30636715261604675,-0.28983973201332613,-0.2773296734434014,-0.25762530130611516,-0.24194031319049358,-0.21425904050453948,-0.1869382265977082,-0.1869382265977082,-0.1844452432923953,-0.1844452432923953,-0.1844452432923953,-0.1844452432923953,-0.1844452432923953,-0.1844452432923953,-0.1844452432923953,-0.1844452432923953,-0.1844452432923953,-0.1844452432923953,-0.1844452432923953,-0.1844452432923953,-0.1844452432923953,-0.1844452432923953,-0.1844452432923953,-0.1844452432923953,-0.1844452432923953,-0.1844452432923953,-0.1844452432923953,-0.1844452432923953,-0.1844452432923953,-0.1844452432923953,-0.1844452432923953,-0.1844452432923953,-0.1844452432923953,-0.1844452432923953,-0.1844452432923953,-0.1844452432923953,-0.1844452432923953,-0.1844452432923953,-0.1844452432923953,-0.1844452432923953,-0.1844452432923953,-0.1844452432923953,-0.1844452432923953,-0.1844452432923953,-0.1844452432923953,-0.1844452432923953,-0.1844452432923953,-0.1844452432923953,-0.1844452432923953,-0.1844452432923953,-0.1844452432923953,-0.1844452432923953,-0.1844452432923953,-0.1844452432923953,-0.1844452432923953,-0.1844452432923953,-0.1844452432923953,-0.1844452432923953,-0.1844452432923953,-0.1844452432923953,-0.1844452432923953,-0.1844452432923953,-0.1844452432923953,-0.1844452432923953,-0.1844452432923953,-0.1844452432923953,-0.1844452432923953,-0.1844452432923953,-0.1844452432923953,-0.1844452432923953,-0.1844452432923953,-0.1844452432923953,-0.1844452432923953,-0.1844452432923953,-0.1844452432923953,-0.1844452432923953,-0.1844452432923953,-0.1844452432923953,-0.1844452432923953,-0.1844452432923953,-0.1844452432923953,-0.1844452432923953,-0.1844452432923953,-0.1844452432923953,-0.1844452432923953,-0.1844452432923953,-0.1844452432923953,-0.1844452432923953,-0.1844452432923953,-0.1844452432923953,-0.1844452432923953,-0.1844452432923953,-0.1844452432923953,-0.1844452432923953,-0.1844452432923953,-0.1844452432923953,-0.1844452432923953,-0.1844452432923953,-0.1844452432923953,-0.1844452432923953,-0.1844452432923953,-0.1844452432923953,-0.1844452432923953,-0.1844452432923953,-0.1844452432923953,-0.1844452432923953,-0.1844452432923953,-0.1844452432923953,-0.1722563700237707,-0.12296756839652989,-0.035853765622823275,0.0025635913076946792,-6.267801905398991,-6.2548156224788185,-6.2548156224788185,-6.2548156224788185,-6.2548156224788185,-6.2548156224788185,-6.2548156224788185,-6.2548156224788185,-6.2548156224788185,-6.2548156224788185,-6.2548156224788185,-6.2548156224788185,-6.2548156224788185,-6.2548156224788185,-6.2548156224788185,-6.2548156224788185,-6.2548156224788185,-6.2548156224788185,-6.2548156224788185,-6.2548156224788185,-6.2548156224788185,-6.2548156224788185,-6.2548156224788185,-6.2548156224788185,-6.2548156224788185,-6.2548156224788185,-6.2548156224788185,-6.2548156224788185,-6.2548156224788185,-6.2548156224788185,-6.2548156224788185,-6.2548156224788185,-6.2548156224788185,-6.2548156224788185,-6.2548156224788185,-6.2548156224788185,-6.2548156224788185,-6.2548156224788185,-6.2548156224788185,-6.2548156224788185,-6.2548156224788185,-6.2548156224788185,-6.2548156224788185,-6.2548156224788185,-6.2548156224788185,-6.2548156224788185,-6.2548156224788185,-6.2548156224788185,-6.2548156224788185,-6.2548156224788185,-6.2548156224788185,-6.2548156224788185,-6.2548156224788185,-6.2548156224788185,-6.2548156224788185,-6.2548156224788185,-6.267801905398991,-6.267801905398991,0.002397118860423042,-0.05118476199522881,-0.09230646905222528,-0.10564381802860989,-0.15851778735729116,-0.2003827946264467,-0.21341544360663,-0.22636946608364727,-0.22636946608364727,-0.23924126441394566,-0.2555634485578251,-0.28509376659198526,-0.3193534355362191,-0.3369253228935465,-0.3547874260616215,-0.3804670395568204,-0.42963282297494576,-0.5226608060450291,-0.6064408860499944,-0.6656336086665222,-0.6861001346776616,-0.7518349465438741,-0.7608407070717425,-0.7881945766898317,-0.8063623826358741,-0.8150293773913804,-0.8329944240497982,-0.8509188607720839,-0.8509188607720839,-0.8509188607720839,-0.8509188607720839,-0.8687913536845153,-0.8687913536845153,-0.8767504342659889,-0.8943697561636146,-0.9266166385988681,-0.9537592923559757,-1.0149934247437171,-1.0807160419341262,-1.1472638212592114,-1.2805030835336284,-1.4083345696258993,-1.53132120158938,-1.650364631357058,-1.7186532077991385,-1.7728503444172485,-1.792261685961221,-1.8138678612223194,-1.8352300335375444,-1.856333159374726,-1.8667832294122029,-1.8771634794109433,-1.9013801976270974,-1.915472254365354,-1.9442006863043408,-1.9544738735904348,-1.969102138293164,-1.969102138293164,-1.969102138293164,-1.969102138293164,-1.969102138293164,-1.969102138293164,-1.969102138293164,-1.969102138293164,-1.969102138293164,-1.969102138293164,-1.994065740396187,-2.009010621122073,-2.02411099612418,-2.02411099612418,-2.029264261509062,-2.029264261509062,-2.029264261509062,-2.029264261509062,-2.029264261509062,-2.029264261509062,-2.029264261509062,-2.029264261509062,-2.029264261509062,-2.029264261509062,-2.029264261509062,-2.0393623128743252,-2.0859708120437483,-2.107831849334647,-2.1239374727453413,-2.1239374727453413,-2.1239374727453413,-2.1239374727453413,-2.1239374727453413,-2.1239374727453413,-2.1239374727453413,-2.1239374727453413,-2.1239374727453413,-2.1239374727453413,-2.1239374727453413,-2.1239374727453413,-2.1239374727453413,-2.1239374727453413,-2.1239374727453413,-2.1239374727453413,-2.1239374727453413,-2.1239374727453413,-2.1239374727453413,-2.1239374727453413,-2.1239374727453413,-2.1239374727453413,-2.1239374727453413,-2.1239374727453413,-2.1239374727453413,-2.1239374727453413,-2.1239374727453413,-2.1239374727453413,-2.1239374727453413,-2.1239374727453413,-2.1239374727453413,-2.1239374727453413,-2.1239374727453413,-2.1239374727453413,-2.1239374727453413,-2.1239374727453413,-2.1239374727453413,-2.1239374727453413,-2.1239374727453413,-2.1239374727453413,-2.1239374727453413,-2.1239374727453413,-2.1239374727453413,-2.1239374727453413,-2.1239374727453413,-2.1239374727453413,-2.1239374727453413,-2.1239374727453413,-2.1239374727453413,-2.1239374727453413,-2.1239374727453413,-2.1239374727453413,-2.1239374727453413,-2.1239374727453413,-2.1239374727453413,-2.1239374727453413,-2.1239374727453413,-2.1239374727453413,-2.1239374727453413,-2.1239374727453413,-2.1239374727453413,-2.1239374727453413,-2.1239374727453413,-2.1239374727453413,-2.1239374727453413,-2.1239374727453413,-2.1239374727453413,-2.1239374727453413,-2.1239374727453413,-2.1401582110918627,-2.146704990381422,-2.146704990381422,-2.146704990381422,-2.146704990381422,-2.146704990381422,-2.1564866795120503,-2.1564866795120503,-2.1564866795120503,-2.1564866795120503,-2.1564866795120503,-2.1564866795120503,-2.1564866795120503,-2.1564866795120503,-2.1564866795120503,-2.1564866795120503,-2.1564866795120503,-2.1564866795120503,-2.1564866795120503,-2.1564866795120503,-2.1564866795120503,-2.1564866795120503,-2.1564866795120503,-2.1564866795120503,-2.1564866795120503,-2.1564866795120503,-2.1564866795120503,-2.1564866795120503,-2.1564866795120503,-2.1564866795120503,-2.1564866795120503,-2.1564866795120503,-2.1564866795120503,-2.1564866795120503,-2.1564866795120503,-2.1564866795120503,-2.1564866795120503,-2.1564866795120503,-2.1564866795120503,-2.1564866795120503,-2.1564866795120503,-2.1564866795120503,-2.1564866795120503,-2.1564866795120503,-2.1564866795120503,-2.1564866795120503,-2.1564866795120503,-2.1564866795120503,-2.1564866795120503,-2.1564866795120503,-2.1564866795120503,-2.1564866795120503,-2.1564866795120503,-2.1564866795120503,-2.1564866795120503,-2.1564866795120503,-2.1564866795120503,-2.1564866795120503,-2.1564866795120503,-2.1564866795120503,-2.1564866795120503,-2.1564866795120503,-2.1564866795120503,-2.1564866795120503,-2.1564866795120503,-2.1564866795120503,-2.1564866795120503,-2.1564866795120503,-2.1564866795120503,-2.1564866795120503,-2.1564866795120503,-2.1564866795120503,-2.1564866795120503,-2.1564866795120503,-2.1564866795120503,-2.1564866795120503,-2.146704990381422,-2.126750404847928,-2.1102051521521963,-2.1102051521521963,-2.0999646331703383,-2.0999646331703383,-2.0937874383605317,-2.0937874383605317,-2.0937874383605317,-2.0937874383605317,-2.0937874383605317,-2.0937874383605317,-2.0937874383605317,-2.0937874383605317,-2.0937874383605317,-2.0937874383605317,-2.0937874383605317,-2.0937874383605317,-2.0937874383605317,-2.0937874383605317,-2.0937874383605317,-2.0937874383605317,-2.0937874383605317,-2.0937874383605317,-2.0937874383605317,-2.0937874383605317,-2.0937874383605317,-2.0937874383605317,-2.0937874383605317,-2.0937874383605317,-2.0937874383605317,-2.0937874383605317,-2.0937874383605317,-2.0937874383605317,-2.1039623274648287,-2.114012240357863,-2.114012240357863,-2.1337384112947175,-2.1337384112947175,-2.1337384112947175,-2.1337384112947175,-2.1337384112947175,-2.1337384112947175,-2.1337384112947175,-2.1337384112947175,-2.1337384112947175,-2.1337384112947175,-2.1337384112947175,-2.1337384112947175,-2.1337384112947175,-2.1337384112947175,-2.1337384112947175,-2.1337384112947175,-2.1337384112947175,-2.1337384112947175,-2.1337384112947175,-2.1337384112947175,-2.1337384112947175,-2.1337384112947175,-2.1337384112947175,-2.1337384112947175,-2.1337384112947175,-2.1337384112947175,-2.1337384112947175,-2.1337384112947175,-2.1337384112947175,-2.1337384112947175,-2.1337384112947175,-2.1337384112947175,-2.1337384112947175,-2.1337384112947175,-2.1337384112947175,-2.1337384112947175,-2.1337384112947175,-2.1337384112947175,-2.1337384112947175,-2.1337384112947175,-2.1337384112947175,-2.1337384112947175,-2.1337384112947175,-2.1337384112947175,-2.1337384112947175,-2.1337384112947175,-2.1337384112947175,-2.1337384112947175,-2.1337384112947175,-2.1337384112947175,-2.1337384112947175,-2.1337384112947175,-2.1337384112947175,-2.1337384112947175,-2.1337384112947175,-2.1337384112947175,-2.1337384112947175,-2.1337384112947175,-2.1337384112947175,-2.1337384112947175,-2.1337384112947175,-2.1337384112947175,-2.1337384112947175,-2.1337384112947175,4.1887902047863905]],"response_history":["5","4"],"rt":22830,"trial_type":"polygon-arrow-question","trial_index":0,"trial_index_global":7,"time_elapsed":155275,"internal_chunk_id":"0- 0.3-0"},{"nsides":6,"feedback":"Sorry, that was incorrect. 1 <img src=./images/hexagon_symbol.png style=width:14px;height:14px> 5 = 0 because 5 steps clockwise on the hexagon from 1 brings us to 0","orientation_history":[0],"rt":8353,"trial_type":"polygon-arrow-feedback","trial_index":0,"trial_index_global":8,"time_elapsed":163629,"internal_chunk_id":"0-0.3-0"},{"nsides":6,"question":"What is 1 <img src=./images/hexagon_symbol.png style=width:14px;height:14px> 1? <br /><br /> (Remember, to perform <img src=./images/hexagon_symbol.png style=width:14px;height:14px>, you can use the interactive diagram on the right, or perform the operation in your mind. Point the arrow at the first number on the hexagon, then move the arrow the second number of points clockwise around the hexagon. The number the arrow arrives at is your result.)","response_type":"free","response_choices":[],"correct_response":"2","response":"1","explain":false,"explanation":"","explanation_history":[],"orientation_history":[[0],[0,0,0,0,0,0,0,0,0,0,0.03123983343026815,0.09347678115858948,0.2066832184842493,0.3066763194016826,0.3569119363516704,0.4069707853687712,0.4423742229767449,0.48522699256733626,0.49934672168012995,0.5349550737860964,0.5349550737860964,0.5349550737860964,0.548549402450528,0.5750722897323906,0.6094585379449204,0.6435011087932844,0.6556956262415361,0.6889243882148613,0.7004963699477263,0.7328151017865066,0.7328151017865066,0.7538297069096702,0.7538297069096702,0.7538297069096702,0.7645678433612312,0.7853981633974483,0.8058034940839863,0.8261918462653136,0.8668502077033192,0.8870870151605252,0.915964258197076,0.9357695914045828,0.9472355946358711,0.9472355946358711,0.9472355946358711,0.9472355946358711,0.9472355946358711,0.9472355946358711,0.9472355946358711,0.9472355946358711,0.9472355946358711,0.9472355946358711,0.9472355946358711,0.9472355946358711,0.9472355946358711,0.9634911016286458,0.982793723247329,0.982793723247329,0.982793723247329,0.982793723247329,0.982793723247329,0.982793723247329,0.982793723247329,0.982793723247329,0.982793723247329,0.982793723247329,0.982793723247329,1.0019484683735376,1.0397662219507142,1.0397662219507142,1.0466166980119833,1.0466166980119833,1.0466166980119833,1.0466166980119833,1.0466166980119833,1.0466166980119833,1.0466166980119833,1.0466166980119833,1.0466166980119833,1.0466166980119833,1.0466166980119833,1.0466166980119833,1.053308585820788,1.0714496051147664,1.0714496051147664,1.0714496051147664,1.0714496051147664,1.0714496051147664,1.0714496051147664,1.0714496051147664,1.0714496051147664,1.0777454295900855,1.0777454295900855,1.0838970949836275,1.0838970949836275,1.0838970949836275,1.0838970949836275,1.0838970949836275,1.0838970949836275,1.0838970949836275,1.0838970949836275,1.0838970949836275,1.0838970949836275,1.0838970949836275,1.0838970949836275,1.0838970949836275,1.0838970949836275,1.0838970949836275,1.0838970949836275,1.0838970949836275,1.0838970949836275,1.0838970949836275,1.0838970949836275,1.0838970949836275,1.0838970949836275,1.0838970949836275,1.0838970949836275,1.0838970949836275,1.0838970949836275,1.0838970949836275,1.0838970949836275,1.0838970949836275,1.0838970949836275,1.0838970949836275,1.0838970949836275,1.0838970949836275,1.0838970949836275,1.0838970949836275,1.0838970949836275,1.0838970949836275,1.0785850599553304,1.0845536937073916,1.0845536937073916,1.0845536937073916,1.0845536937073916,1.0845536937073916,1.0845536937073916,1.0845536937073916,1.0845536937073916,1.0845536937073916,1.0845536937073916,1.0845536937073916,1.0845536937073916,1.0845536937073916,1.0845536937073916,1.073453610448074,1.073453610448074,1.0624857017840692,1.0624857017840692,1.0624857017840692,1.0624857017840692,1.0624857017840692,1.0624857017840692,1.0624857017840692,1.0624857017840692,1.0624857017840692,1.0624857017840692,1.0624857017840692,1.0624857017840692,1.0624857017840692,1.0624857017840692,1.0624857017840692,1.0624857017840692,1.0624857017840692,1.0624857017840692,1.0624857017840692,1.0624857017840692,1.0624857017840692,1.0624857017840692,1.0624857017840692,1.0624857017840692,1.0624857017840692,1.0624857017840692,1.0624857017840692,1.0624857017840692,1.0624857017840692,1.0624857017840692,1.0624857017840692,1.0624857017840692,1.0624857017840692,1.0624857017840692,1.0624857017840692,1.0624857017840692,1.0624857017840692,1.0624857017840692,1.0624857017840692,1.0624857017840692,1.0624857017840692,1.0624857017840692,1.0624857017840692,1.0624857017840692,1.0624857017840692,1.0624857017840692,1.0624857017840692,1.0624857017840692,1.0624857017840692,1.0624857017840692,1.0471975511965976]],"response_history":["1"],"rt":9042,"trial_type":"polygon-arrow-question","trial_index":0,"trial_index_global":9,"time_elapsed":172671,"internal_chunk_id":"0-0.3-0"},{"nsides":6,"feedback":"Sorry, that was incorrect. 1 <img src=./images/hexagon_symbol.png style=width:14px;height:14px> 1 = 2 because 1 step clockwise on the hexagon from 1 brings us to 2","orientation_history":[0],"rt":4575,"trial_type":"polygon-arrow-feedback","trial_index":0,"trial_index_global":10,"time_elapsed":177247,"internal_chunk_id":"0-0.3-0"},{"nsides":6,"question":"What is 3 <img src=./images/hexagon_symbol.png style=width:14px;height:14px> 0? <br /><br /> (Remember, to perform <img src=./images/hexagon_symbol.png style=width:14px;height:14px>, you can use the interactive diagram on the right, or perform the operation in your mind. Point the arrow at the first number on the hexagon, then move the arrow the second number of points clockwise around the hexagon. The number the arrow arrives at is your result.)","response_type":"free","response_choices":[],"correct_response":"3","response":"3","explain":false,"explanation":"","explanation_history":[],"orientation_history":[[0],[0,0,0,-0.0002260908846847265,-0.0002260908846847265,-0.0002260908846847265,-0.0002260908846847265,-0.0002260908846847265,-0.0002260908846847265,-0.0002260908846847265,0.014691528792339703,0.04448035725639965,0.08894958223482963,0.11837869321710182,0.17932976034033588,0.2116484921791162,0.2262051347006342,0.2262051347006342,0.2262051347006342,0.2262051347006342,0.2262051347006342,0.2262051347006342,0.2262051347006342,0.2262051347006342,0.2262051347006342,0.2262051347006342,0.2262051347006342,0.2262051347006342,0.2262051347006342,0.2262051347006342,0.2262051347006342,0.2262051347006342,0.2262051347006342,0.2262051347006342,0.2262051347006342,0.2262051347006342,0.2262051347006342,0.2262051347006342,0.2262051347006342,0.2262051347006342,0.2262051347006342,0.2262051347006342,0.22268557158268099,0.19084098080106182,0.12877509351344663,0.0859530158615287,0.04193042653149481,-0.0010667800519095216,6.254146955373849,6.226962172714362,6.214033450928848,6.214033450928848,6.214033450928848,6.214033450928848,6.214033450928848,6.214033450928848,6.214033450928848,6.214033450928848,6.214033450928848,6.214033450928848,6.214033450928848,6.214033450928848,6.214033450928848,6.214033450928848,6.214033450928848,6.214033450928848,6.214033450928848,6.214033450928848,6.254522260291488,0.03885114450119853,0.052314668647134965,0.06575374328046091,0.0791635954524108,0.0791635954524108,0.0791635954524108,0.0791635954524108,0.0791635954524108,0.0791635954524108,0.0791635954524108,0.0791635954524108,0.0791635954524108,0.0791635954524108,0.0791635954524108,0.0791635954524108,0.0791635954524108,0.0791635954524108,0.0791635954524108,0.0791635954524108,0.0791635954524108,0.0791635954524108,0.0791635954524108,0.0791635954524108,0.06575374328046091,0.06575374328046091,0.06575374328046091,0.06575374328046091,0.06575374328046091,0.06575374328046091,0.06575374328046091,0.06575374328046091,0.06575374328046091,0.06575374328046091,0.06575374328046091,0.06575374328046091,0.052314668647134965,0.052314668647134965,0.052314668647134965,0.052314668647134965,0.052314668647134965,0.052314668647134965,0.052314668647134965,0.052314668647134965,0.052314668647134965,0.052314668647134965,0.052314668647134965,0.052314668647134965,0.052314668647134965,0.052314668647134965,0.052314668647134965,0.052314668647134965,0.052314668647134965,0.052314668647134965,0.052314668647134965,0.052314668647134965,0.052314668647134965,0.052314668647134965,0.052314668647134965,0.052314668647134965,0.052314668647134965,0.052314668647134965,0.052314668647134965,0.052314668647134965,0.052314668647134965,0.052314668647134965,0.052314668647134965,0.052314668647134965,0.052314668647134965,0.052314668647134965,0.052314668647134965,0.052314668647134965,0.052314668647134965,0.052314668647134965,0.052314668647134965,0.052314668647134965,0.052314668647134965,0.052314668647134965,0.052314668647134965,0.052314668647134965,0.052314668647134965,0.052314668647134965,0.052314668647134965,0.052314668647134965,0.052314668647134965,0.052314668647134965,0.052314668647134965,0.052314668647134965,0.052314668647134965,0.052314668647134965,0.052314668647134965,0.052314668647134965,0.052314668647134965,0.052314668647134965,0.052314668647134965,0.052314668647134965,0.052314668647134965,0.052314668647134965,0.052314668647134965,0.052314668647134965,0.052314668647134965,0.052314668647134965,0.052314668647134965,0.052314668647134965,0.052314668647134965,0.052314668647134965,0.052314668647134965,0.03885114450119853,0.03885114450119853,0.03885114450119853,0.03885114450119853,0.03885114450119853,0.03885114450119853,0.03885114450119853,0.03885114450119853,0.03885114450119853,0.03885114450119853,0.03885114450119853,0.06575374328046091,0.09400310703410808,0.1228556677827497,0.19594297734797683,0.25731279352902203,0.3385527902063521,0.40904405202899685,0.43551097020586393,0.4550331077719676,0.4550331077719676,0.4550331077719676,0.4550331077719676,0.4550331077719676,0.4550331077719676,0.4550331077719676,0.4550331077719676,0.4550331077719676,0.4550331077719676,0.4550331077719676,0.4550331077719676,0.4550331077719676,0.467975308942564,0.467975308942564,0.467975308942564,0.560607961648466,0.6254353092837396,0.6685589557596016,0.6982077421358507,0.7090996448733774,0.7399540476039035,0.7502504735495281,0.7801484741106671,0.8679747148813973,0.9338216830895371,1.0219377792808653,1.074758690724791,1.0919983619193208,1.0919983619193208,1.0919983619193208,1.0919983619193208,1.0919983619193208,1.0919983619193208,1.0919983619193208,1.0919983619193208,1.0919983619193208,1.1374216413408977,1.2860568929992007,1.435741985555103,1.5207763893653372,1.5893410782661432,1.6443018527875644,1.6881975032168008,1.7743149167940688,1.8190436034656274,1.8636987519439032,1.9321363053666498,1.9760513221228697,2.047455146908826,2.1066284585937645,2.1712658603492363,2.25401619240613,2.302102791220536,2.341044134317575,2.3474134749362383,2.3474134749362383,2.3474134749362383,2.360150089436016,2.40673893587004,2.4653991288643367,2.6303986193488456,2.7724448608831276,2.9766298411421257,3.0249404667090705,3.053179163975784,3.0897615099583717,3.1082624826420453,3.1173516390499634,3.135532956380083,3.135532956380083,3.153708266170618,3.189992969140481,3.226110950206185,3.261970011700524,3.2990202589472304,3.325601524166597,3.325601524166597,3.325601524166597,3.325601524166597,3.325601524166597,3.3273965614031207,3.3184903149557536,3.3005862347544417,3.282568663558366,3.246236320467779,3.2187716324466225,3.2095835296034645,3.201069803422536,3.192384287496294,3.182985734659841,3.182985734659841,3.174025400992007,3.1550059555537837,3.1359658193086366,3.1264422977150232,3.1264422977150232,3.1264422977150232,3.1264422977150232,3.1264422977150232,3.1264422977150232,3.1169187761214108,3.1169187761214108,3.1169187761214108,3.1169187761214108,3.1169187761214108,3.1073969817330074,3.107213898615316,3.107213898615316,3.107213898615316,3.107213898615316,3.107213898615316,3.107213898615316,3.107213898615316,3.107213898615316,3.107213898615316,3.107213898615316,3.107213898615316,3.107213898615316,3.107213898615316,3.107213898615316,3.107213898615316,3.107213898615316,3.107213898615316,3.107213898615316,3.107213898615316,3.107213898615316,3.107213898615316,3.107213898615316,3.107213898615316,3.107213898615316,3.1168272094153213,3.1168272094153213,3.1168272094153213,3.1168272094153213,3.1168272094153213,3.1168272094153213,3.1168272094153213,3.1168272094153213,3.1168272094153213,3.1168272094153213,3.1168272094153213,3.1168272094153213,3.1168272094153213,3.1168272094153213,3.1168272094153213,3.1168272094153213,3.1168272094153213,3.1168272094153213,3.1168272094153213,3.1168272094153213,3.1168272094153213,3.1168272094153213,3.1168272094153213,3.1168272094153213,3.1168272094153213,3.1168272094153213,3.1168272094153213,3.1264422977150232,3.1264422977150232,3.1264422977150232,3.1264422977150232,3.1264422977150232,3.1264422977150232,3.1264422977150232,3.1264422977150232,3.1264422977150232,3.1264422977150232,3.141592653589793]],"response_history":["3"],"rt":10276,"trial_type":"polygon-arrow-question","trial_index":0,"trial_index_global":11,"time_elapsed":187523,"internal_chunk_id":"0-0.3 -0"},{"nsides":6,"feedback":"Correct! 3 <img src=./images/hexagon_symbol.png style=width:14px;height:14px> 0 = 3 because 0 steps clockwise on the hexagon from 3 brings us to 3","orientation_history":[0],"rt":3613,"trial_type":"polygon-arrow-feedback","trial_index":0,"trial_index_global":12,"time_elapsed":191137,"internal_chunk_id":"0-0.3-0"},{"nsides":6,"question":"What is 4 <img src=./images/hexagon_symbol.png style=width:14px;height:14px> 4? <br /><br /> (Remember, to perform <img src=./images/hexagon_symbol.png style=width:14px;height:14px>, you can use the interactive diagram on the right, or perform the operation in your mind. Point the arrow at the first number on the hexagon, then move the arrow the second number of points clockwise around the hexagon. The number the arrow arrives at is your result.)","response_type":"free","response_choices":[],"correct_response":"2","response":"4","explain":false,"explanation":"","explanation_history":[],"orientation_history":[[0],[0,0,0,0,0,0,0,0,0,0.07989769510342648,0.21421913705639484,0.3741322602146142,0.44013433291023407,0.47633897832186767,0.47633897832186767,0.4903786174136491,0.4903786174136491,0.5124300502173587,0.5347243620843554,0.5799664383187394,0.6388794196061683,0.6618823171388354,0.7081605059759761,0.7658741195849418,0.819763800661365,0.8629092281874351,0.8906360553643631,0.8906360553643631,0.9024880025857347,0.9024880025857347,0.9024880025857347,0.9232355769364087,0.9354382106309506,0.9561664050623124,0.9642784832011916,0.9845430654588838,1.0172477153440251,1.0635693812507208,1.0956175908233285,1.1203859385893236,1.1260377981122276,1.1260377981122276,1.1260377981122276,1.1260377981122276,1.1260377981122276,1.1260377981122276,1.1260377981122276,1.1260377981122276,1.1260377981122276,1.1260377981122276,1.1260377981122276,1.1260377981122276,1.1260377981122276,1.1260377981122276,1.1388080017195787,1.1388080017195787,1.1388080017195787,1.1388080017195787,1.1388080017195787,1.1388080017195787,1.1388080017195787,1.16476597786847,1.204712419409416,1.322925485989522,1.4262447935807194,1.5259532249015673,1.6643917952711889,1.7270160706433384,1.7400297573306087,1.7629370330528031,1.788150249821104,1.8253662209065626,1.8696612081451702,1.904562803131362,1.9339054114607888,1.9666642938513035,1.9879788948940944,1.9984761234861614,2.0088657105094723,2.019147094784819,2.0293198182469108,2.0393835224045573,2.0493379447264393,2.068918351477552,2.0785442574360005,2.088060717148705,2.088060717148705,2.088060717148705,2.088060717148705,2.088060717148705,2.088060717148705,2.088060717148705,2.088060717148705,2.088060717148705,2.088060717148705,2.088060717148705,2.088060717148705,2.088060717148705,2.088060717148705,2.088060717148705,2.088060717148705,2.088060717148705,2.1219419188643127,2.21477774294798,2.269493392888315,2.3576818465571296,2.413208856449096,2.5102919961403165,2.601531983517312,2.7468541710096797,2.7715405130652795,2.809912893158899,2.847435494973823,2.8816011942423287,2.9367878876765854,2.971948111999111,3.01537941318661,3.0582500659083824,3.0687527200774336,3.0687527200774336,3.079593294089056,3.079593294089056,3.1004168375883543,3.121142040665567,3.141435815448043,3.1719812901686253,3.1914660034644977,3.2014930147200693,3.2203926542932684,3.229090636658403,3.238842186192521,3.238842186192521,3.238842186192521,3.238842186192521,3.238842186192521,3.238842186192521,3.238842186192521,3.238842186192521,3.238842186192521,3.238842186192521,3.290686627311802,3.3850005786389827,3.5924968050741857,3.7446258034784994,3.8235120623635184,3.850511539520484,3.850511539520484,3.850511539520484,3.850511539520484,3.850511539520484,3.857289947819733,3.857289947819733,3.8768788685013176,3.8962312909167722,3.9026006315354356,3.946820999686157,3.9644482578151288,3.9710911386275387,3.9710911386275387,3.9768018343805713,3.9768018343805713,3.9891308160301864,4.0068885120906685,4.0228234181967455,4.039814684563241,4.063333090847879,4.091322707378849,4.107324624139519,4.125652510581816,4.129974471785674,4.129974471785674,4.129974471785674,4.129974471785674,4.129974471785674,4.129974471785674,4.129974471785674,4.129974471785674,4.141209954043637,4.155333308696182,4.159440753107598,4.163490389072683,4.170572142416175,4.170572142416175,4.170572142416175,4.170572142416175,4.170572142416175,4.170572142416175,4.170572142416175,4.170572142416175,4.170572142416175,4.170572142416175,4.170572142416175,4.170572142416175,4.170572142416175,4.170572142416175,4.170572142416175,4.170572142416175,4.170572142416175,4.170572142416175,4.170572142416175,4.170572142416175,4.170572142416175,4.170572142416175,4.170572142416175,4.170572142416175,4.159440753107598,4.152382673482377,4.148242186925815,4.148242186925815,4.148242186925815,4.148242186925815,4.148242186925815,4.144042807655474,4.139783421487762,4.139783421487762,4.128335128991928,4.128335128991928,4.128335128991928,4.128335128991928,4.128335128991928,4.128335128991928,4.128335128991928,4.128335128991928,4.128335128991928,4.128335128991928,4.128335128991928,4.123920610685428,4.123920610685428,4.119442710414191,4.119442710414191,4.119442710414191,4.119442710414191,4.119442710414191,4.119442710414191,4.119442710414191,4.119442710414191,4.119442710414191,4.119442710414191,4.119442710414191,4.119442710414191,4.119442710414191,4.119442710414191,4.119442710414191,4.1887902047863905]],"response_history":["4"],"rt":7770,"trial_type":"polygon-arrow-question","trial_index":0,"trial_index_global":13,"time_elapsed":198907,"internal_chunk_id":"0-0.3-0"},{"nsides":6,"feedback":"Sorry, that was incorrect. 4 <img src=./images/hexagon_symbol.png style=width:14px;height:14px> 4 = 2 because 4 steps clockwise on the hexagon from 4 brings us to 2","orientation_history":[0],"rt":5063,"trial_type":"polygon-arrow-feedback","trial_index":0,"trial_index_global":14,"time_elapsed":203971,"internal_chunk_id":"0-0.3-0"},{"nsides":6,"question":"What is 1 <img src=./images/hexagon_symbol.png style=widt h:14px;h eight:14px> 3? <br /><br /> (Remember, to perform <img src=./images/hexagon_symbol.png style=width:14px;height:14px>, you can use the interactive diagram on the right, or perform the operation in your mind. Point the arrow at the first number on the hexagon, then move the arrow the second number of points clockwise around the hexagon. The number the arrow arrives at is your result.)","response_type":"free","response_choices":[],"correct_response":"4","response":"3","explain":false,"explanation":"","explanation_history":[],"orientation_history":[[0],[0,-6.268034951304816,-6.2528845954300465,-6.2528845954300465,-6.2528845954300465,-6.2528845954300465,-6.2528845954300465,-6.2528845954300465,-6.2528845954300465,-6.2528845954300465,-6.20657399542205,-6.175988102441409,-6.126137896700652,-6.108121828146597,-6.076850491707802,-6.042433707468792,-6.007432559557476,-5.99193793190938,-5.961358631903134,-5.9412082983748755,-5.9412082983748755,-5.9412082983748755,-5.9412082983748755,-5.920648988386497,-5.890504755881278,-5.848154994099264,-5.797141092324113,-5.775198554311215,-5.7609364469124795,-5.724845375016988,-5.675607597872938,-5.618164501892869,-5.515591885521666,-5.471648219224635,-5.407509631996606,-5.395898449231383,-5.395898449231383,-5.374366197046912,-5.362341310979414,-5.352934250751456,-5.343751772387155,-5.322723664749149,-5.301837214603396,-5.2729969420331555,-5.252732359775464,-5.237658124780504,-5.218148405358136,-5.218148405358136,-5.218148405358136,-5.218148405358136,-5.218148405358136,-5.218148405358136,-5.218148405358136,-5.218148405358136,-5.218148405358136,-5.218148405358136,-5.218148405358136,-5.218148405358136,-5.218148405358136,-5.218148405358136,-5.218148405358136,-5.218148405358136,-5.218148405358136,-5.218148405358136,-5.218148405358136,-5.218148405358136,-5.218148405358136,-5.218148405358136,-5.218148405358136,-5.218148405358136,-5.218148405358136,-5.218148405358136,-5.218148405358136,-5.218148405358136,-5.218148405358136,-5.218148405358136,-5.218148405358136,-5.218148405358136,-5.218148405358136,-5.218148405358136,-5.218148405358136,-5.218148405358136,-5.218148405358136,-5.218148405358136,-5.218148405358136,-5.218148405358136,-5.218148405358136,-5.218148405358136,-5.218148405358136,-5.218148405358136,-5.218148405358136,-5.218148405358136,-5.218148405358136,-5.218148405358136,-5.218148405358136,-5.218148405358136,-5.218148405358136,-5.218148405358136,-5.218148405358136,-5.218148405358136,-5.218148405358136,-5.218148405358136,-5.218148405358136,-5.218148405358136,-5.218148405358136,-5.218148405358136,-5.218148405358136,-5.218148405358136,-5.218148405358136,-5.218148405358136,-5.218148405358136,-5.218148405358136,-5.218148405358136,-5.218148405358136,-5.218148405358136,-5.218148405358136,-5.218148405358136,-5.218148405358136,-5.218148405358136,-5.23039433001755,-5.23039433001755,-5.23039433001755,-5.23039433001755,-5.23039433001755,-5.23039433001755,-5.23039433001755,-5.23039433001755,-5.23039433001755,-5.23039433001755,-5.23039433001755,-5.23039433001755,-5.242465780047195,-5.266086482931279,-5.266086482931279,-5.266086482931279,-5.266086482931279,-5.266086482931279,-5.266086482931279,-5.266086482931279,-5.266086482931279,-5.266086482931279,-5.266086482931279,-5.266086482931279,-5.266086482931279,-5.266086482931279,-5.266086482931279,-5.266086482931279,-5.266086482931279,-5.266086482931279,-5.266086482931279,-5.266086482931279,-5.266086482931279,-5.266086482931279,-5.266086482931279,-5.266086482931279,-5.266086482931279,-5.266086482931279,-5.266086482931279,-5.266086482931279,-5.266086482931279,-5.266086482931279,-5.266086482931279,-5.266086482931279,-5.266086482931279,-5.266086482931279,-5.266086482931279,-5.266086482931279,-5.266086482931279,-5.266086482931279,-5.266086482931279,-5.266086482931279,-5.266086482931279,-5.266086482931279,-5.266086482931279,-5.266086482931279,-5.266086482931279,-5.266086482931279,-5.266086482931279,-5.266086482931279,-5.266086482931279,-5.266086482931279,-5.266086482931279,-5.266086482931279,-5.266086482931279,-5.266086482931279,-5.266086482931279,-5.266086482931279,-5.266086482931279,-5.266086482931279,-5.266086482931279,-5.266086482931279,-5.266086482931279,-5.266086482931279,-5.266086482931279,-5.266086482931279,-5.266086482931279,-5.266086482931279,-5.266086482931279,-5.266086482931279,-5.266086482931279,-5.266086482931279,-5.266086482931279,-5.266086482931279,-5.266086482931279,-5.266086482931279,-5.266086482931279,-5.266086482931279,-5.266086482931279,-5.266086482931279,-5.266086482931279,-5.266086482931279,-5.266086482931279,-5.266086482931279,-5.266086482931279,-5.266086482931279,-5.266086482931279,-5.266086482931279,-5.266086482931279,-5.266086482931279,-5.218148405358136,-5.115462954089149,-4.963490673660845,-4.857614068485871,-4.738881203608508,-4.577809698491581,-4.504843022993997,-4.367912457462082,-4.306003045382745,-4.258585809128034,-4.2188861931312625,-4.2188861931312625,-4.2188861931312625,-4.2188861931312625,-4.2188861931312625,-4.2188861931312625,-4.2188861931312625,-4.2188861931312625,-4.2188861931312625,-4.2188861931312625,-4.2188861931312625,-4.2188861931312625,-4.2188861931312625,-4.2188861931312625,-4.2188861931312625,-4.2188861931312625,-4.2188861931312625,-4.2188861931312625,-4.2188861931312625,-4.2188861931312625,-4.2188861931312625,-4.2188861931312625,-4.2188861931312625,-4.2188861931312625,-4.2188861931312625,-4.2188861931312625,-4.2188861931312625,-4.2188861931312625,-4.2188861931312625,-4.2188861931312625,-4.2188861931312625,-4.2188861931312625,-4.2188861931312625,-4.2188861931312625,-4.2188861931312625,-4.2188861931312625,-4.2188861931312625,-4.2188861931312625,-4.2188861931312625,-4.2188861931312625,-4.2188861931312625,-4.2188861931312625,-4.2188861931312625,-4.2188861931312625,-4.223882582675005,-4.253292899421923,-4.304180605327987,-4.401312586045711,-4.625074995550262,-4.69723862450992,-4.745394137569836,-4.805250349209966,-4.864340424441026,-4.922276911002525,-5.015326191626327,-5.05194427652086,-5.084114342240948,-5.120092550642861,-5.130438792941555,-5.135250824989049,-5.145581306186534,-5.145581306186534,-5.145581306186534,-5.145581306186534,-5.145581306186534,-5.145581306186534,-5.145581306186534,-5.145581306186534,-5.1659366956197985,-5.191179993429501,-5.226120175263045,-5.297779755888928,-5.361284787336604,-5.425787540574531,-5.5232648255887415,-5.729660437958586,-5.969536019718637,-6.106943046767236,-6.13139178881373,-6.156005988878828,-6.156005988878828,-6.1683662988136545,-6.180757238355355,-6.205616141308859,-6.2555356022854545,-0.0597094918359975,-0.14794493633547123,-0.2666215113985828,-0.4146119232219192,-0.5407204532793877,-0.6436556802427065,-0.8053211380559038,-0.856242098716919,-0.8883398359417729,-0.9050190920004102,-0.9050190920004102,-0.9050190920004102,-0.9050190920004102,-0.9050190920004102,-0.9050190920004102,-0.9050190920004102,-0.9216232512567046,-0.9381437307730529,-0.9545722164223776,-0.9709006848425652,-0.9871214231890866,-1.0032270465997808,-1.0233234596872807,-1.0292536066937066,-1.0451576490033512,-1.0451576490033512,-1.0553655426952746,-1.0553655426952746,-1.0553655426952746,-1.0553655426952746,-1.0553655426952746,-1.0553655426952746,-1.0553655426952746,-1.0553655426952746,-1.0553655426952746,-1.0553655426952746,-1.0553655426952746,-1.0553655426952746,-1.0553655426952746,-1.0553655426952746,-1.0815275404146245,-1.3076911261044355,-1.3945540663825469,-1.4694403972443482,-1.5309596288645277,-1.617296141559386,-1.6906227207740496,-1.7409939209158214,-1.7975665396045315,-1.8495153059525942,-1.8532076956579324,-1.8532076956579324,-1.8532076956579324,-1.865348915462583,-1.865348915462583,-1.893524159160405,-1.905501572777224,-1.9291431170266042,-1.9455638348509785,-1.9622127975146686,-1.9907299220821724,-2.0478572377596933,-2.087370038178932,-2.093867672531605,-2.093867672531605,-2.093867672531605,-2.093867672531605,-2.093867672531605,-2.093867672531605,-2.093867672531605,-2.1047988735991368,-2.1047988735991368,-2.1047988735991368,-2.1047988735991368,-2.1047988735991368,-2.1047988735991368,-2.1047988735991368,-2.1047988735991368,-2.1047988735991368,-2.1047988735991368,-2.1047988735991368,-2.1115167800742842,-2.1620288572960895,-2.2612141486053376,-2.3515700613493005,-2.538439694167456,-2.7555510089023607,-2.848142638709912,-2.8855958424736117,-2.993890765418349,-3.063035345748191,-3.1264422977150232,-3.1711885291696387,-3.1860730108461928,-3.1860730108461928,-3.1860730108461928,-3.1860730108461928,-3.185198120430746,-3.185198120430746,-3.185198120430746,-3.1998396236166347,-3.229022150133318,-3.2724545554262985,-3.3011144967232626,-3.3153394785926458,-3.3153394785926458,-3.3153394785926458,-3.3153394785926458,-3.3153394785926458,-3.3153394785926458,-3.3153394785926458,-3.3153394785926458,-3.3153394785926458,-3.3153394785926458,-3.3153394785926458,3.141592653589793]],"response_history":["3"],"rt":10449,"trial_type":"polygon-arrow-question","trial_index":0,"trial_index_global":15,"time_elapsed":214420,"internal_chunk_id":"0-0.3-0"},{"nsides":6,"feedback":"Sorry, that was incorrect. 1 <img src=./images/hexagon_symbol.png style=width:14px;height:14px> 3 = 4 because 3 steps clockwise on the hexagon from 1 brings us to 4","orientation_history":[0],"rt":3597,"trial_type":"polygon-arrow-feedback","trial_index":0,"trial_index_global":16,"time_elapsed":218017,"internal_chunk_id":"0-0.3-0"},{"nsides":6,"question":"What is 4 <img src=./images/hexagon_symbol.png style=width:14px;height:14px> 3? <br /><br /> (Remember, to perform <img src=./images/hexagon_symbol.png style=width:14px;height:14px>, you can use the interactive diagram on the right, or perform the operation in your mind. Point the arrow at the first number on the hexagon, then move the arrow the second number of points clockwise around the hexagon. The number the arrow arrives at is your result.)","response_type":"free","response_choices":[],"correct_response":"1","response":"3","explain":false,"explanation":"","explanation_history":[],"orientation_history":[[0],[0,0,0,0,0,0.04474623145461565,0.07561314323682988,0.10727885564840278,0.15499674192394086,0.21866894587394192,0.3019511618302493,0.42794849632148213,0.5349550737860964,0.6184279943725193,0.7419472680059174,0.8279256980172325,0.8983178241500508,0.9588938923602298,0.9750117791718377,1.0280458284151859,1.0650050112004932,1.0714496051147664,1.1013684353504287,1.1186424645091209,1.1186424645091209,1.1186424645091209,1.1186424645091209,1.1241925217890878,1.1788488013263838,1.2036224929766774,1.21897964734921,1.21897964734921,1.21897964734921,1.21897964734921,1.21897964734921,1.21897964734921,1.21897964734921,1.21897964734921,1.21897964734921,1.21897964734921,1.21897964734921,1.21897964734921,1.21897964734921,1.21897964734921,1.21897964734921,1.21897964734921,1.21897964734921,1.21897964734921,1.21897964734921,1.21897964734921,1.21897964734921,1.2301800863765835,1.2679114584199251,1.3140879963615109,1.3521273809209546,1.3996477213787146,1.3996477213787146,1.3996477213787146,1.3996477213787146,1.3996477213787146,1.3996477213787146,1.3996477213787146,1.3996477213787146,1.3996477213787146,1.3996477213787146,1.4135682758183277,1.4856369341751898,1.5828439366490825,1.6529638491565966,1.7454685258031362,1.7681918866447772,1.8018869939907936,1.8018869939907936,1.8018869939907936,1.8240620930256495,1.856847768512215,1.899589018299851,1.9554010416171101,1.9857020844857711,1.9857020844857711,2.0001436681560625,2.0100585266229842,2.0147420518828936,2.0147420518828936,2.0147420518828936,2.0147420518828936,2.0147420518828936,2.0147420518828936,2.0147420518828936,2.0147420518828936,2.0147420518828936,2.0147420518828936,2.0147420518828936,2.0147420518828936,2.0147420518828936,2.0147420518828936,2.0147420518828936,2.0147420518828936,2.0147420518828936,2.0147420518828936,2.0147420518828936,2.0147420518828936,2.0147420518828936,2.0147420518828936,2.0147420518828936,2.0246403283164067,2.0246403283164067,2.0246403283164067,2.0246403283164067,2.0246403283164067,2.0246403283164067,2.0246403283164067,2.0246403283164067,2.0246403283164067,2.0246403283164067,2.0246403283164067,2.0246403283164067,2.0246403283164067,2.0246403283164067,2.0246403283164067,2.0246403283164067,2.0246403283164067,2.0246403283164067,2.0246403283164067,2.0246403283164067,2.0246403283164067,2.0246403283164067,2.0246403283164067,2.0246403283164067,2.0246403283164067,2.0246403283164067,2.0246403283164067,2.0246403283164067,2.0246403283164067,2.0246403283164067,2.0246403283164067,2.0246403283164067,2.0246403283164067,2.0246403283164067,2.0246403283164067,2.0246403283164067,2.0246403283164067,2.0246403283164067,2.0246403283164067,2.0246403283164067,2.0246403283164067,2.0246403283164067,2.0344439357957027,2.039370004324126,2.049148758173554,2.0789689446302266,2.1246507192666946,2.171337458173904,2.2097103117987835,2.2744101095743487,2.4061528859142878,2.540518899092044,2.718738727456852,2.7880506938386747,2.8091663482056957,2.8233756533910124,2.8233756533910124,2.851190711041352,2.851190711041352,2.86177554506655,2.864794494957803,2.875340604438868,2.8992594869367783,2.9205455909147746,2.9312667799247354,2.9441970937399127,2.988943325194528,3.0104810051072466,3.0104810051072466,3.0104810051072466,3.0104810051072466,3.0104810051072466,3.022592360207013,3.022592360207013,3.022592360207013,3.022592360207013,3.0333220627293374,3.0344773302375616,3.0344773302375616,3.045118878407206,3.045118878407206,3.055782388893291,3.0672617664221278,3.077849341057106,3.077849341057106,3.0890095919788516,3.0890095919788516,3.0890095919788516,3.0890095919788516,3.0890095919788516,3.0995122461479028,3.0995122461479028,3.0995122461479028,3.0995122461479028,3.0995122461479028,3.0995122461479028,3.0995122461479028,3.0995122461479028,3.0995122461479028,3.0995122461479028,3.0995122461479028,3.0995122461479028,3.0995122461479028,3.0995122461479028,3.0995122461479028,3.0995122461479028,3.0995122461479028,3.0995122461479028,3.0995122461479028,3.0995122461479028,3.0995122461479028,3.0995122461479028,3.0995122461479028,3.0995122461479028,3.0995122461479028,3.0995122461479028,3.0995122461479028,3.0995122461479028,3.0995122461479028,3.0995122461479028,3.0995122461479028,3.0995122461479028,3.0995122461479028,3.0995122461479028,3.0995122461479028,3.0995122461479028,3.0995122461479028,3.0995122461479028,3.0995122461479028,3.0995122461479028,3.0995122461479028,3.0995122461479028,3.0995122461479028,3.0995122461479028,3.0995122461479028,3.0995122461479028,3.0995122461479028,3.0995122461479028,3.0995122461479028,3.0995122461479028,3.0995122461479028,3.0995122461479028,3.0995122461479028,3.0995122461479028,3.0995122461479028,3.0995122461479028,3.0995122461479028,3.0995122461479028,3.0995122461479028,3.0995122461479028,3.0995122461479028,3.0995122461479028,3.0995122461479028,3.0995122461479028,3.0995122461479028,3.0995122461479028,3.0995122461479028,3.0995122461479028,3.0995122461479028,3.0995122461479028,3.0995122461479028,3.0995122461479028,3.0995122461479028,3.0995122461479028,3.0995122461479028,3.0995122461479028,3.0995122461479028,3.0995122461479028,3.0995122461479028,3.0995122461479028,3.0995122461479028,3.0995122461479028,3.0995122461479028,3.0995122461479028,3.0995122461479028,3.0995122461479028,3.0995122461479028,3.0995122461479028,3.0995122461479028,3.0995122461479028,3.0995122461479028,3.0995122461479028,3.0995122461479028,3.0995122461479028,3.0995122461479028,3.0995122461479028,3.0995122461479028,3.0995122461479028,3.0995122461479028,3.0995122461479028,3.0995122461479028,3.0995122461479028,3.0995122461479028,3.0995122461479028,3.0995122461479028,3.0995122461479028,3.0995122461479028,3.0995122461479028,3.0995122461479028,3.0995122461479028,3.0995122461479028,3.0995122461479028,3.0995122461479028,3.0995122461479028,3.0995122461479028,3.0995122461479028,3.0995122461479028,3.0995122461479028,3.0995122461479028,3.0995122461479028,3.0995122461479028,3.0995122461479028,3.0995122461479028,3.0995122461479028,3.0995122461479028,3.0995122461479028,3.0995122461479028,3.0995122461479028,3.0995122461479028,3.0995122461479028,3.0995122461479028,3.0995122461479028,3.0995122461479028,3.0995122461479028,3.0995122461479028,3.0995122461479028,3.0995122461479028,3.0995122461479028,3.0995122461479028,3.0995122461479028,3.0995122461479028,3.0995122461479028,3.0995122461479028,3.0995122461479028,3.0995122461479028,3.0995122461479028,3.0995122461479028,3.0995122461479028,3.0995122461479028,3.0995122461479028,3.0995122461479028,3.0995122461479028,3.0995122461479028,3.0995122461479028,3.0995122461479028,3.0995122461479028,3.0995122461479028,3.0995122461479028,3.0995122461479028,3.0995122461479028,3.0995122461479028,3.0995122461479028,3.0995122461479028,3.0995122461479028,3.0995122461479028,3.0995122461479028,3.0995122461479028,3.0995122461479028,3.0995122461479028,3.0995122461479028,3.0995122461479028,3.0995122461479028,3.0995122461479028,3.0995122461479028,3.0995122461479028,3.0995122461479028,3.0995122461479028,3.0995122461479028,3.0995122461479028,3.0995122461479028,3.0995122461479028,3.0995122461479028,3.0995122461479028,3.0995122461479028,3.0995122461479028,3.0995122461479028,3.0995122461479028,3.110024197102015,3.110024197102015,3.120543131452747,3.120543131452747,3.120543131452747,3.120543131452747,3.120543131452747,3.120543131452747,3.120543131452747,3.120543131452747,3.120543131452747,3.120543131452747,3.120543131452747,3.120543131452747,3.120543131452747,3.120543131452747,3.120543131452747,3.120543131452747,3.120543131452747,3.120543131452747,3.120543131452747,3.141592653589793]],"response_history":["3"],"rt":11400,"trial_type":"polygon-arrow-question","trial_index":0,"trial_index_global":17,"time_elapsed":229417,"internal_chunk_id":"0-0.3-0"},{"nsides":6,"feedback":"Sorry, that was incorrect. 4 <img src=./images/hexagon_symbol.png style=width:14px;height:14px> 3 = 1 because 3 steps clockwise on the hexagon from 4 brings us to 1","orientation_history":[0],"rt":9381,"trial_type":"polygon-arrow-feedback","trial_index":0,"trial_index_global":18,"time_elapsed":238799,"internal_chunk_id":"0-0.3-0"},{"nsides":6,"question":"What is 0 <img src=./images/hexagon_symbol.png style=width:14px;height:14px> 5? <br /><br /> (Remember, to perform <img src=./images/hexagon_symbol.png style=width:14px;height:14px>, you can use the interactive diagram on the right, or perform the operation in your mind. Point the arrow at the first number on the hexagon, then move the arrow the second number of points clockwise around the hexagon. The number the arrow arrives at is your result.)","response_type":"free","response_choices":[],"correct_response":"5","response":"4","explain":false,"explanation":"","explanation_history":[],"orientation_history":[[0],[0,0,0.01491761967702443,0.030499014431492055,0.08312101230375424,0.14727456847329745,0.27457940697130323,0.5299396504614586,0.7492005123833021,1.0922244528040055,1.3658837738860958,1.5558720618048116,1.8188667934857312,2.0498134307243925,2.2115676880463475,2.488348580590663,2.6528170521049477,2.7609210873373637,2.855721538261288,2.8974364553227128,2.959025950768493,2.9987984700397083,3.0189785177668877,3.0348222623349708,3.0489034489969757,3.1025766651747873,3.1493917494413495,3.1715819840694977,3.182166893845425,3.181558251193862,3.1917935519340945,3.20179554451047,3.2106807004072033,3.219187009719355,3.2283572403627856,3.2273370407575372,3.2273370407575372,3.236227915373653,3.236227915373653,3.236227915373653,3.236227915373653,3.236227915373653,3.236227915373653,3.236227915373653,3.236227915373653,3.236227915373653,3.236227915373653,3.236227915373653,3.236227915373653,3.236227915373653,3.236227915373653,3.236227915373653,3.2164265627896587,3.2164265627896587,3.207301264544882,3.207301264544882,3.207301264544882,3.207301264544882,3.1979758533849987,3.1979758533849987,3.1878165512490098,3.177644595675022,3.177644595675022,3.1674620714675736,3.1674620714675736,3.1470737192862464,3.1266683885997084,3.1162520986687383,3.105838068563491,3.105838068563491,3.105838068563491,3.105838068563491,3.105838068563491,3.105838068563491,3.105838068563491,3.105838068563491,3.105838068563491,3.105838068563491,3.105838068563491,3.105838068563491,3.105838068563491,3.105838068563491,3.105838068563491,3.105838068563491,3.105838068563491,3.1162520986687383,3.1162520986687383,3.1266683885997084,3.1266683885997084,3.1266683885997084,3.1266683885997084,3.1370846785306776,3.1370846785306776,3.1370846785306776,3.1370846785306776,3.1370846785306776,3.1370846785306776,3.1370846785306776,3.1370846785306776,3.1370846785306776,3.1370846785306776,3.1370846785306776,3.1370846785306776,3.1370846785306776,3.1370846785306776,3.1370846785306776,3.1370846785306776,3.1370846785306776,3.1370846785306776,3.1370846785306776,3.1370846785306776,3.1370846785306776,3.1370846785306776,3.1370846785306776,3.1370846785306776,3.1370846785306776,3.1370846785306776,3.1370846785306776,3.1370846785306776,3.1370846785306776,3.1370846785306776,3.1370846785306776,3.1370846785306776,3.1370846785306776,3.1370846785306776,3.1370846785306776,3.1370846785306776,3.1370846785306776,3.1370846785306776,3.1370846785306776,3.1370846785306776,3.1370846785306776,3.1370846785306776,3.1370846785306776,3.1370846785306776,3.1370846785306776,3.1370846785306776,3.1370846785306776,3.1370846785306776,3.1370846785306776,3.1370846785306776,3.1370846785306776,3.1370846785306776,3.1370846785306776,3.1370846785306776,3.1370846785306776,3.1370846785306776,3.1370846785306776,3.1370846785306776,3.1370846785306776,3.1370846785306776,3.1370846785306776,3.1370846785306776,3.1370846785306776,3.1370846785306776,3.1370846785306776,3.1370846785306776,3.1370846785306776,3.1370846785306776,3.1370846785306776,3.1370846785306776,3.1370846785306776,3.1370846785306776,3.1370846785306776,3.1370846785306776,3.1370846785306776,3.1370846785306776,3.1370846785306776,3.1370846785306776,3.1370846785306776,3.1370846785306776,3.1370846785306776,3.1370846785306776,3.141592653589793],[3.141592653589793,3.141592653589793,3.141592653589793,3.141592653589793,3.141592653589793,3.141592653589793,3.141592653589793,3.141592653589793,3.141592653589793,3.141592653589793,3.141592653589793,3.141592653589793,3.141592653589793,3.141592653589793,3.141592653589793,3.141592653589793,3.141592653589793,3.141592653589793,3.141592653589793,3.141592653589793,3.141592653589793,3.141592653589793,3.141592653589793,3.141592653589793,3.141592653589793,3.141592653589793,3.141592653589793,3.141592653589793,3.141592653589793,3.141592653589793,3.141592653589793,3.141592653589793,3.141592653589793,3.141592653589793,3.141592653589793,3.141592653589793,3.141592653589793,3.109857280061335,3.093985597069545,3.078121906532877,3.030658209091883,2.9524404073347443,2.906364234803772,2.8502276506530775,2.797365720326816,2.7697601605515727,2.756154133980213,2.677449504490797,2.6149698376302606,2.5788271752171523,2.4800539446409164,2.4500088537724123,2.4099644103420914,2.4099644103420914,2.3910272804397104,2.3810025536087043,2.3711541207072173,2.352489156623733,2.3336331712089966,2.3244591166638866,2.306279301590908,2.288111495644866,2.288111495644866,2.261479454230942,2.243555017508656,2.225682524596224,2.2001041221171254,2.2001041221171254,2.1924872944472003,2.1751364559701893,2.1678572396818714,2.1607208755495275,2.1607208755495275,2.143840506079619,2.137030004220213,2.13035301863356,2.120441137071338,2.1139495545365303,2.1139495545365303,2.1139495545365303,2.1139495545365303,2.1139495545365303,2.1139495545365303,2.1139495545365303,2.1139495545365303,2.1139495545365303,2.1139495545365303,2.1139495545365303,2.1139495545365303,2.1139495545365303,2.1139495545365303,2.1139495545365303,2.0567100626432127,1.9918394250899745,1.9535678278512243,1.8920513410933488,1.8449398246712905,1.7931857028220723,1.6936614986976393,1.6425856277769826,1.5780022963634777,1.500119610169399,1.435536278755894,1.356892642793675,1.2784585615190973,1.1935053726847262,1.1083684418799304,1.0754133442656322,1.016969339438151,0.9966293832764883,0.9866420289460929,0.9767761509238915,0.9510583497188708,0.9415045002812736,0.9415045002812736,0.9415045002812736,0.9415045002812736,0.9415045002812736,0.9415045002812736,0.9415045002812736,0.9415045002812736,0.9415045002812736,0.9415045002812736,0.9415045002812736,0.9415045002812736,0.9415045002812736,0.9415045002812736,0.9415045002812736,0.9415045002812736,0.9415045002812736,0.9415045002812736,0.9415045002812736,0.9415045002812736,0.9415045002812736,0.9255048077545217,0.8036211855909328,0.6705215579805488,0.4946569906979619,0.3551403442025698,0.3257142935475079,0.27583173487687507,0.2618536138802914,0.1893116891465605,0.1192799693929012,0.08475608716619187,0.07424898446114159,0.06371834080425587,0.06371834080425587,0.053166419921263586,0.04181591696008158,0.03133874436845385,0.03133874436845385,0.03133874436845385,0.03133874436845385,0.03133874436845385,0.03133874436845385,0.03133874436845385,0.03133874436845385,0.03133874436845385,0.03133874436845385,0.03133874436845385,0.03133874436845385,0.03133874436845385,0.03133874436845385,0.03133874436845385,0.03133874436845385,0.03133874436845385,0.020847688082483495,6.194692775829035,6.042064540697632,5.721600864195062,5.5673982735193475,5.441666361080961,5.295839844968206,5.213955789585605,5.1487854907318535,5.095880942411463,5.0791760525226515,5.0791760525226515,5.0791760525226515,5.0791760525226515,5.0791760525226515,5.0791760525226515,5.0791760525226515,5.0791760525226515,5.0791760525226515,5.0791760525226515,5.0791760525226515,5.0791760525226515,5.0791760525226515,5.0791760525226515,5.0791760525226515,5.0791760525226515,5.0791760525226515,5.0791760525226515,5.0791760525226515,5.0791760525226515,5.042880484563002,4.976931964742151,4.908221094266815,4.816651024893615,4.733795015701166,4.702155668842463,4.6915227440335014,4.680653606856231,4.658185478270406,4.634708951048112,4.610999033127663,4.586812394226896,4.573917934207096,4.537070213209764,4.444197464656314,4.3552929598395895,4.296048892034018,4.270096158814381,4.270096158814381,4.270096158814381,4.270096158814381,4.270096158814381,4.270096158814381,4.270096158814381,4.260248255653489,4.250486305505465,4.250486305505465,4.250486305505465,4.250486305505465,4.250486305505465,4.250486305505465,4.250486305505465,4.236234396955132,4.226575083763036,4.207527608725563,4.188844430867533,4.179640220052642,4.179640220052642,4.179640220052642,4.179640220052642,4.179640220052642,4.179640220052642,4.179640220052642,4.179640220052642,4.179640220052642,4.179640220052642,4.179640220052642,4.1887902047863905]],"response_history":["4"],"rt":10432,"trial_type":"polygon-arrow-question","trial_index":0,"trial_index_global":19,"time_elapsed":249231,"internal_chunk_id":"0-0.3-0"},{"nsides":6,"feedback":"Sorry, that was incorrect. 0 <img src=./images/hexagon_symbol.png style=width:14px;height:14px> 5 = 5 because 5 steps clockwise on the hexagon from 0 b rings us  to 5","orientation_history":[0],"rt":3969,"trial_type":"polygon-arrow-feedback","trial_index":0,"trial_index_global":20,"time_elapsed":253201,"internal_chunk_id":"0-0.3-0"},{"nsides":6,"question":"What is 2 <img src=./images/hexagon_symbol.png style=width:14px;height:14px> 5? <br /><br /> (Remember, to perform <img src=./images/hexagon_symbol.png style=width:14px;height:14px>, you can use the interactive diagram on the right, or perform the operation in your mind. Point the arrow at the first number on the hexagon, then move the arrow the second number of points clockwise around the hexagon. The number the arrow arrives at is your result.)","response_type":"free","response_choices":[],"correct_response":"1","response":"4","explain":false,"explanation":"","explanation_history":[],"orientation_history":[[0],[0,0,0,0,0,0,0,0.03493202106643167,0.05298480630925462,0.05418889964666529,0.05418889964666529,0.07162365781060132,0.07162365781060132,0.11303908869220147,0.14278357919461127,0.26590018428156204,0.4624807483868676,0.652417735838794,0.9402616918809411,1.2331740894064644,1.5023415821921648,1.8463814382809738,2.142927247350674,2.240654154709393,2.240654154709393,2.240654154709393,2.2672822418974357,2.3837737025920855,2.530311095119271,2.682272634178265,2.8217200312578585,2.896489037321008,2.945867470805525,2.9931694383013294,3.0535573416383457,3.103502405271284,3.156638950161046,3.1669347332563236,3.1669347332563236,3.1669347332563236,3.1669347332563236,3.1673635496965917,3.1682485052177873,3.157967853033257,3.157967853033257,3.157967853033257,3.157967853033257,3.157967853033257,3.157967853033257,3.157967853033257,3.157967853033257,3.157967853033257,3.157967853033257,3.157967853033257,3.157967853033257,3.1583181157159563,3.1583181157159563,3.1583181157159563,3.1583181157159563,3.1583181157159563,3.1583181157159563,3.1583181157159563,3.1583181157159563,3.1583181157159563,3.1583181157159563,3.1583181157159563,3.147456677439796,3.147456677439796,3.147456677439796,3.147456677439796,3.147456677439796,3.147456677439796,3.147456677439796,3.147456677439796,3.147456677439796,3.147456677439796,3.147456677439796,3.147456677439796,3.147456677439796,3.147456677439796,3.147456677439796,3.147456677439796,3.147456677439796,3.147456677439796,3.147456677439796,3.147456677439796,3.147456677439796,3.147456677439796,3.147456677439796,3.147456677439796,3.147456677439796,3.147456677439796,3.147456677439796,3.147456677439796,3.147456677439796,3.147456677439796,3.147456677439796,3.147456677439796,3.147456677439796,3.147456677439796,3.147456677439796,3.147456677439796,3.147456677439796,3.147456677439796,3.147456677439796,3.147456677439796,3.147456677439796,3.147456677439796,3.147456677439796,3.147456677439796,3.147456677439796,3.147456677439796,3.147456677439796,3.147456677439796,3.147456677439796,3.147456677439796,3.147456677439796,3.147456677439796,3.147456677439796,3.147456677439796,3.147456677439796,3.147456677439796,3.147456677439796,3.147456677439796,3.147456677439796,3.147456677439796,3.147456677439796,3.1144854883400406,3.0669651478822804,2.985619246201373,2.766950300327431,2.5332936171661244,2.204795093215054,2.066480770973412,1.971626904542505,1.946329771928317,1.9408073132011803,1.9408073132011803,1.9408073132011803,1.9408073132011803,1.9408073132011803,1.9273230904798608,1.9086277898842283,1.895021763312869,1.895021763312869,1.895021763312869,1.895021763312869,1.895021763312869,1.895021763312869,1.895021763312869,1.895021763312869,1.895021763312869,1.895021763312869,1.895021763312869,1.895021763312869,1.895021763312869,1.8312519187781717,1.6988500931913229,1.4566506905470975,1.3131717759388637,1.181427497696629,1.113131478285663,1.0698899219505709,1.0386939731913587,1.0184891861983754,0.9637674765870622,0.8938814749524197,0.861573329269065,0.8381209838599328,0.8221095420166,0.8221095420166,0.8071027697483816,0.8071027697483816,0.8071027697483816,0.8071027697483816,0.8071027697483816,0.8071027697483816,0.8071027697483816,0.8071027697483816,0.8071027697483816,0.8071027697483816,0.8071027697483816,0.8071027697483816,0.8071027697483816,0.8071027697483816,0.8071027697483816,0.8071027697483816,0.8071027697483816,0.7313770595346757,0.6384985629787645,0.5379827094800078,0.39054681966435534,0.31694852993495903,0.2348375764296189,0.22335991697187052,0.20021328930499638,0.1492769944228367,0.08839992893586524,0.05298480630925462,0.018206028595217694,0.006851677849851079,-0.004508535727499208,6.244845495601971,6.233992628309549,6.211815118942079,6.211815118942079,6.211815118942079,6.211815118942079,6.211815118942079,6.211815118942079,6.211815118942079,6.188823521550464,6.154162642597312,6.072155197071126,6.022334961060932,5.967947390130444,5.857667515562959,5.759002999176969,5.644114294253731,5.5269300765648754,5.4729066954999315,5.463735645717369,5.454895011603083,5.454895011603083,5.454895011603083,5.4369008450158205,5.427424004549616,5.409316007059854,5.3831388687226855,5.365329455329032,5.329943180362044,5.294936190871437,5.253812832510405,5.2141664067696745,5.197781562264482,5.18718535558097,5.170917180184807,5.170917180184807,5.170917180184807,5.170917180184807,5.170917180184807,5.170917180184807,5.117180646525934,5.037133537811213,4.8500610799324555,4.7903585100222354,4.708011044107931,4.627660808091855,4.570747876632372,4.492499317800352,4.374766742996258,4.265568309992523,4.201206066316479,4.135830302410094,4.113964231179545,4.108514693845333,4.10031815609542,4.10031815609542,4.10031815609542,4.092211790526671,4.092211790526671,4.092211790526671,4.092211790526671,4.092211790526671,4.086600394315832,4.086600394315832,4.086600394315832,4.086600394315832,4.086600394315832,4.086600394315832,4.086600394315832,4.086600394315832,4.11130020196134,4.154327887466021,4.181272333706857,4.209618065581631,4.21885191503015,4.228174887204599,4.228174887204599,4.228174887204599,4.228174887204599,4.228174887204599,4.228174887204599,4.228174887204599,4.228174887204599,4.228174887204599,4.228174887204599,4.228174887204599,4.228174887204599,4.228174887204599,4.228174887204599,4.228174887204599,4.228174887204599,4.228174887204599,4.228174887204599,4.21885191503015,4.164793230134094,4.144213806524656,4.135830302410094,4.135830302410094,4.135830302410094,4.135830302410094,4.135830302410094,4.135830302410094,4.135830302410094,4.135830302410094,4.135830302410094,4.135830302410094,4.135830302410094,4.135830302410094,4.135830302410094,4.135830302410094,4.135830302410094,4.135830302410094,4.144213806524656,4.144213806524656,4.152684841090777,4.152684841090777,4.161243549302741,4.16