[{"nsides":6,"instructions":"Let's define a new operation <img src=./images/hexagon_symbol.png style=width:14px;height:14px>. This operation will give us a way of combining two of the numbers 0, 1, 2, 3, 4, 5 to get another one of them back. Consider the hexagon at the right, where I've labeled each point with one of the numbers. To perform <img src=./images/hexagon_symbol.png style=width:14px;height:14px>, you can use the interactive diagram on the right, or perform the operation in your mind. Point the arrow at the first number on the hexagon by clicking, then click (or click and drag) to move the arrow the second number of points clockwise around the hexagon. The number the arrow arrives at is your result. (The operation is called <img src=./images/hexagon_symbol.png style=width:14px;height:14px> because it uses the hexagon, which has 6 sides.) <br /><br />For example, 3 <img src=./images/hexagon_symbol.png style=width:14px;height:14px> 5 =  2, becau se 5 steps clockwise from 3 on the hexagon brings us to 2. So 3 <img src=./images/hexagon_symbol.png style=width:14px;height:14px> 5 = 2.<br /><br />Similarly, 1 <img src=./images/hexagon_symbol.png style=width:14px;height:14px> 4 = 5, because 4 steps clockwise from 1 brings us to 5. <br /><br />Click Continue when you're ready to move on.","orientation_history":[0],"rt":30607,"trial_type":"polygon-arrow-instructions","trial_index":0,"trial_index_global":1,"time_elapsed":3766511,"internal_chunk_id":"0-0"},{"nsides":6,"instructions":"Do you see how <img src=./images/hexagon_symbol.png style=width:14px;height:14px> works? By labeling the points of the hexagon with the numbers from 0 to 5, we ensure that when we combine two numbers under <img src=./images/hexagon_symbol.png style=width:14px;height:14px>, we only produce numbers between 0 and 5.<br /><br />Click Continue when you are ready to move on.","orientation_history":[0],"rt":32367,"trial_type":"polygon-arrow-instructions","trial_index":0,"trial_index_global":2,"time_elapsed":3798880,"internal_chunk_id":"0-0"},{"nsides":6,"question":"Now try one on your own! What is 4 <img src=./images/hexagon_symbol.png style=width:14px;height:14px> 5? <br /><br /> (Remember, to perform <img src=./images/hexagon_symbol.png style=width:14px;height:14px>, you can use the interactive diagram on the right, or perform the operation in your mind. Point the arrow at the first number on the hexagon, then move the arrow the second number of points clockwise around the hexagon. The number the arrow arrives at is your result.)","response_type":"free","response_choices":[],"correct_response":"3","response":"3","explain":false,"explanation":"","explanation_history":[],"orientation_history":[[0],[5.127616315939921,5.127616315939921,5.127616315939921,5.127616315939921,5.127616315939921,5.127616315939921,5.127616315939921,5.127616315939921,5.127616315939921,5.127616315939921,5.127616315939921,5.235987755982988],[4.19055470057028,4.19055470057028,4.19055470057028,4.19055470057028,4.19055470057028,4.19055470057028,4.19055470057028,4.19055470057028,4.19055470057028,4.19055470057028,4.1887902047863905],[5.2268402934437175,5.2268402934437175,5.2268402934437175,5.2268402934437175,5.2268402934437175,5.2268402934437175,5.2268402934437175,5.2268402934437175,5.2268402934437175,5.2268402934437175,5.235987755982988],[0,0,0,0,0,0,0,0,0,0,0],[0.8928958374231025,0.900824823764373,0.9088546855893886,0.9088546855893886,0.9088546855893886,0.9151007005533603,0.9293236127856646,0.943488134519134,0.9994588469612697,1.0471975511965976],[2.0298356734855822,2.0298356734855822,2.0298356734855822,2.0298356734855822,2.0298356734855822,2.0298356734855822,2.0298356734855822,2.0298356734855822,2.0298356734855822,2.0943951023931953],[3.1964825161839467,3.1964825161839467,3.1964825161839467,3.1964825161839467,3.141592653589793]],"response_history":["3"],"rt":23165,"trial_type":"polygo n-arrow- question","trial_index":0,"trial_index_global":3,"time_elapsed":3822052,"internal_chunk_id":"0-0.3-0"},{"nsides":6,"feedback":"Correct! 4 <img src=./images/hexagon_symbol.png style=width:14px;height:14px> 5 = 3 because 5 steps clockwise on the hexagon from 4 brings us to 3","orientation_history":[0],"rt":2425,"trial_type":"polygon-arrow-feedback","trial_index":0,"trial_index_global":4,"time_elapsed":3824486,"internal_chunk_id":"0-0.3-0"},{"nsides":6,"question":"What is 3 <img src=./images/hexagon_symbol.png style=width:14px;height:14px> 2? <br /><br /> (Remember, to perform <img src=./images/hexagon_symbol.png style=width:14px;height:14px>, you can use the interactive diagram on the right, or perform the operation in your mind. Point the arrow at the first number on the hexagon, then move the arrow the second number of points clockwise around the hexagon. The number the arrow arrives at is your result.)","response_type":"free","response_choices":[],"correct_response":"5","response":"5","explain":false,"explanation":"","explanation_history":[],"orientation_history":[[0],[3.247577011579393,3.247577011579393,3.247577011579393,3.247577011579393,3.247577011579393,3.247577011579393,3.247577011579393,3.247577011579393,3.141592653589793],[4.1089555029464275,4.1089555029464275,4.1089555029464275,4.1089555029464275,4.1887902047863905],[5.176036589385496,5.176036589385496,5.176036589385496,5.176036589385496,5.176036589385496,5.176036589385496,5.235987755982988]],"response_history":["5"],"rt":7692,"trial_type":"polygon-arrow-question","trial_index":0,"trial_index_global":5,"time_elapsed":3832181,"internal_chunk_id":"0-0.3-0"},{"nsides":6,"feedback":"Correct! 3 <img src=./images/hexagon_symbol.png style=width:14px;height:14px> 2 = 5 because 2 steps clockwise on the hexagon from 3 brings us to 5","orientation_history":[0],"rt":1205,"trial_type":"polygon-arrow-feedback","trial_index":0,"trial_index_global":6,"time_elapsed":3833389,"internal_chunk_id":"0-0.3-0"},{"nsides":6,"question":"What is 1 <img src=./images/hexagon_symbol.png style=width:14px;height:14px> 5? <br /><br /> (Remember, to perform <img src=./images/hexagon_symbol.png style=width:14px;height:14px>, you can use the interactive diagram on the right, or perform the operation in your mind. Point the arrow at the first number on the hexagon, then move the arrow the second number of points clockwise around the hexagon. The number the arrow arrives at is your result.)","response_type":"free","response_choices":[],"correct_response":"0","response":"0","explain":false,"explanation":"","explanation_history":[],"orientation_history":[[0],[0.9609903253476285,0.9609903253476285,0.9609903253476285,0.970255195415889,0.970255195415889,0.970255195415889,0.970255195415889,1.0471975511965976],[2.0454932098750715,2.0454932098750715,2.0454932098750715,2.0454932098750715,2.0454932098750715,2.0943951023931953],[3.096679058120004,3.096679058120004,3.096679058120004,3.096679058120004,3.096679058120004,3.096679058120004,3.096679058120004,3.141592653589793],[4.141051500551063,4.141051500551063,4.141051500551063,4.141051500551063,4.141051500551063,4.141051500551063,4.141051500551063,4.141051500551063,4.141051500551063,4.141051500551063,4.1887902047863905],[5.198011073682158,5.198011073682158,5.198011073682158,5.198011073682158,5.198011073682158,5.198011073682158,5.198011073682158,5.198011073682158,5.198011073682158,5.235987755982988],[0.012986282920172343,0.012986282920172343,0.012986282920172343,0.012986282920172343,0.012986282920172343,0.012986282920172343,0.012986282920172343,0.012986282920172343,0]],"response_history":["0"],"rt":9119,"trial_type":"polygon-arrow-question","trial_index":0,"trial_index_global":7,"time_elapsed":3842509,"internal_chunk_id":"0-0.3-0"},{"nsides":6,"feedback":"Correct! 1 <img src=./images/hexagon_symbol.png style=width:14px;height:14px> 5 = 0 because 5 steps clockwise on the hexagon from 1 brings us  to 0","orientation_history":[0],"rt":1590,"trial_type":"polygon-arrow-feedback","trial_index":0,"trial_index_global":8,"time_elapsed":3844101,"internal_chunk_id":"0-0.3-0"},{"nsides":6,"question":"What is 1 <img src=./images/hexagon_symbol.png style=width:14px;height:14px> 1? <br /><br /> (Remember, to perform <img src=./images/hexagon_symbol.png style=width:14px;height:14px>, you can use the interactive diagram on the right, or perform the operation in your mind. Point the arrow at the first number on the hexagon, then move the arrow the second number of points clockwise around the hexagon. The number the arrow arrives at is your result.)","response_type":"free","response_choices":[],"correct_response":"2","response":"2","explain":false,"explanation":"","explanation_history":[],"orientation_history":[[0],[0.9272952180016122,0.9272952180016122,1.0471975511965976],[2.040979790441634,2.040979790441634,2.040979790441634,2.040979790441634,2.040979790441634,2.040979790441634,2.040979790441634,2.040979790441634,2.0943951023931953]],"response_history":["2"],"rt":4447,"trial_type":"polygon-arrow-question","trial_index":0,"trial_index_global":9,"time_elapsed":3848549,"internal_chunk_id":"0-0.3-0"},{"nsides":6,"feedback":"Correct! 1 <img src=./images/hexagon_symbol.png style=width:14px;height:14px> 1 = 2 because 1 step clockwise on the hexagon from 1 brings us to 2","orientation_history":[0],"rt":952,"trial_type":"polygon-arrow-feedback","trial_index":0,"trial_index_global":10,"time_elapsed":3849502,"internal_chunk_id":"0-0.3-0"},{"nsides":6,"question":"What is 3 <img src=./images/hexagon_symbol.png style=width:14px;height:14px> 0? <br /><br /> (Remember, to perform <img src=./images/hexagon_symbol.png style=width:14px;height:14px>, you can use the interactive diagram on the right, or perform the operation in your mind. Point the arrow at the first number on the hexagon, then move the arrow the second number of points clockwise a round th e hexagon. The number the arrow arrives at is your result.)","response_type":"free","response_choices":[],"correct_response":"3","response":"3","explain":false,"explanation":"","explanation_history":[],"orientation_history":[[0],[3.1686131027770577,3.1686131027770577,3.1686131027770577,3.1686131027770577,3.1686131027770577,3.141592653589793]],"response_history":["3"],"rt":6039,"trial_type":"polygon-arrow-question","trial_index":0,"trial_index_global":11,"time_elapsed":3855541,"internal_chunk_id":"0-0.3-0"},{"nsides":6,"feedback":"Correct! 3 <img src=./images/hexagon_symbol.png style=width:14px;height:14px> 0 = 3 because 0 steps clockwise on the hexagon from 3 brings us to 3","orientation_history":[0],"rt":839,"trial_type":"polygon-arrow-feedback","trial_index":0,"trial_index_global":12,"time_elapsed":3856381,"internal_chunk_id":"0-0.3-0"},{"nsides":6,"question":"What is 4 <img src=./images/hexagon_symbol.png style=width:14px;height:14px> 4? <br /><br /> (Reme mber, to  perform <img src=./images/hexagon_symbol.png style=width:14px;height:14px>, you can use the interactive diagram on the right, or perform the operation in your mind. Point the arrow at the first number on the hexagon, then move the arrow the second number of points clockwise around the hexagon. The number the arrow arrives at is your result.)","response_type":"free","response_choices":[],"correct_response":"2","response":"2","explain":false,"explanation":"","explanation_history":[],"orientation_history":[[0],[4.270595814867246,4.270595814867246,4.285761487257814,4.290601720513873,4.290601720513873,4.290601720513873,4.290601720513873,4.290601720513873,4.1887902047863905],[5.078445496232108,5.078445496232108,5.078445496232108,5.078445496232108,5.235987755982988],[0.08673833867598502,0.08673833867598502,0.08673833867598502,0.08673833867598502,0.08673833867598502,0.08673833867598502,0.08673833867598502,0],[1.1123570040331623,1.1123570040331623,1.1123570040331623,1.1123570040331623,1.1123570040331623,1.0471975511965976],[2.0838542362039356,2.0838542362039356,2.0838542362039356,2.0838542362039356,2.0838542362039356,2.0838542362039356,2.0899424410414196,2.0943951023931953]],"response_history":["2"],"rt":4987,"trial_type":"polygon-arrow-question","trial_index":0,"trial_index_global":13,"time_elapsed":3861368,"internal_chunk_id":"0-0.3-0"},{"nsides":6,"feedback":"Correct! 4 <img src=./images/hexagon_symbol.png style=width:14px;height:14px> 4 = 2 because 4 steps clockwise on the hexagon from 4 brings us to 2","orientation_history":[0],"rt":857,"trial_type":"polygon-arrow-feedback","trial_index":0,"trial_index_global":14,"time_elapsed":3862231,"internal_chunk_id":"0-0.3-0"},{"nsides":6,"question":"What is 1 <img src=./images/hexagon_symbol.png style=width:14px;height:14px> 3? <br /><br /> (Remember, to perform <img src=./images/hexagon_symbol.png style=width:14px;height:14px>, you can use the interactive diagram on the right, or pe rform th e operation in your mind. Point the arrow at the first number on the hexagon, then move the arrow the second number of points clockwise around the hexagon. The number the arrow arrives at is your result.)","response_type":"free","response_choices":[],"correct_response":"4","response":"4","explain":false,"explanation":"","explanation_history":[],"orientation_history":[[0],[1.005312438640072,1.005312438640072,1.005312438640072,1.005312438640072,1.005312438640072,1.005312438640072,1.0471975511965976],[2.214297435588181,2.214297435588181,2.214297435588181,2.214297435588181,2.214297435588181,2.214297435588181,2.214297435588181,2.0943951023931953],[3.2451173281003376,3.2451173281003376,3.2451173281003376,3.2451173281003376,3.2451173281003376,3.2451173281003376,3.257947818796668,3.141592653589793],[3.981482273227973,3.981482273227973,3.981482273227973,3.981482273227973,3.981482273227973,3.981482273227973,3.981482273227973,3.981482273227973,3.981482273227973,4.1887902047863905]],"response_history":["4"],"rt":9893,"trial_type":"polygon-arrow-question","trial_index":0,"trial_index_global":15,"time_elapsed":3872125,"internal_chunk_id":"0-0.3-0"},{"nsides":6,"feedback":"Correct! 1 <img src=./images/hexagon_symbol.png style=width:14px;height:14px> 3 = 4 because 3 steps clockwise on the hexagon from 1 brings us to 4","orientation_history":[0],"rt":1830,"trial_type":"polygon-arrow-feedback","trial_index":0,"trial_index_global":16,"time_elapsed":3873956,"internal_chunk_id":"0-0.3-0"},{"nsides":6,"question":"What is 4 <img src=./images/hexagon_symbol.png style=width:14px;height:14px> 3? <br /><br /> (Remember, to perform <img src=./images/hexagon_symbol.png style=width:14px;height:14px>, you can use the interactive diagram on the right, or perform the operation in your mind. Point the arrow at the first number on the hexagon, then move the arrow the second number of points clockwise around the hexagon. The number the arrow arrives at is your res ult.)","response_type":"free","response_choices":[],"correct_response":"1","response":"1","explain":false,"explanation":"","explanation_history":[],"orientation_history":[[0],[4.058962639203928,4.058962639203928,4.058962639203928,4.058962639203928,4.058962639203928,4.058962639203928,4.058962639203928,4.058962639203928,4.1887902047863905],[5.464092036436122,5.464092036436122,5.464092036436122,5.464092036436122,5.464092036436122,5.464092036436122,5.464092036436122,5.464092036436122,5.464092036436122,5.235987755982988],[0.09232933473159899,0.09232933473159899,0.09232933473159899,0.09232933473159899,0.09232933473159899,0.09232933473159899,0.09232933473159899,0],[1.1485451733436245,1.1485451733436245,1.1485451733436245,1.1485451733436245,1.1485451733436245,1.1485451733436245,1.1485451733436245,1.1485451733436245,1.0471975511965976]],"response_history":["1"],"rt":5393,"trial_type":"polygon-arrow-question","trial_index":0,"trial_index_global":17,"time_elapsed":3879350,"internal_chunk_id":" 0-0.3-0"},{"nsides":6,"feedback":"Correct! 4 <img src=./images/hexagon_symbol.png style=width:14px;height:14px> 3 = 1 because 3 steps clockwise on the hexagon from 4 brings us to 1","orientation_history":[0],"rt":749,"trial_type":"polygon-arrow-feedback","trial_index":0,"trial_index_global":18,"time_elapsed":3880100,"internal_chunk_id":"0-0.3-0"},{"nsides":6,"question":"What is 0 <img src=./images/hexagon_symbol.png style=width:14px;height:14px> 5? <br /><br /> (Remember, to perform <img src=./images/hexagon_symbol.png style=width:14px;height:14px>, you can use the interactive diagram on the right, or perform the operation in your mind. Point the arrow at the first number on the hexagon, then move the arrow the second number of points clockwise around the hexagon. The number the arrow arrives at is your result.)","response_type":"free","response_choices":[],"correct_response":"5","response":"5","explain":false,"explanation":"","explanation_history":[],"orientation_history":[[0],[1.0679531158670357,1.0679531158670357,1.0808390005411683,1.0808390005411683,1.0808390005411683,1.0808390005411683,1.0808390005411683,1.0808390005411683,1.0471975511965976],[1.846893346190333,1.846893346190333,1.846893346190333,1.846893346190333,1.846893346190333,1.846893346190333,1.8774726461965794,2.0943951023931953],[3.2679007706530334,3.2679007706530334,3.2679007706530334,3.2679007706530334,3.2679007706530334,3.2679007706530334,3.2679007706530334,3.283489708193957,3.141592653589793],[4.042750034708052,4.042750034708052,4.042750034708052,4.042750034708052,4.052760237747769,4.052760237747769,4.052760237747769,4.1887902047863905],[4.990688639389801,4.990688639389801,4.990688639389801,4.990688639389801,4.990688639389801,4.990688639389801,4.990688639389801,4.990688639389801,4.990688639389801,4.990688639389801,4.990688639389801,5.235987755982988]],"response_history":["5"],"rt":5187,"trial_type":"polygon-arrow-question","trial_index":0,"trial_index_global":19,"time_elapsed":3885287,"internal_chunk_id":"0-0.3-0"},{"nsides":6,"feedback":"Correct! 0 <img src=./images/hexagon_symbol.png style=width:14px;height:14px> 5 = 5 because 5 steps clockwise on the hexagon from 0 brings us to 5","orientation_history":[0],"rt":1116,"trial_type":"polygon-arrow-feedback","trial_index":0,"trial_index_global":20,"time_elapsed":3886404,"internal_chunk_id":"0-0.3-0"},{"nsides":6,"question":"What is 2 <img src=./images/hexagon_symbol.png style=width:14px;height:14px> 5? <br /><br /> (Remember, to perform <img src=./images/hexagon_symbol.png style=width:14px;height:14px>, you can use the interactive diagram on the right, or perform the operation in your mind. Point the arrow at the first number on the hexagon, then move the arrow the second number of points clockwise around the hexagon. The number the arrow arrives at is your result.)","response_type":"free","response_choices":[],"correct_response":"1","response":"1","explain":false,"explanation":"","explanation_history":[],"orientation_history":[[0],[2.479166359756642,2.479166359756642,2.479166359756642,2.479166359756642,2.479166359756642,2.479166359756642,2.479166359756642,2.479166359756642,2.0943951023931953],[3.1714345382569027,3.170995941793798,3.170995941793798,3.141592653589793],[4.176242958372455,4.176242958372455,4.176242958372455,4.176242958372455,4.176242958372455,4.176242958372455,4.1887902047863905],[5.205439877589501,5.205439877589501,5.205439877589501,5.205439877589501,5.205439877589501,5.205439877589501,5.235987755982988],[6.191138458316179,6.283185307179586],[0.9903981394010224,1.0471975511965976]],"response_history":["1"],"rt":5758,"trial_type":"polygon-arrow-question","trial_index":0,"trial_index_global":21,"time_elapsed":3892164,"internal_chunk_id":"0-0.3-0"},{"nsides":6,"feedback":"Correct! 2 <img src=./images/hexagon_symbol.png style=width:14px;height:14px> 5 = 1 because 5 steps clockwise on the hexagon from 2 brings us to 1","orientation_history":[0],"rt":912,"trial_type":"polygon-arrow-feedback","trial_index":0,"trial_index_global":22,"time_elapsed":3893076,"internal_chunk_id":"0-0.3-0"},{"nsides":6,"instructions":"Now we're going to discuss a couple special properties of this new operation, <img src=./images/hexagon_symbol.png style=width:14px;height:14px> that we've learned. First, notice that the number 0 behaves in a special way under <img src=./images/hexagon_symbol.png style=width:14px;height:14px>. Whenever we combine 0 with anything else, we get that same thing back. We'll say that 0 is the <i>identity</i> under <img src=./images/hexagon_symbol.png style=width:14px;height:14px>, because when you combine it with something it gives you that identical thing back.","orientation_history":[0],"rt":5501,"trial_type":"polygon-arrow-instructions","trial_index":0,"trial_index_global":23,"time_elapsed":3898580,"internal_chunk_id":"0-0"},{"nsides":6,"instructions":"Now that we know 0 is the identi ty under  <img src=./images/hexagon_symbol.png style=width:14px;height:14px>, we're going to make a new definition. We'll say that the <i>inverse</i> of a number is the element that you combine with it to produce the identity under our operation. For example, 5 <img src=./images/hexagon_symbol.png style=width:14px;height:14px> 1 = 0, so we say 1 is the inverse of 5 under <img src=./images/hexagon_symbol.png style=width:14px;height:14px>, (remember 0 is the identity under <img src=./images/hexagon_symbol.png style=width:14px;height:14px>). Similarly, 3 is its own inverse under <img src=./images/hexagon_symbol.png style=width:14px;height:14px>, because 3 <img src=./images/hexagon_symbol.png style=width:14px;height:14px> 3 = 0.","orientation_history":[0,[5.188084199239682,5.188084199239682,5.188084199239682,5.188084199239682,5.188084199239682,5.188084199239682,5.188084199239682,5.188084199239682,5.188084199239682,5.188084199239682,5.188084199239682,5.235987755982988]],"rt":9905,"trial_type":"polygon-arrow-instructions","trial_index":0,"trial_index_global":24,"time_elapsed":3908486,"internal_chunk_id":"0-0"},{"nsides":6,"question":"Now you try! What is the inverse of 4 under <img src=./images/hexagon_symbol.png style=width:14px;height:14px>? <br /><br /> (Remember, the inverse of an element is the thing which you combine with it to produce the identity.)","response_type":"free","response_choices":[],"correct_response":"2","response":"4","explain":false,"explanation":"","explanation_history":[],"orientation_history":[[0],[4.095587756596672,4.095587756596672,4.095587756596672,4.095587756596672,4.095587756596672,4.095587756596672,4.095587756596672,4.095587756596672,4.095587756596672,4.095587756596672,4.095587756596672,4.095587756596672,4.095587756596672,4.1887902047863905],[2.999695598985629,2.999695598985629,2.999695598985629,2.999695598985629,2.999695598985629,2.999695598985629,2.999695598985629,2.999695598985629,3.141592653589793],[2.0117205749540616,2.0117205749540616,2.002491344111223,2.002491344111223,2.002491344111223,2.002491344111223,1.9931829632422235,1.9931829632422235,2.0943951023931953],[1.1928280152986233,1.1928280152986233,1.1676807375761975,1.0471975511965976],[6.015569002394824,6.015569002394824,6.015569002394824,6.015569002394824,6.015569002394824,6.015569002394824,6.015569002394824,6.283185307179586],[5.191499274445081,5.191499274445081,5.191499274445081,5.191499274445081,5.191499274445081,5.191499274445081,5.191499274445081,5.181217890169734,5.181217890169734,5.235987755982988],[4.205290475992353,4.205290475992353,4.205290475992353,4.205290475992353,4.205290475992353,4.205290475992353,4.205290475992353,4.205290475992353,4.205290475992353,4.205290475992353,4.205290475992353,4.205290475992353,4.1887902047863905]],"response_history":["4"],"rt":9964,"trial_type":"polygon-arrow-question","trial_index":0,"trial_index_global":25,"time_elapsed":3918452,"internal_chunk_id":"0-0.7 -0"},{"nsides":6,"feedback":"Sorry, that was incorrect. The inverse of 4 under <img src=./images/hexagon_symbol.png style=width:14px;height:14px> is 2 because 4 <img src=./images/hexagon_symbol.png style=width:14px;height:14px> 2 = 0, and 0 is the identity under <img src=./images/hexagon_symbol.png style=width:14px;height:14px>.","orientation_history":[0],"rt":31345,"trial_type":"polygon-arrow-feedback","trial_index":0,"trial_index_global":26,"time_elapsed":3949798,"internal_chunk_id":"0-0.7-0"},{"nsides":6,"question":"What is the inverse of 1 under <img src=./images/hexagon_symbol.png style=width:14px;height:14px>? <br /><br /> (Remember, the inverse of an element is the thing which you combine with it to produce the identity.)","response_type":"free","response_choices":[],"correct_response":"5","response":"1","explain":false,"explanation":"","explanation_history":[],"orientation_history":[[0],[1.2090670852749643,1.2090670852749643,1.2090670852749643,1.2045407663641197,1.2045407663641197,1.1999050379822342,1.1951560913218313,1.172921969177727,1.172921969177727,1.172921969177727,1.0471975511965976]],"response_history":["1"],"rt":9281,"trial_type":"polygon-arrow-question","trial_index":0,"trial_index_global":27,"time_elapsed":3959087,"internal_chunk_id":"0-0.7-0"},{"nsides":6,"feedback":"Sorry, that was incorrect. The inverse of 1 under <img src=./images/hexagon_symbol.png style=width:14px;height:14px> is 5 because 1 <img src=./images/hexagon_symbol.png style=width:14px;height:14px> 5 = 0, and 0 is the identity under <img src=./images/hexagon_symbol.png style=width:14px;height:14px>.","orientation_history":[0],"rt":5345,"trial_type":"polygon-arrow-feedback","trial_index":0,"trial_index_global":28,"time_elapsed":3964436,"internal_chunk_id":"0-0.7-0"},{"nsides":6,"question":"What is the inverse of 3 under <img src=./images/hexagon_symbol.png style=width:14px;height:14px>? <br /><br /> (Remember, the  inverse  of an element is the thing which you combine with it to produce the identity.)","response_type":"free","response_choices":[],"correct_response":"3","response":"3","explain":false,"explanation":"","explanation_history":[],"orientation_history":[[0]],"response_history":["3"],"rt":3063,"trial_type":"polygon-arrow-question","trial_index":0,"trial_index_global":29,"time_elapsed":3967500,"internal_chunk_id":"0-0.7-0"},{"nsides":6,"feedback":"Correct! The inverse of 3 under <img src=./images/hexagon_symbol.png style=width:14px;height:14px> is 3 because 3 <img src=./images/hexagon_symbol.png style=width:14px;height:14px> 3 = 0, and 0 is the identity under <img src=./images/hexagon_symbol.png style=width:14px;height:14px>.","orientation_history":[0],"rt":1039,"trial_type":"polygon-arrow-feedback","trial_index":0,"trial_index_global":30,"time_elapsed":3968540,"internal_chunk_id":"0-0.7-0"},{"nsides":6,"question":"What is the inverse of 2 under <img src=./imag es/hexag on_symbol.png style=width:14px;height:14px>? <br /><br /> (Remember, the inverse of an element is the thing which you combine with it to produce the identity.)","response_type":"free","response_choices":[],"correct_response":"4","response":"4","explain":false,"explanation":"","explanation_history":[],"orientation_history":[[0]],"response_history":["4"],"rt":2312,"trial_type":"polygon-arrow-question","trial_index":0,"trial_index_global":31,"time_elapsed":3970853,"internal_chunk_id":"0-0.7-0"},{"nsides":6,"feedback":"Correct! The inverse of 2 under <img src=./images/hexagon_symbol.png style=width:14px;height:14px> is 4 because 2 <img src=./images/hexagon_symbol.png style=width:14px;height:14px> 4 = 0, and 0 is the identity under <img src=./images/hexagon_symbol.png style=width:14px;height:14px>.","orientation_history":[0],"rt":774,"trial_type":"polygon-arrow-feedback","trial_index":0,"trial_index_global":32,"time_elapsed":3971628,"internal_chunk_id":"0-0. 7-0"},{"nsides":6,"question":"What is the inverse of 0 under <img src=./images/hexagon_symbol.png style=width:14px;height:14px>? <br /><br /> (Remember, the inverse of an element is the thing which you combine with it to produce the identity.)","response_type":"free","response_choices":[],"correct_response":"0","response":"6","explain":false,"explanation":"","explanation_history":[],"orientation_history":[[0]],"response_history":["6"],"rt":3462,"trial_type":"polygon-arrow-question","trial_index":0,"trial_index_global":33,"time_elapsed":3975090,"internal_chunk_id":"0-0.7-0"},{"nsides":6,"feedback":"Sorry, that was incorrect. The inverse of 0 under <img src=./images/hexagon_symbol.png style=width:14px;height:14px> is 0 because 0 <img src=./images/hexagon_symbol.png style=width:14px;height:14px> 0 = 0, and 0 is the identity under <img src=./images/hexagon_symbol.png style=width:14px;height:14px>.","orientation_history":[0],"rt":1505,"trial_type":"polygon -arrow-feedback","trial_index":0,"trial_index_global":34,"time_elapsed":3976597,"internal_chunk_id":"0-0.7-0"},{"instructions":"It is also possible to successively apply <img src=./images/hexagon_symbol.png style=width:14px;height:14px>, and the operation can simply be performed starting with the left-most pair. For example, 2 <img src=./images/hexagon_symbol.png style=width:14px;height:14px> 3 <img src=./images/hexagon_symbol.png style=width:14px;height:14px> 4 = 5 <img src=./images/hexagon_symbol.png style=width:14px;height:14px> 4 = 3.","rt":1458,"trial_type":"instructions","trial_index":0,"trial_index_global":35,"time_elapsed":3978055,"internal_chunk_id":"0-0"},{"nsides":6,"instructions":"We have one last definition to learn today, using the successive operations we just learned. Let's start with an example. Under our operation <img src=./images/hexagon_symbol.png style=width:14px;height:14px> we can make every other number using j ust 1: 2  = 1 <img src=./images/hexagon_symbol.png style=width:14px;height:14px> 1, 3 = 1 <img src=./images/hexagon_symbol.png style=width:14px;height:14px> 1 <img src=./images/hexagon_symbol.png style=width:14px;height:14px> 1, 4 = 1 <img src=./images/hexagon_symbol.png style=width:14px;height:14px> 1 <img src=./images/hexagon_symbol.png style=width:14px;height:14px> 1 <img src=./images/hexagon_symbol.png style=width:14px;height:14px> 1, 5 = 1 <img src=./images/hexagon_symbol.png style=width:14px;height:14px> 1 <img src=./images/hexagon_symbol.png style=width:14px;height:14px> 1 <img src=./images/hexagon_symbol.png style=width:14px;height:14px> 1 <img src=./images/hexagon_symbol.png style=width:14px;height:14px> 1, and 0 = 1 <img src=./images/hexagon_symbol.png style=width:14px;height:14px> 1 <img src=./images/hexagon_symbol.png style=width:14px;height:14px> 1 <img src=./images/hexagon_ symbol.p ng style=width:14px;height:14px> 1 <img src=./images/hexagon_symbol.png style=width:14px;height:14px> 1 <img src=./images/hexagon_symbol.png style=width:14px;height:14px> 1. Because 1 can make every other element under <img src=./images/hexagon_symbol.png style=width:14px;height:14px>, we say that 1 is a <i>generator</i> under <img src=./images/hexagon_symbol.png style=width:14px;height:14px>. <br /><br /> However, 2 is not a generator under <img src=./images/hexagon_symbol.png style=width:14px;height:14px>, because 4 = 2 <img src=./images/hexagon_symbol.png style=width:14px;height:14px> 2, and 0 = 2 <img src=./images/hexagon_symbol.png style=width:14px;height:14px> 2 <img src=./images/hexagon_symbol.png style=width:14px;height:14px> 2, but there is no way to make 1, 3, or 5 using just 2.","orientation_history":[0],"rt":7738,"trial_type":"polygon-arrow-instructions","trial_index":0,"trial_index_global":36,"time_elapsed":3985797,"internal_chunk_id":"0-0"},{"nsides":6,"question":"Now you try! Is 3 a generator under <img src=./images/hexagon_symbol.png style=width:14px;height:14px>? <br /><br /> (Remember, a generator is an element which can make every other element.)","response_type":"multi","response_choices":["Yes","No"],"correct_response":"No","response":"No","explain":false,"explanation":"","explanation_history":[],"orientation_history":[[0]],"response_history":["No"],"rt":9112,"trial_type":"polygon-arrow-question","trial_index":0,"trial_index_global":37,"time_elapsed":3994911,"internal_chunk_id":"0-0.10-0"},{"nsides":6,"feedback":"Correct! 3 is not a generator under <img src=./images/hexagon_symbol.png style=width:14px;height:14px>, because 3 = 3, 0 = 3 <img src=./images/hexagon_symbol.png style=width:14px;height:14px> 3, but there is no way to make 1, 2, 4, or 5 using just 3.","orientation_history":[0],"rt":2557,"trial_type":"polygon-arrow-feedback","trial_index":0,"trial_index_global":38,"time_elapsed":3997469,"internal_chunk_id":"0-0.10-0"},{"nsides":6,"question":"Is 5 a generator under <img src=./images/hexagon_symbol.png style=width:14px;height:14px>? <br /><br /> (Remember, a generator is an element which can make every other element.)","response_type":"multi","response_choices":["Yes","No"],"correct_response":"Yes","response":"No","explain":false,"explanation":"","explanation_history":[],"orientation_history":[[0]],"response_history":["No"],"rt":3918,"trial_type":"polygon-arrow-question","trial_index":0,"trial_index_global":39,"time_elapsed":4001388,"internal_chunk_id":"0-0.10-0"},{"nsides":6,"feedback":"Sorry, that's incorrect. 5 is a generator under <img src=./images/hexagon_symbol.png style=width:14px;height:14px>, because 5 = 5, 4 = 5 <img src=./images/hexagon_symbol.png style=width:14px;height:14px> 5, 3 = 5 <img src=./images/hexagon_symbol.png style=width:14px;height:14px> 5 <img src=./im ages/hex agon_symbol.png style=width:14px;height:14px> 5, 2 = 5 <img src=./images/hexagon_symbol.png style=width:14px;height:14px> 5 <img src=./images/hexagon_symbol.png style=width:14px;height:14px> 5 <img src=./images/hexagon_symbol.png style=width:14px;height:14px> 5, 1 = 5 <img src=./images/hexagon_symbol.png style=width:14px;height:14px> 5 <img src=./images/hexagon_symbol.png style=width:14px;height:14px> 5 <img src=./images/hexagon_symbol.png style=width:14px;height:14px> 5 <img src=./images/hexagon_symbol.png style=width:14px;height:14px> 5, and 0 = 5 <img src=./images/hexagon_symbol.png style=width:14px;height:14px> 5 <img src=./images/hexagon_symbol.png style=width:14px;height:14px> 5 <img src=./images/hexagon_symbol.png style=width:14px;height:14px> 5 <img src=./images/hexagon_symbol.png style=width:14px;height:14px> 5 <img src=./images/hexagon_symbol.png style=width:14px;hei ght:14px > 5, so you can make all of the numbers under <img src=./images/hexagon_symbol.png style=width:14px;height:14px> using 5","orientation_history":[0],"rt":7172,"trial_type":"polygon-arrow-feedback","trial_index":0,"trial_index_global":40,"time_elapsed":4008561,"internal_chunk_id":"0-0.10-0"},{"nsides":6,"question":"Is 4 a generator under <img src=./images/hexagon_symbol.png style=width:14px;height:14px>? <br /><br /> (Remember, a generator is an element which can make every other element.)","response_type":"multi","response_choices":["Yes","No"],"correct_response":"No","response":"Yes","explain":false,"explanation":"","explanation_history":[],"orientation_history":[[0]],"response_history":["Yes"],"rt":5613,"trial_type":"polygon-arrow-question","trial_index":0,"trial_index_global":41,"time_elapsed":4014180,"internal_chunk_id":"0-0.10-0"},{"nsides":6,"feedback":"Sorry, that's incorrect. 4 is not a generator under <img src=./images/hexagon_symbol.png style=width:1 4px;height:14px>, because 4 = 4, 2 = 4 <img src=./images/hexagon_symbol.png style=width:14px;height:14px> 4, and 0 = 4 <img src=./images/hexagon_symbol.png style=width:14px;height:14px> 4 <img src=./images/hexagon_symbol.png style=width:14px;height:14px> 4, but there is no way to make 1, 3, or 5 using just 4.","orientation_history":[0],"rt":1895,"trial_type":"polygon-arrow-feedback","trial_index":0,"trial_index_global":42,"time_elapsed":4016076,"internal_chunk_id":"0-0.10-0"},{"nsides":6,"question":"Is 0 a generator under <img src=./images/hexagon_symbol.png style=width:14px;height:14px>? <br /><br /> (Remember, a generator is an element which can make every other element.)","response_type":"multi","response_choices":["Yes","No"],"correct_response":"No","response":"Yes","explain":false,"explanation":"","explanation_history":[],"orientation_history":[[0]],"response_history":["Yes"],"rt":19743,"trial_type":"polygon-arrow-question","trial_index":0,"trial_index_global":43,"time_elapsed":4035820,"internal_chunk_id":"0-0.10-0"},{"nsides":6,"feedback":"Sorry, that's incorrect. 0 is not a generator under <img src=./images/hexagon_symbol.png style=width:14px;height:14px>, because 0 = 0, but there is no way to make 1, 2, 3, 4, or 5 using just 0.","orientation_history":[0],"rt":1878,"trial_type":"polygon-arrow-feedback","trial_index":0,"trial_index_global":44,"time_elapsed":4037699,"internal_chunk_id":"0-0.10-0"},{"nsides":9,"instructions":"Now we are going to ask you some questions about a new operation, <img src=./images/nonagon_symbol.png style=width:14px;height:14px>, on the numbers 0, 1, 2, 3, 4, 5, 6, 7, 8. It works exactly like <img src=./images/hexagon_symbol.png style=width:14px;height:14px>, except now you use the nonagon shown at the right. <br /><br />Do you see how <img src=./images/nonagon_symbol.png style=width:14px;height:14px> works just like <img src=./images/hexagon_symbol.png style= width:14px;height:14px>? By labeling the points of the nonagon with the numbers from 0 to 8, we ensure that when we combine two numbers under <img src=./images/nonagon_symbol.png style=width:14px;height:14px>, we only produce numbers between 0 and 8. <br /><br />We'll give you one practice question with feedback to make sure you understand the new operation. After that, try to complete the remaining questions as accurately as possible.","orientation_history":[0],"rt":7119,"trial_type":"polygon-arrow-instructions","trial_index":0,"trial_index_global":45,"time_elapsed":4044821,"internal_chunk_id":"0-0"},{"nsides":9,"question":"Practice: What is 5 <img src=./images/nonagon_symbol.png style=width:14px;height:14px> 5?","response_type":"free","response_choices":[],"correct_response":"1","response":"1","explain":false,"explanation":"","explanation_history":[],"orientation_history":[[0],[3.690142056040321,3.690142056040321,3.690142056040321,3.690142056040321,3.690142056040321,3.690142056040321,3.690142056040321,3.690142056040321,3.690142056040321,3.490658503988659],[4.394930245130059,4.394930245130059,4.394930245130059,4.394930245130059,4.394930245130059,4.394930245130059,4.394930245130059,4.1887902047863905],[4.821542443293567,4.821542443293567,4.821542443293567,4.821542443293567,4.821542443293567,4.821542443293567,4.821542443293567,4.886921905584122],[5.62669791546613,5.62669791546613,5.62669791546613,5.62669791546613,5.62669791546613,5.62669791546613,5.62669791546613,5.62669791546613,5.585053606381854]],"response_history":["1"],"rt":5716,"trial_type":"polygon-arrow-question","trial_index":0,"trial_index_global":46,"time_elapsed":4050540,"internal_chunk_id":"0-0.12-0"},{"nsides":9,"feedback":"Correct! 5 <img src=./images/nonagon_symbol.png style=width:14px;height:14px> 5 = 1 because 5 steps clockwise on the nonagon from 5 brings us to 1","orientation_history":[0],"rt":685,"trial_type":"polygon-arrow-feedback","trial_index":0,"trial_index_global":47,"time_elapsed":4051226,"internal_chunk_id":"0-0.12-0"},{"nsides":9,"question":"What is 3 <img src=./images/nonagon_symbol.png style=width:14px;height:14px> 3?","response_type":"free","response_choices":[],"correct_response":"6","response":"6","explain":false,"explanation":"","explanation_history":[],"orientation_history":[[0],[1.9004207342156394,1.9004207342156394,1.9163519073766087,1.9163519073766087,1.9163519073766087,1.9370518872256735,1.948938642117498,1.948938642117498,1.948938642117498,1.948938642117498,2.0943951023931953]],"response_history":["6"],"rt":3787,"trial_type":"polygon-arrow-question","trial_index":0,"trial_index_global":48,"time_elapsed":4055014,"internal_chunk_id":"0-0.12-0"},{"nsides":9,"question":"What is 7 <img src=./images/nonagon_symbol.png style=width:14px;height:14px> 4?","response_type":"free","response_choices":[],"correct_response":"2","response":"2","explain":false,"explanation":"","explanation_history":[],"orientation_history":[[0],[5.034139534781332,5.034139534781332,5.034139534781332,5.034139534781332,5.034139534781332,5.034139534781332,4.886921905584122],[5.654389020764153,5.654389020764153,5.654389020764153,5.654389020764153,5.654389020764153,5.585053606381854],[0.013697773372865818,0.013697773372865818,0.013697773372865818,0.013697773372865818,0.013697773372865818,0.013697773372865818,0.013697773372865818,0],[0.49642275340488173,0.49642275340488173,0.49642275340488173,0.5023023780979528,0.5023023780979528,0.5023023780979528,0.5023023780979528,0.6981317007977318]],"response_history":["2"],"rt":5872,"trial_type":"polygon-arrow-question","trial_index":0,"trial_index_global":49,"time_elapsed":4060887,"internal_chunk_id":"0-0.12-0"},{"nsides":9,"question":"What is 1 <img src=./images/nonagon_symbol.png style=width:14px;height:14px> 8?","response_type":"free","response_choices":[],"correct_response":"0","response":"0","explain":false,"explanation":"","explanation_history":[],"orientation_history":[[0],[1.3483490613689548,1.3483490613689548,1.3483490613689548,1.3483490613689548,1.3483490613689548,1.3962634015954636],[2.0533096218173736,2.0533096218173736,2.0533096218173736,2.0533096218173736,2.0533096218173736,2.0533096218173736,2.0533096218173736,2.065683769225971,2.0943951023931953],[2.754299050383717,2.754299050383717,2.754299050383717,2.754299050383717,2.754299050383717,2.754299050383717,2.754299050383717,2.792526803190927],[3.51176348143201,3.51176348143201,3.51176348143201,3.51176348143201,3.51176348143201,3.51176348143201,3.51176348143201,3.51176348143201,3.490658503988659],[4.228609863253482,4.228609863253482,4.228609863253482,4.228609863253482,4.228609863253482,4.228609863253482,4.228609863253482,4.1887902047863905],[4.888623678121365,4.888623678121365,4.888623678121365,4.888623678121365,4.888623678121365,4.888623678121365,4.888623678121365,4.888623678121365,4.888623678121365,4.886921905584122],[5.477789809808987,5.477789809808987,5.477789809808987,5.477789809808987,5.477789809808987,5.477789809808987,5.477789809808987,5.477789809808987,5.585053606381854]],"response_history":["0"],"rt":7196,"trial_type":"polygon-arrow-question","trial_index":0,"trial_index_global":50,"time_elapsed":4068084,"internal_chunk_id":"0-0.12-0"},{"nsides":9,"question":"What is 5 <img src=./images/nonagon_symbol.png style=width:14px;height:14px> 4?","response_type":"free","response_choices":[],"correct_response":"0","response":"0","explain":false,"explanation":"","explanation_history":[],"orientation_history":[[0],[3.6052402625905993,3.6052402625905993,3.6052402625905993,3.6052402625905993,3.6052402625905993,3.6052402625905993,3.6052402625905993,3.6052402625905993,3.490658503988659]],"response_history":["0"],"rt":4214,"trial_type":"polygon-arrow-question","trial_index":0,"trial_index_global":51,"time_elapsed":4072299,"internal_chunk_id":"0-0.12-0"},{"nsides":9,"question":"What is 6 <img src=./images/nonagon_symbol.png style=width:14px;height:14px> 6?","response_type":"free","response_choices":[],"correct_response":"3","response":"3","explain":false,"explanation":"","explanation_history":[],"orientation_history":[[0],[4.231501700189353,4.231501700189353,4.231501700189353,4.231501700189353,4.220177713545123,4.220177713545123,4.220177713545123,4.220177713545123,4.220177713545123,4.220177713545123,4.1887902047863905],[6.211877842394296,6.211877842394296,6.211877842394296,6.211877842394296,6.211877842394296,6.211877842394296,6.211877842394296,6.211877842394296,6.211877842394296,6.211877842394296,6.211877842394296,6.283185307179586],[1.9824676702267914,1.9824676702267914,1.9824676702267914,1.9824676702267914,1.9824676702267914,1.9824676702267914,1.9824676702267914,1.9824676702267914,1.9824676702267914,1.9824676702267914,1.9824676702267914,2.0943951023931953]],"response_history":["3"],"rt":8928,"trial_type":"polygon-arrow-question","trial_index":0,"trial_index_global":52,"time_elapsed":4081228,"internal_chunk_id":"0-0.12-0"},{"nsides":9,"instructions":"On the following question, and several others later in the HIT, we will ask you to explain how you got your answer. On these questions, you will be given one box for your answer to the question, and a second for your explanation. Please explain your thought process in as much detail as possible (at least one sentence, and more if you can).","orientation_history":[0],"rt":6767,"trial_type":"polygon-arrow-instructions","trial_index":0,"trial_index_global":53,"time_elapsed":4087996,"internal_chunk_id":"0-0.12-0"},{"nsides":9,"question":"What is 4 <img src=./images/nonagon_symbol.png style=width:14px;height:14px> 1? Please explain in words how you got your answer.","response_type":"free","response_choices":[],"correct_response":"5","response":"5","explain":true,"explanation":"1 to the left is 5","explanation_history":["One to ","One to","One t","One ","One","On","O","1 to the left is 5"],"orientation_history":[[0],[2.7795052458960647,2.7795052458960647,2.7795052458960647,2.7795052458960647,2.7795052458960647,2.7795052458960647,2.7795052458960647,2.7795052458960647,2.7795052458960647,2.7795052458960647,2.7928216500058864,2.792526803190927],[3.369449702306893,3.369449702306893,3.369449702306893,3.369449702306893,3.369449702306893,3.369449702306893,3.369449702306893,3.369449702306893,3.369449702306893,3.369449702306893,3.490658503988659]],"response_history":["5"],"rt":30309,"trial_type":"polygon-arrow-question","trial_index":0,"trial_index_global":54,"time_elapsed":4118307,"internal_chunk_id":"0-0.12-0"},{"nsides":9,"question":"What is 8 <img src=./images/nonagon_symbol.png style=width:14px;height:14px> 4? Please explain in words how you got your answer.","response_type":"free","response_choices":[],"correct_response":"3","response":"3","explain":true,"explanation":"4 to the left is 3","explanation_history":["4 to the left is 3"],"orientation_history":[[0],[5.520510504623779,5.520510504623779,5.520510504623779,5.520510504623779,5.520510504623779,5.520510504623779,5.520510504623779,5.520510504623779,5.585053606381854],[0.09204684886340675,0.09204684886340675,0.09204684886340675,0.09204684886340675,0.09204684886340675,0],[0.6405856651585092,0.6405856651585092,0.6405856651585092,0.6405856651585092,0.6405856651585092,0.6405856651585092,0.6405856651585092,0.6981317007977318],[1.1606689862534056,1.1606689862534056,1.172921969177727,1.172921969177727,1.172921969177727,1.172921969177727,1.172921969177727,1.172921969177727,1.1853024598655673,1.3962634015954636],[2.1939956567289625,2.1939956567289625,2.1939956567289625,2.1939956567289625,2.1939956567289625,2.1939956567289625,2.0943951023931953]],"response_history":["3"],"rt":11090,"trial_type":"polygon-arrow-question","trial_index":0,"trial_index_global":55,"time_elapsed":4129400,"internal_chunk_id":"0-0.12-0"},{"nsides":9,"question":"What is the identity under <img src=./images/nonagon_symbol.png style=width:14px;height:14px>? Please explain in words how y ou got y our answer.","response_type":"free","response_choices":[],"correct_response":"0","response":"9","explain":true,"explanation":"I wasn't sure about this answer","explanation_history":["I wasn't sure about this answer"],"orientation_history":[[0]],"response_history":["9"],"rt":45985,"trial_type":"polygon-arrow-question","trial_index":0,"trial_index_global":56,"time_elapsed":4175388,"internal_chunk_id":"0-0.12-0"},{"nsides":9,"question":"What is the inverse of 5 under <img src=./images/nonagon_symbol.png style=width:14px;height:14px>?","response_type":"free","response_choices":[],"correct_response":"4","response":"4","explain":false,"explanation":"","explanation_history":[],"orientation_history":[[0],[3.525120169546785,3.525120169546785,3.519122849013331,3.519122849013331,3.519122849013331,3.519122849013331,3.519122849013331,3.519122849013331,3.519122849013331,3.519122849013331,3.490658503988659]],"response_history":["4"],"rt":8415,"trial_type":"polygon-arrow-question","trial_index":0,"trial_index_global":57,"time_elapsed":4183810,"internal_chunk_id":"0-0.12-0"},{"nsides":9,"question":"What is the inverse of 2 under <img src=./images/nonagon_symbol.png style=width:14px;height:14px>?","response_type":"free","response_choices":[],"correct_response":"7","response":"7","explain":false,"explanation":"","explanation_history":[],"orientation_history":[[0]],"response_history":["7"],"rt":3217,"trial_type":"polygon-arrow-question","trial_index":0,"trial_index_global":58,"time_elapsed":4187028,"internal_chunk_id":"0-0.12-0"},{"nsides":9,"question":"What is the inverse of 0 under <img src=./images/nonagon_symbol.png style=width:14px;height:14px>?","response_type":"free","response_choices":[],"correct_response":"0","response":"0","explain":false,"explanation":"","explanation_history":[],"orientation_history":[[0]],"response_history":["0"],"rt":10934,"trial_type":"polygon-arrow-question","trial_index":0,"trial_index_global":59,"time_elapsed":4197963,"internal_chunk_id":"0-0.12-0"},{"nsides":9,"question":"What is the inverse of 3 under <img src=./images/nonagon_symbol.png style=width:14px;height:14px>? Please explain in words how you got your answer.","response_type":"free","response_choices":[],"correct_response":"6","response":"7","explain":true,"explanation":"9 minus 3 is 7","explanation_history":["9 minus 3 is 7"],"orientation_history":[[0]],"response_history":["7"],"rt":14910,"trial_type":"polygon-arrow-question","trial_index":0,"trial_index_global":60,"time_elapsed":4212874,"internal_chunk_id":"0-0.12-0"},{"nsides":9,"question":"Is 2 a generator under <img src=./images/nonagon_symbol.png style=width:14px;height:14px>? Please explain in words how you got your answer.","response_type":"multi","response_choices":["Yes","No"],"correct_response":"Yes","response":"No","explain":true,"explanation":"Not every number under 9 can be made with 2","explanation_history":["No","N","Not every number under 9 a","Not ev ery numb er under 9 can be made with 2.","Not every number under 9 can be made with 2"],"orientation_history":[[0]],"response_history":["No"],"rt":27790,"trial_type":"polygon-arrow-question","trial_index":0,"trial_index_global":61,"time_elapsed":4240666,"internal_chunk_id":"0-0.12-0"},{"nsides":9,"question":"Is 3 a generator under <img src=./images/nonagon_symbol.png style=width:14px;height:14px>? Please explain in words how you got your answer.","response_type":"multi","response_choices":["Yes","No"],"correct_response":"No","response":"No","explain":true,"explanation":"Not every number under 9 can be made with 3","explanation_history":["Not every number under 9 can be made with 3"],"orientation_history":[[0]],"response_history":["No"],"rt":113394,"trial_type":"polygon-arrow-question","trial_index":0,"trial_index_global":62,"time_elapsed":4354068,"internal_chunk_id":"0-0.12-0"},{"nsides":9,"question":"Is 5 a generator under <img src=./images/nonagon_symbol.png style=wid th:14px; height:14px>? Please explain in words how you got your answer.","response_type":"multi","response_choices":["Yes","No"],"correct_response":"Yes","response":"No","explain":true,"explanation":"Not every number under 9 can be made with 5","explanation_history":["Not every number under 9 can be made with 5"],"orientation_history":[[0]],"response_history":["No"],"rt":9776,"trial_type":"polygon-arrow-question","trial_index":0,"trial_index_global":63,"time_elapsed":4363849,"internal_chunk_id":"0-0.12-0"},{"nsides":9,"question":"Is 6 a generator under <img src=./images/nonagon_symbol.png style=width:14px;height:14px>? Please explain in words how you got your answer.","response_type":"multi","response_choices":["Yes","No"],"correct_response":"No","response":"Yes","explain":true,"explanation":"Every number under 9 can be made with 6","explanation_history":["Every number under 9 can be made with 2","Every number under 9 can be made with 6"],"orientation_history":[[0]],"response_history":["Yes"],"rt":10013,"trial_type":"polygon-arrow-question","trial_index":0,"trial_index_global":64,"time_elapsed":4373864,"internal_chunk_id":"0-0.12-0"},{"nsides":"n","instructions":"Now we'd like to ask you some questions about <img src=./images/ngon_symbol.png style=width:14px;height:14px>, where n could be any positive counting number. For example, n could be 3, and the polygon a triangle, or n could be any other counting number you can think of. If you need to write the operation, you can use (n), and your answers can include n to stand in for the arbitrary value if necessary. (You can use the polygon at the right to think, but it doesn't necessarily correspond to the real polygon, which is why we've left most of it dashed.)","orientation_history":[0],"rt":7686,"trial_type":"polygon-arrow-instructions","trial_index":0,"trial_index_global":65,"time_elapsed":4381552,"internal_chunk_id":"0-0"},{"nsides":"n","question":"What is the formula for the inverse of 1  under < img src=./images/ngon_symbol.png style=width:14px;height:14px>?","response_type":"free","response_choices":[],"correct_response":"n-1","response":"I'm not sure","explain":false,"explanation":"","explanation_history":[],"orientation_history":[[0]],"response_history":["I hav","I ha","I h","I ","I'm not sure"],"rt":16441,"trial_type":"polygon-arrow-question","trial_index":0,"trial_index_global":66,"time_elapsed":4397995,"internal_chunk_id":"0-0.14-0"},{"nsides":"n","question":"What is the formula for the inverse of an element x under <img src=./images/ngon_symbol.png style=width:14px;height:14px>? Please explain in words why your answer is correct.","response_type":"free","response_choices":[],"correct_response":"n-x","response":"I don't know","explain":true,"explanation":"I don't know how to calculate this","explanation_history":["I don't know how to calculate this"],"orientation_history":[[0]],"response_history":["I don't know"],"rt":77580,"trial_type":"polygo n-arrow- question","trial_index":0,"trial_index_global":67,"time_elapsed":4475576,"internal_chunk_id":"0-0.14-0"},{"nsides":"n","question":"Is there a pattern to which elements are generators? How can you know if an element x is a generator under <img src=./images/ngon_symbol.png style=width:14px;height:14px> without seeing whether it can make all the elements?.","response_type":"free","response_choices":[],"correct_response":"","response":"I don't know","explain":false,"explanation":"","explanation_history":[],"orientation_history":[[0]],"response_history":["I don't know"],"rt":12791,"trial_type":"polygon-arrow-question","trial_index":0,"trial_index_global":68,"time_elapsed":4488375,"internal_chunk_id":"0-0.14-0"},{"nsides":"n","question":"True or false: If x is an odd number, it must be a generator under <img src=./images/ngon_symbol.png style=width:14px;height:14px>.","response_type":"multi","response_choices":["True","False"],"correct_response":"False","response":"False","explain":false,"explanation":"","explanation_history":[],"orientation_history":[[0]],"response_history":["False"],"rt":4090,"trial_type":"polygon-arrow-question","trial_index":0,"trial_index_global":69,"time_elapsed":4492468,"internal_chunk_id":"0-0.14-0"},{"nsides":"n","question":"True or false: If x is an even number, it must not be a generator under <img src=./images/ngon_symbol.png style=width:14px;height:14px>.","response_type":"multi","response_choices":["True","False"],"correct_response":"False","response":"True","explain":false,"explanation":"","explanation_history":[],"orientation_history":[[0]],"response_history":["True"],"rt":5290,"trial_type":"polygon-arrow-question","trial_index":0,"trial_index_global":70,"time_elapsed":4497759,"internal_chunk_id":"0-0.14-0"},{"nsides":"n","question":"True or false: If x is not a generator under <img src=./images/ngon_symbol.png style=width:14px;height:14px>, x must be a divisor of n, that is, x must divide n ev enly, wi th no remainder.","response_type":"multi","response_choices":["True","False"],"correct_response":"False","response":"False","explain":false,"explanation":"","explanation_history":[],"orientation_history":[[0]],"response_history":["False"],"rt":8302,"trial_type":"polygon-arrow-question","trial_index":0,"trial_index_global":71,"time_elapsed":4506063,"internal_chunk_id":"0-0.14-0"},{"nsides":"n","question":"True or false: If x is not a generator under <img src=./images/ngon_symbol.png style=width:14px;height:14px>, x must be a multiple of a divisor of n. Please explain in words how you got your answer.","response_type":"multi","response_choices":["True","False"],"correct_response":"True","response":"False","explain":true,"explanation":"I'm not sure about this answer","explanation_history":["I'm not sure about this answer"],"orientation_history":[[0]],"response_history":["False"],"rt":20166,"trial_type":"polygon-arrow-question","trial_index":0,"trial_index_global":72,"time_elapsed":4526231,"internal_chunk_id":"0-0.14-0"},{"nsides":"n","question":"If an element x is a generator under <img src=./images/ngon_symbol.png style=width:14px;height:14px>, is its inverse a generator under <img src=./images/ngon_symbol.png style=width:14px;height:14px> always, sometimes, or never?","response_type":"multi","response_choices":["Always","Sometimes","Never"],"correct_response":"Always","response":"Sometimes","explain":false,"explanation":"","explanation_history":[],"orientation_history":[[0]],"response_history":["Sometimes"],"rt":141741,"trial_type":"polygon-arrow-question","trial_index":0,"trial_index_global":73,"time_elapsed":4667983,"internal_chunk_id":"0-0.14-0"},{"nsides":"n","question":"If an element x is a generator under <img src=./images/ngon_symbol.png style=width:14px;height:14px>, is x <img src=./images/ngon_symbol.png style=width:14px;height:14px> x a generator under <img src=./images/ngon_symbol.png style=width: 14px;hei ght:14px> always, sometimes, or never? Please explain in words how you got your answer.","response_type":"multi","response_choices":["Always","Sometimes","Never"],"correct_response":"Sometimes","response":"Sometimes","explain":true,"explanation":"I'm not sure about this answer","explanation_history":["I'm not sure about this answer"],"orientation_history":[[0]],"response_history":["Sometimes"],"rt":13955,"trial_type":"polygon-arrow-question","trial_index":0,"trial_index_global":74,"time_elapsed":4681950,"internal_chunk_id":"0-0.14-0"},{"nsides":"n","question":"If an element x is not a generator under <img src=./images/ngon_symbol.png style=width:14px;height:14px>, is x <img src=./images/ngon_symbol.png style=width:14px;height:14px> x a generator under <img src=./images/ngon_symbol.png style=width:14px;height:14px> always, sometimes, or never?","response_type":"multi","response_choices":["Always","Sometimes","Never"],"correct_response":"Never","response":"So metimes","explain":false,"explanation":"","explanation_history":[],"orientation_history":[[0]],"response_history":["Sometimes"],"rt":5623,"trial_type":"polygon-arrow-question","trial_index":0,"trial_index_global":75,"time_elapsed":4687575,"internal_chunk_id":"0-0.14-0"},{"instructions":"We would like to ask you some questions about your background. Please press Continue to continue.","rt":1365,"trial_type":"instructions","trial_index":0,"trial_index_global":76,"time_elapsed":4688941,"internal_chunk_id":"0-0.15-0"},{"question":"What is your age?","response_type":"free","response_choices":[],"correct_response":"","response":"35","explain":false,"explanation":"","explanation_history":[],"response_history":["35"],"rt":2665,"trial_type":"question","trial_index":0,"trial_index_global":77,"time_elapsed":4691608,"internal_chunk_id":"0-0.15-0"},{"question":"What is your level of education?","response_type":"multi","response_choices":["Did not graduate high school","High school di ploma"," Some college, no degree","Associates Degree","Bachelors Degree","Some graduate school, no degree","Masters Degree","Doctorate, M.D., etc."],"correct_response":"","response":"Bachelors Degree","explain":false,"explanation":"","explanation_history":[],"response_history":["Bachelors Degree"],"rt":2652,"trial_type":"question","trial_index":0,"trial_index_global":78,"time_elapsed":4694261,"internal_chunk_id":"0-0.15-0"},{"question":"What is the most advanced math class you've completed? If you have multiple classes and you're not sure which one is most advanced, please list them.","response_type":"free","response_choices":[],"correct_response":"","response":"Calculus (freshman year)","explain":false,"explanation":"","explanation_history":[],"response_history":["Calculus (freshman year)"],"rt":29736,"trial_type":"question","trial_index":0,"trial_index_global":79,"time_elapsed":4723998,"internal_chunk_id":"0-0.15-0"},{"question":"How familiar are you with the concept of modular ari thmetic? ","response_type":"multi","response_choices":["1 - never heard of it","2 - heard of it but didn't know what it was","3 - seen it used or explained","4 - used it but not often or recently","5 - used it, remember and understand it"],"correct_response":"1","response":"1 - never heard of it","explain":false,"explanation":"","explanation_history":[],"response_history":["1 - never heard of it"],"rt":4388,"trial_type":"question","trial_index":0,"trial_index_global":80,"time_elapsed":4728390,"internal_chunk_id":"0-0.15-0"},{"question":"How familiar are you with the concept of a mathematical group?","response_type":"multi","response_choices":["1 - never heard of it","2 - heard of it but didn't know what it was","3 - seen it used or explained","4 - used it but not often or recently","5 - used it, remember and understand it"],"correct_response":"1","response":"1 - never heard of it","explain":false,"explanation":"","explanation_history":[],"response_history":["1 - never heard of it"],"rt":8815,"trial_type":"question","trial_index":0,"trial_index_global":81,"time_elapsed":4737206,"internal_chunk_id":"0-0.15-0"},{"question":"Do you feel you learned something from this HIT?","response_type":"multi","response_choices":["1 - not at all","2 - somewhat","3 - definitely"],"correct_response":"1","response":"2 - somewhat","explain":false,"explanation":"","explanation_history":[],"response_history":["2 - somewhat"],"rt":7670,"trial_type":"question","trial_index":0,"trial_index_global":82,"time_elapsed":4744877,"internal_chunk_id":"0-0.15-0"},{"question":"Do you feel you understood the concepts in this HIT?","response_type":"multi","response_choices":["1 - not at all","2 - somewhat","3 - definitely"],"correct_response":"1","response":"2 - somewhat","explain":false,"explanation":"","explanation_history":[],"response_history":["2 - somewhat"],"rt":3406,"trial_type":"question","trial_index":0,"trial_index_global":83,"time_elapsed":4748284,"internal_chunk_id":"0-0.15-0"},{"question":"Di d you enjoy this HIT?","response_type":"multi","response_choices":["1 - not at all","2 - somewhat","3 - definitely"],"correct_response":"1","response":"2 - somewhat","explain":false,"explanation":"","explanation_history":[],"response_history":["2 - somewhat"],"rt":3039,"trial_type":"question","trial_index":0,"trial_index_global":84,"time_elapsed":4751325,"internal_chunk_id":"0-0.15-0"},{"question":"What is your gender?","response_type":"multi","response_choices":["Female","Male","Other"],"correct_response":"","response":"Female","explain":false,"explanation":"","explanation_history":[],"response_history":["Female"],"rt":1950,"trial_type":"question","trial_index":0,"trial_index_global":85,"time_elapsed":4753277,"internal_chunk_id":"0-0.15-0"},{"question":"What is/are your native language(s)? (The languages spoken in your household when you were a child.)","response_type":"free","response_choices":[],"correct_response":"","response":"English","explain":false,"explanation":"","explanation_history":[],"response_history":["English"],"rt":6858,"trial_type":"question","trial_index":0,"trial_index_global":86,"time_elapsed":4760135,"internal_chunk_id":"0-0.15-0"},{"question":"Did you use pen and paper at any point on this HIT?","response_type":"free","response_choices":[],"correct_response":"","response":"No","explain":false,"explanation":"","explanation_history":[],"response_history":["No"],"rt":3692,"trial_type":"question","trial_index":0,"trial_index_global":87,"time_elapsed":4763829,"internal_chunk_id":"0-0.15-0"},{"question":"Do you have any comments on this HIT?","response_type":"free","response_choices":[],"correct_response":"","response":"No","explain":false,"explanation":"","explanation_history":[],"response_history":["More explanations? ","N","I woul","I ","I","No"],"rt":100281,"trial_type":"question","trial_index":0,"trial_index_global":88,"time_elapsed":4864110,"internal_chunk_id":"0-0.15-0"}]