[{"nsides":6,"instructions":"Let's define a new operation <img src=./images/hexagon_symbol.png style=width:14px;height:14px>. This operation will give us a way of combining two of the numbers 0, 1, 2, 3, 4, 5 to get another one of them back. Consider the hexagon at the right, where I've labeled each point with one of the numbers. To perform <img src=./images/hexagon_symbol.png style=width:14px;height:14px>, you can use the interactive diagram on the right, or perform the operation in your mind. Point the arrow at the first number on the hexagon by clicking, then click (or click and drag) to move the arrow the second number of points clockwise around the hexagon. The number the arrow arrives at is your result. (The operation is called <img src=./images/hexagon_symbol.png style=width:14px;height:14px> because it uses the hexagon, which has 6 sides.) <br /><br />For example, 3 <img src=./images/hexagon_symbol.png style=width:14px;height:14px> 5 =  2, becau se 5 steps clockwise from 3 on the hexagon brings us to 2. So 3 <img src=./images/hexagon_symbol.png style=width:14px;height:14px> 5 = 2.<br /><br />Similarly, 1 <img src=./images/hexagon_symbol.png style=width:14px;height:14px> 4 = 5, because 4 steps clockwise from 1 brings us to 5. <br /><br />Click Continue when you're ready to move on.","orientation_history":[0],"rt":6670,"trial_type":"polygon-arrow-instructions","trial_index":0,"trial_index_global":1,"time_elapsed":8678,"internal_chunk_id":"0-0"},{"nsides":6,"instructions":"Do you see how <img src=./images/hexagon_symbol.png style=width:14px;height:14px> works? By labeling the points of the hexagon with the numbers from 0 to 5, we ensure that when we combine two numbers under <img src=./images/hexagon_symbol.png style=width:14px;height:14px>, we only produce numbers between 0 and 5.<br /><br />Click Continue when you are ready to move on.","orientation_history":[0],"rt":2752,"trial_type":"polygon-arrow-instructions","trial_index":0,"trial_index_global":2,"time_elapsed":11434,"internal_chunk_id":"0-0"},{"nsides":6,"question":"Now try one on your own! What is 4 <img src=./images/hexagon_symbol.png style=width:14px;height:14px> 5? <br /><br /> (Remember, to perform <img src=./images/hexagon_symbol.png style=width:14px;height:14px>, you can use the interactive diagram on the right, or perform the operation in your mind. Point the arrow at the first number on the hexagon, then move the arrow the second number of points clockwise around the hexagon. The number the arrow arrives at is your result.)","response_type":"free","response_choices":[],"correct_response":"3","response":"3","explain":false,"explanation":"","explanation_history":[],"orientation_history":[[0],[4.2235366260569425,4.2235366260569425,4.2235366260569425,4.2235366260569425,4.2235366260569425,4.1887902047863905],[5.264043962913236,5.235987755982988],[4.1426325269017115,4.1426325269017115,4.1426325269017115,4.1426325269017115,4.1426325269017115,4.1887902047863905],[4.1678372722286525,4.1678372722286525,4.1678372722286525,4.1678372722286525,4.1678372722286525,4.163839577934162,4.163839577934162,4.163839577934162,4.163839577934162,4.163839577934162,4.163839577934162,4.163839577934162,4.163839577934162,4.163839577934162,4.163839577934162,4.163839577934162,4.163839577934162,4.16995741039474,4.16995741039474,4.175953522779959,4.175953522779959,4.1818310933552425,4.1818310933552425,4.1887902047863905],[4.187593208734583,4.187593208734583,4.187593208734583,4.187593208734583,4.187593208734583,4.187593208734583,4.187593208734583,4.187593208734583,4.187593208734583,4.1887902047863905],[4.193242866138167,4.193242866138167,4.193242866138167,4.193242866138167,4.193242866138167,4.193242866138167,4.193242866138167,4.193242866138167,4.193242866138167,4.193242866138167,4.1887902047863905],[4.193242866138167,4.193242866138167,4.193242866138167,4.193242866138167,4.193242866138167,4.193242866138167,4.193242866138167,4.193242866138167,4.193242866138167,4.193242866138167,4.1887902047863905],[5.230170838997376,5.230170838997376,5.230170838997376,5.230170838997376,5.230170838997376,5.230170838997376,5.230170838997376,5.230170838997376,5.230170838997376,5.230170838997376,5.235987755982988],[4.12135608308226,4.12135608308226,4.12135608308226,4.12135608308226,4.12135608308226,4.12135608308226,4.12135608308226,4.1887902047863905],[4.205290475992353,4.205290475992353,4.205290475992353,4.205290475992353,4.205290475992353,4.205290475992353,4.205290475992353,4.205290475992353,4.205290475992353,4.205290475992353,4.205290475992353,4.205290475992353,4.205290475992353,4.205290475992353,4.210482537332696,4.263303448776622,4.29304733283466,4.317597860684929,4.338055364377106,4.373096365930645,4.383596288879735,4.426337538667372,4.437199731255518,4.459123214153937,4.494951560981742,4.532535480592212,4.554620242788736,4.576861266399189,4.599237998794205,4.621729093183944,4.6330106658251164,4.666965700963113,4.689665619543049,4.7237521276489804,4.735112341226331,4.78046543864269,4.791767294944263,4.836743974931451,4.859055474181883,4.8812208823958105,4.914151324704976,4.9466441939789405,4.968033905662625,4.98918713901668,5.020441761408466,5.061159983968596,5.090934575696183,5.100707698557155,5.120020485842316,5.129558458034493,5.139016473511566,5.139016473511566,5.157690024272375,5.166904423166085,5.166904423166085,5.166904423166085,5.166904423166085,5.166904423166085,5.176036589385496,5.185086116099279,5.185086116099279,5.194052657939551,5.202935929211598,5.21173570206482,5.21173570206482,5.21173570206482,5.21173570206482,5.21173570206482,5.21173570206482,5.21173570206482,5.220451804632407,5.220451804632407,5.220451804632407,5.220451804632407,5.220451804632407,5.220451804632407,5.220451804632407,5.220451804632407,5.220451804632407,5.220451804632407,5.220451804632407,5.220451804632407,5.235987755982988],[5.235987755982988,5.235987755982988,5.235987755982988,5.235987755982988,5.235987755982988,5.235987755982988,5.235987755982988],[5.235987755982988,5.235987755982988,5.235987755982988,5.235987755982988,5.235987755982988,5.235987755982988,5.235987755982988,5.235987755982988],[5.235987755982988,5.235987755982988,5.235987755982988,5.235987755982988,5.235987755982988,5.235987755982988,5.235987755982988],[4.177794656943695,4.177794656943695,4.177794656943695,4.177794656943695,4.177794656943695,4.1887902047863905]],"response_history":["3"],"rt":90485,"trial_type":"polygon-arrow-question","trial_index":0,"trial_index_global":3,"time_elapsed":101921,"internal_chunk_id":"0-0.3-0"},{"nsides":6,"feedback":"Correct! 4 <img src=./images/hexagon_symbol.png style=width:14px;height:14px> 5 = 3 because 5 steps clockwise on the hexagon from 4 brings us to 3","orientation_history":[0],"rt":1258,"trial_type":"polygon-arrow-feedback","trial_index":0,"trial_index_global":4,"time_elapsed":103183,"internal_chunk_id":"0-0.3-0"},{"nsides":6,"question":"W hat is 3  <img src=./images/hexagon_symbol.png style=width:14px;height:14px> 2? <br /><br /> (Remember, to perform <img src=./images/hexagon_symbol.png style=width:14px;height:14px>, you can use the interactive diagram on the right, or perform the operation in your mind. Point the arrow at the first number on the hexagon, then move the arrow the second number of points clockwise around the hexagon. The number the arrow arrives at is your result.)","response_type":"free","response_choices":[],"correct_response":"5","response":"5","explain":false,"explanation":"","explanation_history":[],"orientation_history":[[0],[3.153787171038045,3.153787171038045,3.153787171038045,3.153787171038045,3.141592653589793],[5.218339379655766,5.218339379655766,5.218339379655766,5.218339379655766,5.218339379655766,5.218339379655766,5.218339379655766,5.218339379655766,5.235987755982988]],"response_history":["5"],"rt":7907,"trial_type":"polygon-arrow-question","trial_index":0,"trial_index_global":5,"time_elapsed":111093,"internal_chunk_id":"0-0.3-0"},{"nsides":6,"feedback":"Correct! 3 <img src=./images/hexagon_symbol.png style=width:14px;height:14px> 2 = 5 because 2 steps clockwise on the hexagon from 3 brings us to 5","orientation_history":[0],"rt":752,"trial_type":"polygon-arrow-feedback","trial_index":0,"trial_index_global":6,"time_elapsed":111848,"internal_chunk_id":"0-0.3-0"},{"nsides":6,"question":"What is 1 <img src=./images/hexagon_symbol.png style=width:14px;height:14px> 5? <br /><br /> (Remember, to perform <img src=./images/hexagon_symbol.png style=width:14px;height:14px>, you can use the interactive diagram on the right, or perform the operation in your mind. Point the arrow at the first number on the hexagon, then move the arrow the second number of points clockwise around the hexagon. The number the arrow arrives at is your result.)","response_type":"free","response_choices":[],"correct_response":"0","response":"0","explain":false,"explanation":"","explanation_history":[],"orientation_history":[[0],[1.059565614517107,1.059565614517107,1.059565614517107,1.059565614517107,1.059565614517107,1.0471975511965976]],"response_history":["0"],"rt":7604,"trial_type":"polygon-arrow-question","trial_index":0,"trial_index_global":7,"time_elapsed":119453,"internal_chunk_id":"0-0.3-0"},{"nsides":6,"feedback":"Correct! 1 <img src=./images/hexagon_symbol.png style=width:14px;height:14px> 5 = 0 because 5 steps clockwise on the hexagon from 1 brings us to 0","orientation_history":[0],"rt":827,"trial_type":"polygon-arrow-feedback","trial_index":0,"trial_index_global":8,"time_elapsed":120282,"internal_chunk_id":"0-0.3-0"},{"nsides":6,"question":"What is 1 <img src=./images/hexagon_symbol.png style=width:14px;height:14px> 1? <br /><br /> (Remember, to perform <img src=./images/hexagon_symbol.png style=width:14px;height:14px>, you can use the interactive diagram on the right, or perform the operation in your m ind. Poi nt the arrow at the first number on the hexagon, then move the arrow the second number of points clockwise around the hexagon. The number the arrow arrives at is your result.)","response_type":"free","response_choices":[],"correct_response":"2","response":"2","explain":false,"explanation":"","explanation_history":[],"orientation_history":[[0],[1.0714496051147664,1.0714496051147664,1.0714496051147664,1.0714496051147664,1.0714496051147664,1.0714496051147664,1.0714496051147664,1.0471975511965976]],"response_history":["2"],"rt":9802,"trial_type":"polygon-arrow-question","trial_index":0,"trial_index_global":9,"time_elapsed":130086,"internal_chunk_id":"0-0.3-0"},{"nsides":6,"feedback":"Correct! 1 <img src=./images/hexagon_symbol.png style=width:14px;height:14px> 1 = 2 because 1 step clockwise on the hexagon from 1 brings us to 2","orientation_history":[0],"rt":743,"trial_type":"polygon-arrow-feedback","trial_index":0,"trial_index_global":10,"time_elapsed":130832,"internal_chunk_id":"0-0.3-0"},{"nsides":6,"question":"What is 3 <img src=./images/hexagon_symbol.png style=width:14px;height:14px> 0? <br /><br /> (Remember, to perform <img src=./images/hexagon_symbol.png style=width:14px;height:14px>, you can use the interactive diagram on the right, or perform the operation in your mind. Point the arrow at the first number on the hexagon, then move the arrow the second number of points clockwise around the hexagon. The number the arrow arrives at is your result.)","response_type":"free","response_choices":[],"correct_response":"3","response":"3","explain":false,"explanation":"","explanation_history":[],"orientation_history":[[0],[3.1640607821756186,3.1640607821756186,3.1640607821756186,3.1640607821756186,3.1640607821756186,3.1640607821756186,3.141592653589793]],"response_history":["3"],"rt":4051,"trial_type":"polygon-arrow-question","trial_index":0,"trial_index_global":11,"time_elapsed":134885,"internal_chunk_id":"0-0.3-0"},{"nsides":6,"feedback":"Correct! 3 <img src=./images/hexagon_symbol.png style=width:14px;height:14px> 0 = 3 because 0 steps clockwise on the hexagon from 3 brings us to 3","orientation_history":[0],"rt":725,"trial_type":"polygon-arrow-feedback","trial_index":0,"trial_index_global":12,"time_elapsed":135610,"internal_chunk_id":"0-0.3-0"},{"nsides":6,"question":"What is 4 <img src=./images/hexagon_symbol.png style=width:14px;height:14px> 4? <br /><br /> (Remember, to perform <img src=./images/hexagon_symbol.png style=width:14px;height:14px>, you can use the interactive diagram on the right, or perform the operation in your mind. Point the arrow at the first number on the hexagon, then move the arrow the second number of points clockwise around the hexagon. The number the arrow arrives at is your result.)","response_type":"free","response_choices":[],"correct_response":"2","response":"2","explain":false,"explanation":"","explanation_history":[],"orientation_history":[[0],[4.170086243169085,4.170086243169085,4.170086243169085,4.170086243169085,4.170086243169085,4.1887902047863905]],"response_history":["2"],"rt":4787,"trial_type":"polygon-arrow-question","trial_index":0,"trial_index_global":13,"time_elapsed":140398,"internal_chunk_id":"0-0.3-0"},{"nsides":6,"feedback":"Correct! 4 <img src=./images/hexagon_symbol.png style=width:14px;height:14px> 4 = 2 because 4 steps clockwise on the hexagon from 4 brings us to 2","orientation_history":[0],"rt":761,"trial_type":"polygon-arrow-feedback","trial_index":0,"trial_index_global":14,"time_elapsed":141160,"internal_chunk_id":"0-0.3-0"},{"nsides":6,"question":"What is 1 <img src=./images/hexagon_symbol.png style=width:14px;height:14px> 3? <br /><br /> (Remember, to perform <img src=./images/hexagon_symbol.png style=width:14px;height:14px>, you can use the interactive diagram on the right, or perform the operation in your mind. Point the arrow at the first number on the hexagon, then move the a rrow the  second number of points clockwise around the hexagon. The number the arrow arrives at is your result.)","response_type":"free","response_choices":[],"correct_response":"4","response":"4","explain":false,"explanation":"","explanation_history":[],"orientation_history":[[0]],"response_history":["4"],"rt":4391,"trial_type":"polygon-arrow-question","trial_index":0,"trial_index_global":15,"time_elapsed":145552,"internal_chunk_id":"0-0.3-0"},{"nsides":6,"feedback":"Correct! 1 <img src=./images/hexagon_symbol.png style=width:14px;height:14px> 3 = 4 because 3 steps clockwise on the hexagon from 1 brings us to 4","orientation_history":[0],"rt":681,"trial_type":"polygon-arrow-feedback","trial_index":0,"trial_index_global":16,"time_elapsed":146234,"internal_chunk_id":"0-0.3-0"},{"nsides":6,"question":"What is 4 <img src=./images/hexagon_symbol.png style=width:14px;height:14px> 3? <br /><br /> (Remember, to perform <img src=./images/hexagon_symbol.png style=width:1 4px;heig ht:14px>, you can use the interactive diagram on the right, or perform the operation in your mind. Point the arrow at the first number on the hexagon, then move the arrow the second number of points clockwise around the hexagon. The number the arrow arrives at is your result.)","response_type":"free","response_choices":[],"correct_response":"1","response":"1","explain":false,"explanation":"","explanation_history":[],"orientation_history":[[0],[4.177433906598593,4.177433906598593,4.177433906598593,4.177433906598593,4.177433906598593,4.1887902047863905]],"response_history":["1"],"rt":12350,"trial_type":"polygon-arrow-question","trial_index":0,"trial_index_global":17,"time_elapsed":158585,"internal_chunk_id":"0-0.3-0"},{"nsides":6,"feedback":"Correct! 4 <img src=./images/hexagon_symbol.png style=width:14px;height:14px> 3 = 1 because 3 steps clockwise on the hexagon from 4 brings us to 1","orientation_history":[0],"rt":1379,"trial_type":"polygon-arrow-feedback","trial_index":0,"trial_index_global":18,"time_elapsed":159966,"internal_chunk_id":"0-0.3-0"},{"nsides":6,"question":"What is 0 <img src=./images/hexagon_symbol.png style=width:14px;height:14px> 5? <br /><br /> (Remember, to perform <img src=./images/hexagon_symbol.png style=width:14px;height:14px>, you can use the interactive diagram on the right, or perform the operation in your mind. Point the arrow at the first number on the hexagon, then move the arrow the second number of points clockwise around the hexagon. The number the arrow arrives at is your result.)","response_type":"free","response_choices":[],"correct_response":"5","response":"5","explain":false,"explanation":"","explanation_history":[],"orientation_history":[[0]],"response_history":["5"],"rt":6178,"trial_type":"polygon-arrow-question","trial_index":0,"trial_index_global":19,"time_elapsed":166147,"internal_chunk_id":"0-0.3-0"},{"nsides":6,"feedback":"Correct! 0 <img src=./images/hexagon_symbol.png style= width:14 px;height:14px> 5 = 5 because 5 steps clockwise on the hexagon from 0 brings us to 5","orientation_history":[0],"rt":739,"trial_type":"polygon-arrow-feedback","trial_index":0,"trial_index_global":20,"time_elapsed":166889,"internal_chunk_id":"0-0.3-0"},{"nsides":6,"question":"What is 2 <img src=./images/hexagon_symbol.png style=width:14px;height:14px> 5? <br /><br /> (Remember, to perform <img src=./images/hexagon_symbol.png style=width:14px;height:14px>, you can use the interactive diagram on the right, or perform the operation in your mind. Point the arrow at the first number on the hexagon, then move the arrow the second number of points clockwise around the hexagon. The number the arrow arrives at is your result.)","response_type":"free","response_choices":[],"correct_response":"1","response":"1","explain":false,"explanation":"","explanation_history":[],"orientation_history":[[0],[1.963854345976829,1.963854345976829,1.963854345976829,2.0943951023931953],[2.144050737187869,2.144050737187869,2.144050737187869,2.144050737187869,2.144050737187869,2.0943951023931953]],"response_history":["1"],"rt":5468,"trial_type":"polygon-arrow-question","trial_index":0,"trial_index_global":21,"time_elapsed":172359,"internal_chunk_id":"0-0.3-0"},{"nsides":6,"feedback":"Correct! 2 <img src=./images/hexagon_symbol.png style=width:14px;height:14px> 5 = 1 because 5 steps clockwise on the hexagon from 2 brings us to 1","orientation_history":[0],"rt":856,"trial_type":"polygon-arrow-feedback","trial_index":0,"trial_index_global":22,"time_elapsed":173216,"internal_chunk_id":"0-0.3-0"},{"nsides":6,"instructions":"Now we're going to discuss a couple special properties of this new operation, <img src=./images/hexagon_symbol.png style=width:14px;height:14px> that we've learned. First, notice that the number 0 behaves in a special way under <img src=./images/hexagon_symbol.png style=width:14px;height:14px>. Whenever we combine 0 with anythi ng else,  we get that same thing back. We'll say that 0 is the <i>identity</i> under <img src=./images/hexagon_symbol.png style=width:14px;height:14px>, because when you combine it with something it gives you that identical thing back.","orientation_history":[0],"rt":37883,"trial_type":"polygon-arrow-instructions","trial_index":0,"trial_index_global":23,"time_elapsed":211103,"internal_chunk_id":"0-0"},{"nsides":6,"instructions":"Now that we know 0 is the identity under <img src=./images/hexagon_symbol.png style=width:14px;height:14px>, we're going to make a new definition. We'll say that the <i>inverse</i> of a number is the element that you combine with it to produce the identity under our operation. For example, 5 <img src=./images/hexagon_symbol.png style=width:14px;height:14px> 1 = 0, so we say 1 is the inverse of 5 under <img src=./images/hexagon_symbol.png style=width:14px;height:14px>, (remember 0 is the identity under <img src=./images/hexago n_symbol .png style=width:14px;height:14px>). Similarly, 3 is its own inverse under <img src=./images/hexagon_symbol.png style=width:14px;height:14px>, because 3 <img src=./images/hexagon_symbol.png style=width:14px;height:14px> 3 = 0.","orientation_history":[0],"rt":66005,"trial_type":"polygon-arrow-instructions","trial_index":0,"trial_index_global":24,"time_elapsed":277112,"internal_chunk_id":"0-0"},{"nsides":6,"question":"Now you try! What is the inverse of 4 under <img src=./images/hexagon_symbol.png style=width:14px;height:14px>? <br /><br /> (Remember, the inverse of an element is the thing which you combine with it to produce the identity.)","response_type":"free","response_choices":[],"correct_response":"2","response":"0","explain":false,"explanation":"","explanation_history":[],"orientation_history":[[0],[4.166028955935711,4.166028955935711,4.166028955935711,4.166028955935711,4.166028955935711,4.166028955935711,4.166028955935711,4.1887902047863905]],"response_history":["0"],"rt":30399,"trial_type":"polygon-arrow-question","trial_index":0,"trial_index_global":25,"time_elapsed":307515,"internal_chunk_id":"0-0.7-0"},{"nsides":6,"feedback":"Sorry, that was incorrect. The inverse of 4 under <img src=./images/hexagon_symbol.png style=width:14px;height:14px> is 2 because 4 <img src=./images/hexagon_symbol.png style=width:14px;height:14px> 2 = 0, and 0 is the identity under <img src=./images/hexagon_symbol.png style=width:14px;height:14px>.","orientation_history":[0],"rt":8945,"trial_type":"polygon-arrow-feedback","trial_index":0,"trial_index_global":26,"time_elapsed":316464,"internal_chunk_id":"0-0.7-0"},{"nsides":6,"question":"What is the inverse of 1 under <img src=./images/hexagon_symbol.png style=width:14px;height:14px>? <br /><br /> (Remember, the inverse of an element is the thing which you combine with it to produce the identity.)","response_type":"free","response_choices":[],"correct_response":"5","response":"5","explain":false,"explanation":"","explanation_history":[],"orientation_history":[[0]],"response_history":["5"],"rt":4510,"trial_type":"polygon-arrow-question","trial_index":0,"trial_index_global":27,"time_elapsed":320976,"internal_chunk_id":"0-0.7-0"},{"nsides":6,"feedback":"Correct! The inverse of 1 under <img src=./images/hexagon_symbol.png style=width:14px;height:14px> is 5 because 1 <img src=./images/hexagon_symbol.png style=width:14px;height:14px> 5 = 0, and 0 is the identity under <img src=./images/hexagon_symbol.png style=width:14px;height:14px>.","orientation_history":[0],"rt":877,"trial_type":"polygon-arrow-feedback","trial_index":0,"trial_index_global":28,"time_elapsed":321854,"internal_chunk_id":"0-0.7-0"},{"nsides":6,"question":"What is the inverse of 3 under <img src=./images/hexagon_symbol.png style=width:14px;height:14px>? <br /><br /> (Remember, the inverse of an element is the thing which you combine with it to  produce  the identity.)","response_type":"free","response_choices":[],"correct_response":"3","response":"3","explain":false,"explanation":"","explanation_history":[],"orientation_history":[[0]],"response_history":["3"],"rt":4443,"trial_type":"polygon-arrow-question","trial_index":0,"trial_index_global":29,"time_elapsed":326299,"internal_chunk_id":"0-0.7-0"},{"nsides":6,"feedback":"Correct! The inverse of 3 under <img src=./images/hexagon_symbol.png style=width:14px;height:14px> is 3 because 3 <img src=./images/hexagon_symbol.png style=width:14px;height:14px> 3 = 0, and 0 is the identity under <img src=./images/hexagon_symbol.png style=width:14px;height:14px>.","orientation_history":[0],"rt":598,"trial_type":"polygon-arrow-feedback","trial_index":0,"trial_index_global":30,"time_elapsed":326898,"internal_chunk_id":"0-0.7-0"},{"nsides":6,"question":"What is the inverse of 2 under <img src=./images/hexagon_symbol.png style=width:14px;height:14px>? <br /><b r /> (Re member, the inverse of an element is the thing which you combine with it to produce the identity.)","response_type":"free","response_choices":[],"correct_response":"4","response":"1","explain":false,"explanation":"","explanation_history":[],"orientation_history":[[0]],"response_history":["1"],"rt":11584,"trial_type":"polygon-arrow-question","trial_index":0,"trial_index_global":31,"time_elapsed":338484,"internal_chunk_id":"0-0.7-0"},{"nsides":6,"feedback":"Sorry, that was incorrect. The inverse of 2 under <img src=./images/hexagon_symbol.png style=width:14px;height:14px> is 4 because 2 <img src=./images/hexagon_symbol.png style=width:14px;height:14px> 4 = 0, and 0 is the identity under <img src=./images/hexagon_symbol.png style=width:14px;height:14px>.","orientation_history":[0],"rt":1014,"trial_type":"polygon-arrow-feedback","trial_index":0,"trial_index_global":32,"time_elapsed":339501,"internal_chunk_id":"0-0.7-0"},{"nsides":6,"question":"What is the  inverse  of 0 under <img src=./images/hexagon_symbol.png style=width:14px;height:14px>? <br /><br /> (Remember, the inverse of an element is the thing which you combine with it to produce the identity.)","response_type":"free","response_choices":[],"correct_response":"0","response":"3","explain":false,"explanation":"","explanation_history":[],"orientation_history":[[0]],"response_history":["3"],"rt":9424,"trial_type":"polygon-arrow-question","trial_index":0,"trial_index_global":33,"time_elapsed":348926,"internal_chunk_id":"0-0.7-0"},{"nsides":6,"feedback":"Sorry, that was incorrect. The inverse of 0 under <img src=./images/hexagon_symbol.png style=width:14px;height:14px> is 0 because 0 <img src=./images/hexagon_symbol.png style=width:14px;height:14px> 0 = 0, and 0 is the identity under <img src=./images/hexagon_symbol.png style=width:14px;height:14px>.","orientation_history":[0],"rt":819,"trial_type":"polygon-arrow-feedback","trial_index":0,"trial_index_global":34,"time_elapsed":349746,"internal_chunk_id":"0-0.7-0"},{"instructions":"It is also possible to successively apply <img src=./images/hexagon_symbol.png style=width:14px;height:14px>, and the operation can simply be performed starting with the left-most pair. For example, 2 <img src=./images/hexagon_symbol.png style=width:14px;height:14px> 3 <img src=./images/hexagon_symbol.png style=width:14px;height:14px> 4 = 5 <img src=./images/hexagon_symbol.png style=width:14px;height:14px> 4 = 3.","rt":6637,"trial_type":"instructions","trial_index":0,"trial_index_global":35,"time_elapsed":356384,"internal_chunk_id":"0-0"},{"nsides":6,"instructions":"We have one last definition to learn today, using the successive operations we just learned. Let's start with an example. Under our operation <img src=./images/hexagon_symbol.png style=width:14px;height:14px> we can make every other number using just 1: 2 = 1 <img src=./images/hexagon_symbol.png  style=width:14px;height:14px> 1, 3 = 1 <img src=./images/hexagon_symbol.png style=width:14px;height:14px> 1 <img src=./images/hexagon_symbol.png style=width:14px;height:14px> 1, 4 = 1 <img src=./images/hexagon_symbol.png style=width:14px;height:14px> 1 <img src=./images/hexagon_symbol.png style=width:14px;height:14px> 1 <img src=./images/hexagon_symbol.png style=width:14px;height:14px> 1, 5 = 1 <img src=./images/hexagon_symbol.png style=width:14px;height:14px> 1 <img src=./images/hexagon_symbol.png style=width:14px;height:14px> 1 <img src=./images/hexagon_symbol.png style=width:14px;height:14px> 1 <img src=./images/hexagon_symbol.png style=width:14px;height:14px> 1, and 0 = 1 <img src=./images/hexagon_symbol.png style=width:14px;height:14px> 1 <img src=./images/hexagon_symbol.png style=width:14px;height:14px> 1 <img src=./images/hexagon_symbol.png style=width:14px;height:14px> 1 <img  src=. /images/hexagon_symbol.png style=width:14px;height:14px> 1 <img src=./images/hexagon_symbol.png style=width:14px;height:14px> 1. Because 1 can make every other element under <img src=./images/hexagon_symbol.png style=width:14px;height:14px>, we say that 1 is a <i>generator</i> under <img src=./images/hexagon_symbol.png style=width:14px;height:14px>. <br /><br /> However, 2 is not a generator under <img src=./images/hexagon_symbol.png style=width:14px;height:14px>, because 4 = 2 <img src=./images/hexagon_symbol.png style=width:14px;height:14px> 2, and 0 = 2 <img src=./images/hexagon_symbol.png style=width:14px;height:14px> 2 <img src=./images/hexagon_symbol.png style=width:14px;height:14px> 2, but there is no way to make 1, 3, or 5 using just 2.","orientation_history":[0],"rt":60954,"trial_type":"polygon-arrow-instructions","trial_index":0,"trial_index_global":36,"time_elapsed":417341,"internal_chunk_id":"0-0"},{"nsides":6,"question":"Now you try! Is 3 a generator under <img src=./images/hexagon_symbol.png style=width:14px;height:14px>? <br /><br /> (Remember, a generator is an element which can make every other element.)","response_type":"multi","response_choices":["Yes","No"],"correct_response":"No","response":"No","explain":false,"explanation":"","explanation_history":[],"orientation_history":[[0]],"response_history":["No"],"rt":5154,"trial_type":"polygon-arrow-question","trial_index":0,"trial_index_global":37,"time_elapsed":422498,"internal_chunk_id":"0-0.10-0"},{"nsides":6,"feedback":"Correct! 3 is not a generator under <img src=./images/hexagon_symbol.png style=width:14px;height:14px>, because 3 = 3, 0 = 3 <img src=./images/hexagon_symbol.png style=width:14px;height:14px> 3, but there is no way to make 1, 2, 4, or 5 using just 3.","orientation_history":[0],"rt":760,"trial_type":"polygon-arrow-feedback","trial_index":0,"trial_index_global":38,"time_elapsed":423260,"internal_chunk_id":"0-0.10-0"},{"nsides":6,"question":"Is 5 a generator under <img src=./images/hexagon_symbol.png style=width:14px;height:14px>? <br /><br /> (Remember, a generator is an element which can make every other element.)","response_type":"multi","response_choices":["Yes","No"],"correct_response":"Yes","response":"No","explain":false,"explanation":"","explanation_history":[],"orientation_history":[[0]],"response_history":["No"],"rt":1488,"trial_type":"polygon-arrow-question","trial_index":0,"trial_index_global":39,"time_elapsed":424750,"internal_chunk_id":"0-0.10-0"},{"nsides":6,"feedback":"Sorry, that's incorrect. 5 is a generator under <img src=./images/hexagon_symbol.png style=width:14px;height:14px>, because 5 = 5, 4 = 5 <img src=./images/hexagon_symbol.png style=width:14px;height:14px> 5, 3 = 5 <img src=./images/hexagon_symbol.png style=width:14px;height:14px> 5 <img src=./images/hexagon_symbol.png style=width:14px;height:14px> 5, 2  = 5 <img src=./images/hexagon_symbol.png style=width:14px;height:14px> 5 <img src=./images/hexagon_symbol.png style=width:14px;height:14px> 5 <img src=./images/hexagon_symbol.png style=width:14px;height:14px> 5, 1 = 5 <img src=./images/hexagon_symbol.png style=width:14px;height:14px> 5 <img src=./images/hexagon_symbol.png style=width:14px;height:14px> 5 <img src=./images/hexagon_symbol.png style=width:14px;height:14px> 5 <img src=./images/hexagon_symbol.png style=width:14px;height:14px> 5, and 0 = 5 <img src=./images/hexagon_symbol.png style=width:14px;height:14px> 5 <img src=./images/hexagon_symbol.png style=width:14px;height:14px> 5 <img src=./images/hexagon_symbol.png style=width:14px;height:14px> 5 <img src=./images/hexagon_symbol.png style=width:14px;height:14px> 5 <img src=./images/hexagon_symbol.png style=width:14px;height:14px> 5, so you can make all of the numbers under < img src= ./images/hexagon_symbol.png style=width:14px;height:14px> using 5","orientation_history":[0],"rt":1098,"trial_type":"polygon-arrow-feedback","trial_index":0,"trial_index_global":40,"time_elapsed":425850,"internal_chunk_id":"0-0.10-0"},{"nsides":6,"question":"Is 4 a generator under <img src=./images/hexagon_symbol.png style=width:14px;height:14px>? <br /><br /> (Remember, a generator is an element which can make every other element.)","response_type":"multi","response_choices":["Yes","No"],"correct_response":"No","response":"No","explain":false,"explanation":"","explanation_history":[],"orientation_history":[[0]],"response_history":["No"],"rt":1999,"trial_type":"polygon-arrow-question","trial_index":0,"trial_index_global":41,"time_elapsed":427850,"internal_chunk_id":"0-0.10-0"},{"nsides":6,"feedback":"Correct! 4 is not a generator under <img src=./images/hexagon_symbol.png style=width:14px;height:14px>, because 4 = 4, 2 = 4 <img src=./images/hexagon_ symbol.p ng style=width:14px;height:14px> 4, and 0 = 4 <img src=./images/hexagon_symbol.png style=width:14px;height:14px> 4 <img src=./images/hexagon_symbol.png style=width:14px;height:14px> 4, but there is no way to make 1, 3, or 5 using just 4.","orientation_history":[0],"rt":808,"trial_type":"polygon-arrow-feedback","trial_index":0,"trial_index_global":42,"time_elapsed":428660,"internal_chunk_id":"0-0.10-0"},{"nsides":6,"question":"Is 0 a generator under <img src=./images/hexagon_symbol.png style=width:14px;height:14px>? <br /><br /> (Remember, a generator is an element which can make every other element.)","response_type":"multi","response_choices":["Yes","No"],"correct_response":"No","response":"Yes","explain":false,"explanation":"","explanation_history":[],"orientation_history":[[0]],"response_history":["Yes"],"rt":1625,"trial_type":"polygon-arrow-question","trial_index":0,"trial_index_global":43,"time_elapsed":430285,"internal_chunk_id":"0-0.10-0"},{"nsides":6,"feedback":"Sorry, that's incorrect. 0 is not a generator under <img src=./images/hexagon_symbol.png style=width:14px;height:14px>, because 0 = 0, but there is no way to make 1, 2, 3, 4, or 5 using just 0.","orientation_history":[0],"rt":647,"trial_type":"polygon-arrow-feedback","trial_index":0,"trial_index_global":44,"time_elapsed":430934,"internal_chunk_id":"0-0.10-0"},{"nsides":9,"instructions":"Now we are going to ask you some questions about a new operation, <img src=./images/nonagon_symbol.png style=width:14px;height:14px>, on the numbers 0, 1, 2, 3, 4, 5, 6, 7, 8. It works exactly like <img src=./images/hexagon_symbol.png style=width:14px;height:14px>, except now you use the nonagon shown at the right. <br /><br />Do you see how <img src=./images/nonagon_symbol.png style=width:14px;height:14px> works just like <img src=./images/hexagon_symbol.png style=width:14px;height:14px>? By labeling the points of the nonagon with the  numbers  from 0 to 8, we ensure that when we combine two numbers under <img src=./images/nonagon_symbol.png style=width:14px;height:14px>, we only produce numbers between 0 and 8. <br /><br />We'll give you one practice question with feedback to make sure you understand the new operation. After that, try to complete the remaining questions as accurately as possible.","orientation_history":[0],"rt":5905,"trial_type":"polygon-arrow-instructions","trial_index":0,"trial_index_global":45,"time_elapsed":436841,"internal_chunk_id":"0-0"},{"nsides":9,"question":"Practice: What is 5 <img src=./images/nonagon_symbol.png style=width:14px;height:14px> 5?","response_type":"free","response_choices":[],"correct_response":"1","response":"1","explain":false,"explanation":"","explanation_history":[],"orientation_history":[[0],[3.5055716100994374,3.5055716100994374,3.5055716100994374,3.5055716100994374,3.5055716100994374,3.5055716100994374,3.5055716100994374,3.490658503988659]],"response_history":["1"],"rt":8682,"trial_type":"polygon-arrow-question","trial_index":0,"trial_index_global":46,"time_elapsed":445524,"internal_chunk_id":"0-0.12-0"},{"nsides":9,"feedback":"Correct! 5 <img src=./images/nonagon_symbol.png style=width:14px;height:14px> 5 = 1 because 5 steps clockwise on the nonagon from 5 brings us to 1","orientation_history":[0],"rt":540,"trial_type":"polygon-arrow-feedback","trial_index":0,"trial_index_global":47,"time_elapsed":446068,"internal_chunk_id":"0-0.12-0"},{"nsides":9,"question":"What is 3 <img src=./images/nonagon_symbol.png style=width:14px;height:14px> 3?","response_type":"free","response_choices":[],"correct_response":"6","response":"6","explain":false,"explanation":"","explanation_history":[],"orientation_history":[[0]],"response_history":["6"],"rt":3687,"trial_type":"polygon-arrow-question","trial_index":0,"trial_index_global":48,"time_elapsed":449757,"internal_chunk_id":"0-0.12-0"},{"nsides":9,"question":"What is 7 <img sr c=./im ages/nonagon_symbol.png style=width:14px;height:14px> 4?","response_type":"free","response_choices":[],"correct_response":"2","response":"2","explain":false,"explanation":"","explanation_history":[],"orientation_history":[[0],[4.918712874414407,4.918712874414407,4.918712874414407,4.918712874414407,4.918712874414407,4.918712874414407,4.918712874414407,4.918712874414407,4.918712874414407,4.886921905584122]],"response_history":["2"],"rt":5892,"trial_type":"polygon-arrow-question","trial_index":0,"trial_index_global":49,"time_elapsed":455650,"internal_chunk_id":"0-0.12-0"},{"nsides":9,"question":"What is 1 <img src=./images/nonagon_symbol.png style=width:14px;height:14px> 8?","response_type":"free","response_choices":[],"correct_response":"0","response":"0","explain":false,"explanation":"","explanation_history":[],"orientation_history":[[0],[0.6849620513485973,0.6849620513485973,0.6981317007977318]],"response_history":["0"],"rt":6296,"trial_type":"polygon-arrow-que stion","trial_index":0,"trial_index_global":50,"time_elapsed":461949,"internal_chunk_id":"0-0.12-0"},{"nsides":9,"question":"What is 5 <img src=./images/nonagon_symbol.png style=width:14px;height:14px> 4?","response_type":"free","response_choices":[],"correct_response":"0","response":"0","explain":false,"explanation":"","explanation_history":[],"orientation_history":[[0],[3.4767652207265263,3.4767652207265263,3.4767652207265263,3.4767652207265263,3.4767652207265263,3.4767652207265263,3.4767652207265263,3.490658503988659]],"response_history":["0"],"rt":4921,"trial_type":"polygon-arrow-question","trial_index":0,"trial_index_global":51,"time_elapsed":466872,"internal_chunk_id":"0-0.12-0"},{"nsides":9,"question":"What is 6 <img src=./images/nonagon_symbol.png style=width:14px;height:14px> 6?","response_type":"free","response_choices":[],"correct_response":"3","response":"3","explain":false,"explanation":"","explanation_history":[],"orientation_history":[[0],[4.209545769456829,4.209545769456829,4.209545769456829,4.209545769456829,4.209545769456829,4.209545769456829,4.1887902047863905]],"response_history":["3"],"rt":5284,"trial_type":"polygon-arrow-question","trial_index":0,"trial_index_global":52,"time_elapsed":472158,"internal_chunk_id":"0-0.12-0"},{"nsides":9,"instructions":"On the following question, and several others later in the HIT, we will ask you to explain how you got your answer. On these questions, you will be given one box for your answer to the question, and a second for your explanation. Please explain your thought process in as much detail as possible (at least one sentence, and more if you can).","orientation_history":[0],"rt":6631,"trial_type":"polygon-arrow-instructions","trial_index":0,"trial_index_global":53,"time_elapsed":478791,"internal_chunk_id":"0-0.12-0"},{"nsides":9,"question":"What is 4 <img src=./images/nonagon_symbol.png style=width:14px;height:14px> 1? Please explain in words how you got your answer.","response_type":"free","response_choices":[],"correct_response":"5","response":"5","explain":true,"explanation":"point hand at 4, then move 1.","explanation_history":["point hand at 4, then move 1."],"orientation_history":[[0],[2.816096798353315,2.816096798353315,2.816096798353315,2.816096798353315,2.816096798353315,2.816096798353315,2.816096798353315,2.792526803190927]],"response_history":["5"],"rt":20265,"trial_type":"polygon-arrow-question","trial_index":0,"trial_index_global":54,"time_elapsed":499060,"internal_chunk_id":"0-0.12-0"},{"nsides":9,"question":"What is 8 <img src=./images/nonagon_symbol.png style=width:14px;height:14px> 4? Please explain in words how you got your answer.","response_type":"free","response_choices":[],"correct_response":"3","response":"1","explain":true,"explanation":"point hand at 6, move 4","explanation_history":["point hand at 6, move 43.","point hand at 6, move 43","point hand at 6, move 4","point hand at 6, move 4"],"orientation_history":[[0],[4.290969773496886,4.290969773496886,4.290969773496886,4.290969773496886,4.290969773496886,4.290969773496886,4.290969773496886,4.290969773496886,4.1887902047863905]],"response_history":["1"],"rt":11527,"trial_type":"polygon-arrow-question","trial_index":0,"trial_index_global":55,"time_elapsed":510591,"internal_chunk_id":"0-0.12-0"},{"nsides":9,"question":"What is the identity under <img src=./images/nonagon_symbol.png style=width:14px;height:14px>? Please explain in words how you got your answer.","response_type":"free","response_choices":[],"correct_response":"0","response":"0","explain":true,"explanation":"The identity is 0 because thats where it originates from initially.","explanation_history":["The identity is 0 because ther","The identity is 0 because the","The identity is 0 because thats where it originates from.","The identity is 0 because thats where it originates from inti","The identity is 0 because thats where it originates from int","The identity is 0 because thats w here it  originates from initially."],"orientation_history":[[0]],"response_history":["0"],"rt":25725,"trial_type":"polygon-arrow-question","trial_index":0,"trial_index_global":56,"time_elapsed":536319,"internal_chunk_id":"0-0.12-0"},{"nsides":9,"question":"What is the inverse of 5 under <img src=./images/nonagon_symbol.png style=width:14px;height:14px>?","response_type":"free","response_choices":[],"correct_response":"4","response":"1","explain":false,"explanation":"","explanation_history":[],"orientation_history":[[0],[3.5079870643390336,3.5079870643390336,3.5079870643390336,3.5079870643390336,3.5079870643390336,3.5079870643390336,3.5079870643390336,3.5079870643390336,3.490658503988659],[1.3690339824746094,1.3690339824746094,1.3690339824746094,1.3690339824746094,1.3690339824746094,1.3962634015954636]],"response_history":["2 ","2","1"],"rt":27914,"trial_type":"polygon-arrow-question","trial_index":0,"trial_index_global":57,"time_elapsed":564237,"internal_chunk_id":"0-0.12-0"},{"nsides":9,"question":"What is the inverse of 2 under <img src=./images/nonagon_symbol.png style=width:14px;height:14px>?","response_type":"free","response_choices":[],"correct_response":"7","response":"1","explain":false,"explanation":"","explanation_history":[],"orientation_history":[[0]],"response_history":["1"],"rt":6456,"trial_type":"polygon-arrow-question","trial_index":0,"trial_index_global":58,"time_elapsed":570694,"internal_chunk_id":"0-0.12-0"},{"nsides":9,"question":"What is the inverse of 0 under <img src=./images/nonagon_symbol.png style=width:14px;height:14px>?","response_type":"free","response_choices":[],"correct_response":"0","response":"0","explain":false,"explanation":"","explanation_history":[],"orientation_history":[[0]],"response_history":["0"],"rt":2137,"trial_type":"polygon-arrow-question","trial_index":0,"trial_index_global":59,"time_elapsed":572834,"internal_chunk_id":"0-0.12-0"},{"nsides":9,"question":"What is the inverse of 3 under <img  src=. /images/nonagon_symbol.png style=width:14px;height:14px>? Please explain in words how you got your answer.","response_type":"free","response_choices":[],"correct_response":"6","response":"8","explain":true,"explanation":"Inverse still confuses me","explanation_history":["Inverse still confuses me, I think you start ","Inverse still confuses me, I think you start","Inverse still confuses me, I think you star","Inverse still confuses me, I think you sta","Inverse still confuses me, I think you st","Inverse still confuses me, I think you s","Inverse still confuses me, I think you ","Inverse still confuses me,","Inverse still confuses me"],"orientation_history":[[0],[2.1093037835064696,2.1093037835064696,2.1093037835064696,2.1093037835064696,2.1093037835064696,2.1093037835064696,2.1093037835064696,2.1093037835064696,2.0943951023931953]],"response_history":["3","2","7","8"],"rt":59462,"trial_type":"polygon-arrow-question","trial_index":0,"trial_index_global":60,"time_elapsed":632299,"internal_chunk_id":"0-0.12-0"},{"nsides":9,"question":"Is 2 a generator under <img src=./images/nonagon_symbol.png style=width:14px;height:14px>? Please explain in words how you got your answer.","response_type":"multi","response_choices":["Yes","No"],"correct_response":"Yes","response":"Yes","explain":true,"explanation":"Yes because 2 generates further on down the line under 9","explanation_history":["Yes because 2 generates further on down the line under 9"],"orientation_history":[[0]],"response_history":["Yes"],"rt":65116,"trial_type":"polygon-arrow-question","trial_index":0,"trial_index_global":61,"time_elapsed":697420,"internal_chunk_id":"0-0.12-0"},{"nsides":9,"question":"Is 3 a generator under <img src=./images/nonagon_symbol.png style=width:14px;height:14px>? Please explain in words how you got your answer.","response_type":"multi","response_choices":["Yes","No"],"correct_response":"No","response":"Yes","explain":true,"explanation":"Yes, 3 generate s furthe r movement.","explanation_history":["Yes, 3 generates further movement."],"orientation_history":[[0]],"response_history":["Yes"],"rt":12058,"trial_type":"polygon-arrow-question","trial_index":0,"trial_index_global":62,"time_elapsed":709482,"internal_chunk_id":"0-0.12-0"},{"nsides":9,"question":"Is 5 a generator under <img src=./images/nonagon_symbol.png style=width:14px;height:14px>? Please explain in words how you got your answer.","response_type":"multi","response_choices":["Yes","No"],"correct_response":"Yes","response":"Yes","explain":true,"explanation":"yes, 5 generates its own movement under 9 as well","explanation_history":["yes, 5 is a ","yes, 5 is a","yes, 5 is ","yes, 5 is","yes, 5 i","yes, 5 generates its own movement on ","yes, 5 generates its own movement on","yes, 5 generates its own movement o","yes, 5 generates its own movement under 9 as well"],"orientation_history":[[0]],"response_history":["Yes"],"rt":12697,"trial_type":"polygon-arrow-question","trial_index":0,"trial_index_global":63,"time_elapsed":722181,"internal_chunk_id":"0-0.12-0"},{"nsides":9,"question":"Is 6 a generator under <img src=./images/nonagon_symbol.png style=width:14px;height:14px>? Please explain in words how you got your answer.","response_type":"multi","response_choices":["Yes","No"],"correct_response":"No","response":"Yes","explain":true,"explanation":"6 is a generator because it spurs movement along the contraption","explanation_history":["6 is a generator because it e","6 is a generator because it g","6 is a generator because it spurs movement along the contraption"],"orientation_history":[[0]],"response_history":["Yes"],"rt":17805,"trial_type":"polygon-arrow-question","trial_index":0,"trial_index_global":64,"time_elapsed":739990,"internal_chunk_id":"0-0.12-0"},{"nsides":"n","instructions":"Now we'd like to ask you some questions about <img src=./images/ngon_symbol.png style=width:14px;height:14px>, where n could be any positive counting  number.  For example, n could be 3, and the polygon a triangle, or n could be any other counting number you can think of. If you need to write the operation, you can use (n), and your answers can include n to stand in for the arbitrary value if necessary. (You can use the polygon at the right to think, but it doesn't necessarily correspond to the real polygon, which is why we've left most of it dashed.)","orientation_history":[0],"rt":12107,"trial_type":"polygon-arrow-instructions","trial_index":0,"trial_index_global":65,"time_elapsed":752101,"internal_chunk_id":"0-0"},{"nsides":"n","question":"What is the formula for the inverse of 1 under <img src=./images/ngon_symbol.png style=width:14px;height:14px>?","response_type":"free","response_choices":[],"correct_response":"n-1","response":"1n","explain":false,"explanation":"","explanation_history":[],"orientation_history":[[0]],"response_history":["1n"],"rt":11894,"trial_type":"polygon-arrow-question","trial_index":0,"trial_index_global":66,"time_elapsed":763999,"internal_chunk_id":"0-0.14-0"},{"nsides":"n","question":"What is the formula for the inverse of an element x under <img src=./images/ngon_symbol.png style=width:14px;height:14px>? Please explain in words why your answer is correct.","response_type":"free","response_choices":[],"correct_response":"n-x","response":"11 n","explain":true,"explanation":"11 generates its own inverse, I think.","explanation_history":["11 generates its own inverse, I think."],"orientation_history":[[0],[2.9729957139803638,2.9729957139803638,2.9562447035940984,2.9562447035940984,2.9562447035940984,2.9562447035940984],[2.9400648858544596,2.9400648858544596,2.9400648858544596,2.9400648858544596,2.9400648858544596,2.9400648858544596,2.9400648858544596],[3.141592653589793,3.141592653589793,3.153356816739552,3.153356816739552,3.16511772457501,3.16511772457501,3.16511772457501,3.16511772457501,3.16511772457501,3.16511772457501,3.16511772457501,3.16511772457501,3.16511772457501,3.16511772457501,3.16511772457501,3.16511772457501,3.16511772457501,3.16511772457501,3.16511772457501,3.16511772457501,3.16511772457501,3.16511772457501,3.16511772457501,3.16511772457501,3.16511772457501,3.16511772457501,3.16511772457501,3.16511772457501,3.16511772457501]],"response_history":["2n","2n","2","2","11 n"],"rt":83840,"trial_type":"polygon-arrow-question","trial_index":0,"trial_index_global":67,"time_elapsed":847843,"internal_chunk_id":"0-0.14-0"},{"nsides":"n","question":"Is there a pattern to which elements are generators? How can you know if an element x is a generator under <img src=./images/ngon_symbol.png style=width:14px;height:14px> without seeing whether it can make all the elements?.","response_type":"free","response_choices":[],"correct_response":"","response":"if any number along the N generates further movement, its a generator\n","explain":false,"explanation":"","explanation_history":[],"orientation_history":[[0]],"response_history":["if any number along the N generates further movement, its a gne","if any number along the N generates further movement, its a gn","if any number along the N generates further movement, its a generator\n"],"rt":23971,"trial_type":"polygon-arrow-question","trial_index":0,"trial_index_global":68,"time_elapsed":871817,"internal_chunk_id":"0-0.14-0"},{"nsides":"n","question":"True or false: If x is an odd number, it must be a generator under <img src=./images/ngon_symbol.png style=width:14px;height:14px>.","response_type":"multi","response_choices":["True","False"],"correct_response":"False","response":"False","explain":false,"explanation":"","explanation_history":[],"orientation_history":[[0]],"response_history":["False"],"rt":3947,"trial_type":"polygon-arrow-question","trial_index":0,"trial_index_global":69,"time_elapsed":875768,"internal_chunk_id":"0-0.14-0"},{"nsides":"n","question":"True or false: If x is an even number, it must not be a generator under < img src= ./images/ngon_symbol.png style=width:14px;height:14px>.","response_type":"multi","response_choices":["True","False"],"correct_response":"False","response":"False","explain":false,"explanation":"","explanation_history":[],"orientation_history":[[0]],"response_history":["False"],"rt":2596,"trial_type":"polygon-arrow-question","trial_index":0,"trial_index_global":70,"time_elapsed":878366,"internal_chunk_id":"0-0.14-0"},{"nsides":"n","question":"True or false: If x is not a generator under <img src=./images/ngon_symbol.png style=width:14px;height:14px>, x must be a divisor of n, that is, x must divide n evenly, with no remainder.","response_type":"multi","response_choices":["True","False"],"correct_response":"False","response":"True","explain":false,"explanation":"","explanation_history":[],"orientation_history":[[0]],"response_history":["True"],"rt":5489,"trial_type":"polygon-arrow-question","trial_index":0,"trial_index_global":71,"time_elapsed":883857,"internal_chunk_id":"0-0.14-0"},{"nsides":"n","question":"True or false: If x is not a generator under <img src=./images/ngon_symbol.png style=width:14px;height:14px>, x must be a multiple of a divisor of n. Please explain in words how you got your answer.","response_type":"multi","response_choices":["True","False"],"correct_response":"True","response":"False","explain":true,"explanation":"I am a bit confused by this, but I think its false because we haven't done much with divisors yet.","explanation_history":["I am a bit confused by this ","I am a bit confused by this, but I think its false.","I am a bit confused by this, but I think its false because we haven't done much with divsors","I am a bit confused by this, but I think its false because we haven't done much with divsor","I am a bit confused by this, but I think its false because we haven't done much with divso","I am a bit confused by this, but I think its false because we haven't done much with divs","I am a bit confused by  this, b ut I think its false because we haven't done much with divisors yet."],"orientation_history":[[0]],"response_history":["True","False"],"rt":31731,"trial_type":"polygon-arrow-question","trial_index":0,"trial_index_global":72,"time_elapsed":915590,"internal_chunk_id":"0-0.14-0"},{"nsides":"n","question":"If an element x is a generator under <img src=./images/ngon_symbol.png style=width:14px;height:14px>, is its inverse a generator under <img src=./images/ngon_symbol.png style=width:14px;height:14px> always, sometimes, or never?","response_type":"multi","response_choices":["Always","Sometimes","Never"],"correct_response":"Always","response":"Sometimes","explain":false,"explanation":"","explanation_history":[],"orientation_history":[[0]],"response_history":["Sometimes"],"rt":8247,"trial_type":"polygon-arrow-question","trial_index":0,"trial_index_global":73,"time_elapsed":923841,"internal_chunk_id":"0-0.14-0"},{"nsides":"n","question":"If an element x is a generat or under  <img src=./images/ngon_symbol.png style=width:14px;height:14px>, is x <img src=./images/ngon_symbol.png style=width:14px;height:14px> x a generator under <img src=./images/ngon_symbol.png style=width:14px;height:14px> always, sometimes, or never? Please explain in words how you got your answer.","response_type":"multi","response_choices":["Always","Sometimes","Never"],"correct_response":"Sometimes","response":"Sometimes","explain":true,"explanation":"If its odd it probably isn't a generator, even numbers are probably a generator under this new diagram.","explanation_history":["If its odd it oculd ","If its odd it oculd","If its odd it ocul","If its odd it ocu","If its odd it oc","If its odd it o","If its odd it could ","If its odd it could","If its odd it coul","If its odd it cou","If its odd it co","If its odd it c","If its odd it probably isn't a generator ","If its odd it probably isn't a generator, even m","If its odd it probably isn't a generato r, even  numbers are probably ar ","If its odd it probably isn't a generator, even numbers are probably ar","If its odd it probably isn't a generator, even numbers are probably a generator under this new diagram."],"orientation_history":[[0]],"response_history":["Sometimes"],"rt":106769,"trial_type":"polygon-arrow-question","trial_index":0,"trial_index_global":74,"time_elapsed":1030613,"internal_chunk_id":"0-0.14-0"},{"nsides":"n","question":"If an element x is not a generator under <img src=./images/ngon_symbol.png style=width:14px;height:14px>, is x <img src=./images/ngon_symbol.png style=width:14px;height:14px> x a generator under <img src=./images/ngon_symbol.png style=width:14px;height:14px> always, sometimes, or never?","response_type":"multi","response_choices":["Always","Sometimes","Never"],"correct_response":"Never","response":"Always","explain":false,"explanation":"","explanation_history":[],"orientation_history":[[0]],"response_history":["Always"],"rt":7368,"trial_type":"polygon-arrow-question","trial_index":0,"trial_index_global":75,"time_elapsed":1037985,"internal_chunk_id":"0-0.14-0"},{"instructions":"We would like to ask you some questions about your background. Please press Continue to continue.","rt":1103,"trial_type":"instructions","trial_index":0,"trial_index_global":76,"time_elapsed":1039091,"internal_chunk_id":"0-0.15-0"},{"question":"What is your age?","response_type":"free","response_choices":[],"correct_response":"","response":"26","explain":false,"explanation":"","explanation_history":[],"response_history":["26"],"rt":1632,"trial_type":"question","trial_index":0,"trial_index_global":77,"time_elapsed":1040725,"internal_chunk_id":"0-0.15-0"},{"question":"What is your level of education?","response_type":"multi","response_choices":["Did not graduate high school","High school diploma","Some college, no degree","Associates Degree","Bachelors Degree","Some graduate school, no degree","Masters Degree","Doctorate, M. D., etc. "],"correct_response":"","response":"Associates Degree","explain":false,"explanation":"","explanation_history":[],"response_history":["Associates Degree"],"rt":2234,"trial_type":"question","trial_index":0,"trial_index_global":78,"time_elapsed":1042960,"internal_chunk_id":"0-0.15-0"},{"question":"What is the most advanced math class you've completed? If you have multiple classes and you're not sure which one is most advanced, please list them.","response_type":"free","response_choices":[],"correct_response":"","response":"College Statistics/ Microeconomics ","explain":false,"explanation":"","explanation_history":[],"response_history":["St","S","College Statistics/ Microecon","College Statistics/ Microeco","College Statistics/ Microec","College Statistics/ Microen","College Statistics/ Microeconomics "],"rt":17827,"trial_type":"question","trial_index":0,"trial_index_global":79,"time_elapsed":1060788,"internal_chunk_id":"0-0.15-0"},{"question":"How familiar are you with the con cept of  modular arithmetic?","response_type":"multi","response_choices":["1 - never heard of it","2 - heard of it but didn't know what it was","3 - seen it used or explained","4 - used it but not often or recently","5 - used it, remember and understand it"],"correct_response":"1","response":"1 - never heard of it","explain":false,"explanation":"","explanation_history":[],"response_history":["1 - never heard of it"],"rt":3395,"trial_type":"question","trial_index":0,"trial_index_global":80,"time_elapsed":1064186,"internal_chunk_id":"0-0.15-0"},{"question":"How familiar are you with the concept of a mathematical group?","response_type":"multi","response_choices":["1 - never heard of it","2 - heard of it but didn't know what it was","3 - seen it used or explained","4 - used it but not often or recently","5 - used it, remember and understand it"],"correct_response":"1","response":"3 - seen it used or explained","explain":false,"explanation":"","explanation_history":[],"response_history":["3 - se en it used or explained"],"rt":2681,"trial_type":"question","trial_index":0,"trial_index_global":81,"time_elapsed":1066869,"internal_chunk_id":"0-0.15-0"},{"question":"Do you feel you learned something from this HIT?","response_type":"multi","response_choices":["1 - not at all","2 - somewhat","3 - definitely"],"correct_response":"1","response":"3 - definitely","explain":false,"explanation":"","explanation_history":[],"response_history":["3 - definitely"],"rt":3717,"trial_type":"question","trial_index":0,"trial_index_global":82,"time_elapsed":1070589,"internal_chunk_id":"0-0.15-0"},{"question":"Do you feel you understood the concepts in this HIT?","response_type":"multi","response_choices":["1 - not at all","2 - somewhat","3 - definitely"],"correct_response":"1","response":"2 - somewhat","explain":false,"explanation":"","explanation_history":[],"response_history":["3 - definitely","2 - somewhat"],"rt":3988,"trial_type":"question","trial_index":0,"trial_index_global":83,"time_elapsed":1074579,"internal_chunk_id":"0-0.15-0"},{"question":"Did you enjoy this HIT?","response_type":"multi","response_choices":["1 - not at all","2 - somewhat","3 - definitely"],"correct_response":"1","response":"3 - definitely","explain":false,"explanation":"","explanation_history":[],"response_history":["3 - definitely"],"rt":1749,"trial_type":"question","trial_index":0,"trial_index_global":84,"time_elapsed":1076332,"internal_chunk_id":"0-0.15-0"},{"question":"What is your gender?","response_type":"multi","response_choices":["Female","Male","Other"],"correct_response":"","response":"Male","explain":false,"explanation":"","explanation_history":[],"response_history":["Male"],"rt":1486,"trial_type":"question","trial_index":0,"trial_index_global":85,"time_elapsed":1077819,"internal_chunk_id":"0-0.15-0"},{"question":"What is/are your native language(s)? (The languages spoken in your household when you were a child.)","response_type":"free","response_choices":[],"correct_response":"","response":"English","explain":false,"explanation":"","explanation_history":[],"response_history":["Enl","English"],"rt":3593,"trial_type":"question","trial_index":0,"trial_index_global":86,"time_elapsed":1081414,"internal_chunk_id":"0-0.15-0"},{"question":"Did you use pen and paper at any point on this HIT?","response_type":"free","response_choices":[],"correct_response":"","response":"No","explain":false,"explanation":"","explanation_history":[],"response_history":["No"],"rt":2436,"trial_type":"question","trial_index":0,"trial_index_global":87,"time_elapsed":1083853,"internal_chunk_id":"0-0.15-0"},{"question":"Do you have any comments on this HIT?","response_type":"free","response_choices":[],"correct_response":"","response":"Thank you for the interesting HIT!","explain":false,"explanation":"","explanation_history":[],"response_history":["Thank you for the interesting HIT!"],"rt":4431,"trial_type":"question","trial_index":0,"trial_index_global":88,"time_elapsed":1088286,"internal_chunk_id":"0-0.15-0"}]