[{"nsides":6,"instructions":"Let's define a new operation <img src=./images/hexagon_symbol.png style=width:14px;height:14px>. This operation will give us a way of combining two of the numbers 0, 1, 2, 3, 4, 5 to get another one of them back. Consider the hexagon at the right, where I've labeled each point with one of the numbers. To perform <img src=./images/hexagon_symbol.png style=width:14px;height:14px>, you can use the interactive diagram on the right, or perform the operation in your mind. Point the arrow at the first number on the hexagon by clicking, then click (or click and drag) to move the arrow the second number of points clockwise around the hexagon. The number the arrow arrives at is your result. (The operation is called <img src=./images/hexagon_symbol.png style=width:14px;height:14px> because it uses the hexagon, which has 6 sides.) <br /><br />For example, 3 <img src=./images/hexagon_symbol.png style=width:14px;height:14px> 5 =  2, becau se 5 steps clockwise from 3 on the hexagon brings us to 2. So 3 <img src=./images/hexagon_symbol.png style=width:14px;height:14px> 5 = 2.<br /><br />Similarly, 1 <img src=./images/hexagon_symbol.png style=width:14px;height:14px> 4 = 5, because 4 steps clockwise from 1 brings us to 5. <br /><br />Click Continue when you're ready to move on.","orientation_history":[0,[6.283185307179586],[6.283185307179586],[5.235987755982988],[],[],[5.235987755982988],[1.0471975511965976],[1.0471975511965976],[2.0943951023931953],[],[],[1.0471975511965976]],"rt":1695562,"trial_type":"polygon-arrow-instructions","trial_index":0,"trial_index_global":1,"time_elapsed":2796994,"internal_chunk_id":"0-0"},{"nsides":6,"instructions":"Do you see how <img src=./images/hexagon_symbol.png style=width:14px;height:14px> works? By labeling the points of the hexagon with the numbers from 0 to 5, we ensure that when we combine two numbers under <img src=./images/hexagon_symbol.png  style =width:14px;height:14px>, we only produce numbers between 0 and 5.<br /><br />Click Continue when you are ready to move on.","orientation_history":[0],"rt":12775,"trial_type":"polygon-arrow-instructions","trial_index":0,"trial_index_global":2,"time_elapsed":2809784,"internal_chunk_id":"0-0"},{"nsides":6,"question":"Now try one on your own! What is 4 <img src=./images/hexagon_symbol.png style=width:14px;height:14px> 5? <br /><br /> (Remember, to perform <img src=./images/hexagon_symbol.png style=width:14px;height:14px>, you can use the interactive diagram on the right, or perform the operation in your mind. Point the arrow at the first number on the hexagon, then move the arrow the second number of points clockwise around the hexagon. The number the arrow arrives at is your result.)","response_type":"free","response_choices":[],"correct_response":"3","response":"3","explain":false,"explanation":"","explanation_history":[],"orientation_history":[[0],[0,0,0,0,0,0,0,0,0,0,0,0,0,0,0,0,0,0,0,-6.268480484801735,-6.23907719659773,-6.136892343343814,-6.079583303924112,-6.023501821674871,-5.996017335397943,-5.951214205279909,-5.937801596225256,-5.911346474280942,-5.911346474280942,-5.898309656959518,-5.893209661945778,-5.854481482189535,-5.854481482189535,-5.699632626380376,-5.665497728486797,-5.624979376008451,-5.603985085706978,-5.593739542578183,-5.575411656135886,-5.575411656135886,-5.575411656135886,-5.557021359062227,-5.528921747285404,-5.483082321404287,-5.428590865163556,-5.392422434203541,-5.384305729336624,-5.358727326857525,-5.338640743029643,-5.338640743029643,-5.331110040975983,-5.331110040975983,-5.331110040975983,-5.331110040975983,-5.331110040975983,-5.331110040975983,-5.331110040975983,-5.32373068050037,-5.316498924744524,-5.292443415490191,-5.285686761554406,-5.275586094969084,1.0471975511965976],[1.0471975511965976,1.0471975511965976,1.0471975511965976,1.0471975511965976,1.0471975511965976],[2.5748634360662868,2.5748634360662868,2.6387494426619327,2.6524728480782644,2.671616015172785,2.677945044588987,2.6841178056937682,2.6841178056937682,2.6841178056937682,2.6841178056937682,2.6841178056937682,2.6841178056937682,2.6841178056937682,2.6841178056937682,2.6841178056937682,2.6841178056937682,2.6841178056937682,2.696576428834252,2.6905229976012697,2.6843143852076503,2.6714091899430557,2.6714091899430557,2.6714091899430557,2.6714091899430557,2.6714091899430557,2.6714091899430557,2.711266040467234,2.730875690475121,2.7722589959161676,2.819842099193151,2.964367268640074,3.0419240010986313,3.1273079110023962,3.141592653589793,3.141592653589793,3.141592653589793,3.141592653589793,3.141592653589793,3.141592653589793,3.141592653589793,3.141592653589793,3.141592653589793,3.141592653589793,3.141592653589793,3.141592653589793,3.141592653589793,3.141592653589793,3.141592653589793,3.141592653589793,3.141592653589793]],"response_history":["3"],"rt":57523,"trial_type":"polygon-arrow-question","trial_index":0,"trial_index_global":3,"time_elapsed":2867311,"internal_chunk_id":"0-0.3-0"},{"nsides":6,"feedback":"Correct! 4 <img src=./images/hexagon_symbol.png style=width:14px;height:14px> 5 = 3 because 5 steps clockwise on the hexagon from 4 brings us to 3","orientation_history":[0],"rt":6855,"trial_type":"polygon-arrow-feedback","trial_index":0,"trial_index_global":4,"time_elapsed":2874172,"internal_chunk_id":"0-0.3-0"},{"nsides":6,"question":"What is 3 <img src=./images/hexagon_symbol.png style=width:14px;height:14px> 2? <br /><br /> (Remember, to perform <img src=./images/hexagon_symbol.png style=width:14px;height:14px>, you can use the interactive diagram on the right, or perform the operation in your mind. Point the arrow at the first number on the hexagon, then move the arrow the second number of points clockwise around the hexagon. The number the arrow arrives at is your result.)","response_type":"free","response_choices":[],"correct_response":"5","response":"5","explain":false,"explanation":"","explanation_history":[],"orientation_history":[[0],[0,0,0,0,0,0,0,0,0,0,0,-0.01402281325267829,-0.05968996536787152,-0.10394676226492638,-0.18027003626739901,-0.2629061812516813,-0.2911173895808421,-0.370738275991382,-0.4236689218775158,-0.4499786391304381,-0.4499786391304381,-0.4628645238045701,-0.488095761303069,-0.5201426970601029,-0.5322149568847037,-0.5519921495633104,-0.5600715262784632,-0.5719237473113763,-0.5719237473113763,-0.5719237473113763,-0.5719237473113763,-0.5719237473113763,-0.5719237473113763,-0.600606978035219,-0.6121927246337799,-0.6324998155215553,-0.6733794108873301,-0.7353188096888363,-0.7658248069606968,-0.796920287225384,-0.8065676389234593,-0.8268715205800286,-0.8268715205800286,-0.8379380973938053,-0.8471083280372351,-0.8672619132940751,5.235987755982988]],"response_history":["5"],"rt":18304,"trial_type":"polygon-arrow-question","trial_index":0,"trial_index_global":5,"time_elapsed":2892477,"internal_chunk_id":"0-0.3-0"},{"nsides":6,"feedback":"Correct! 3 <img src=./images/hexagon_symbol.png style=width:14px;height:14px> 2 = 5 because 2 steps clockwise on the hexagon from 3 brings us to 5","orientation_history":[0],"rt":3125,"trial_type":"polygon-arrow-feedback","trial_index":0,"trial_index_global":6,"time_elapsed":2895603,"internal_chunk_id":"0-0.3-0"},{"nsides":6,"question":"What is 1 <img src=./images/hexagon_symbol.png style=width:14px;height:14px> 5? <br /><br /> (Remember, to perform <img src=./images/hexagon_symbol.png style=width:14px;height:14px>, you can use the interactive diagram on the right, or perform the operation in your mind. Point the arrow at the first number on the hexagon, then move the arrow the second number of points clockwise around the hexagon. The number the arrow arrives at is your result.)","response_type":"free","response_choices":[],"correct_response":"0","response":"0","explain":false,"explanation":"","explanation_history":[],"orientation_history":[[0]],"response_history":["0"],"rt":11559,"trial_type":"polygon-arrow-question","trial_index":0,"trial_index_global":7,"time_elapsed":2907163,"internal_chunk_id":"0-0.3-0"},{"nsides":6,"feedback":"Correct! 1 <img src=./images/hexagon_symbol.png style=width:14px;height:14px> 5 = 0 because 5 steps clockwise on the hexagon from 1 brings us to 0","orientation_history":[0],"rt":2680,"trial_type":"polygon-arrow-feedback","trial_index":0,"trial_index_global":8,"time_elapsed":2909845,"internal_chunk_id":"0-0.3-0"},{"nsides":6,"question":"What is 1 <img src=./images/hexagon_symbol.png style=width:14px;height:14px> 1? <br /><br /> (Remember, to perform <img src=./images/hexagon_symbol.png style=width:14px;height:14px>, you can use the interactive diagram on the right, or perform the operation in your mind. Point the arrow at the first number on the hexagon, then move the arrow the second number of points clockwise around the hexagon. The number the arrow arrives at is yo ur resul t.)","response_type":"free","response_choices":[],"correct_response":"2","response":"2","explain":false,"explanation":"","explanation_history":[],"orientation_history":[[0],[0,0,0],[1.5707963267948966,1.3547113544981102,0.9403949053213893,0.6777082925646276,0],[2.1882985669419703,2.1882985669419703,2.1882985669419703,2.1882985669419703,2.1882985669419703,2.1882985669419703,2.1882985669419703,2.1882985669419703,2.1882985669419703,2.1882985669419703,2.1882985669419703,2.1882985669419703,2.1882985669419703,2.1882985669419703,2.1882985669419703,2.1882985669419703,2.1882985669419703,2.1882985669419703,2.1882985669419703,2.1882985669419703,2.1882985669419703,2.1882985669419703,2.1882985669419703,2.1882985669419703,2.1882985669419703,2.1882985669419703,2.1882985669419703,2.1882985669419703,2.0943951023931953]],"response_history":["2"],"rt":13518,"trial_type":"polygon-arrow-question","trial_index":0,"trial_index_global":9,"time_elapsed":2923364,"internal_chunk_id":"0-0.3-0"},{"nsides":6,"feedback":"Correct! 1 <img src=./images/hexagon_symbol.png style=width:14px;height:14px> 1 = 2 because 1 step clockwise on the hexagon from 1 brings us to 2","orientation_history":[0],"rt":2704,"trial_type":"polygon-arrow-feedback","trial_index":0,"trial_index_global":10,"time_elapsed":2926069,"internal_chunk_id":"0-0.3-0"},{"nsides":6,"question":"What is 3 <img src=./images/hexagon_symbol.png style=width:14px;height:14px> 0? <br /><br /> (Remember, to perform <img src=./images/hexagon_symbol.png style=width:14px;height:14px>, you can use the interactive diagram on the right, or perform the operation in your mind. Point the arrow at the first number on the hexagon, then move the arrow the second number of points clockwise around the hexagon. The number the arrow arrives at is your result.)","response_type":"free","response_choices":[],"correct_response":"3","response":"3","explain":false,"explanation":"","explanation_history":[],"orientation_history":[[0],[0,0,0,0,0,-0.0005115089067959655,-0.0005115089067959655,0.015336220841729586,0.11664306517424339,0.24859084218594907,0.6792122433042541,1.0467402683709441,1.6051176081354666,2.233287720556346,2.5380082913209128,2.5380082913209128,2.6538946999036463,2.7020899230796926,2.760574767570633,2.802669451752857,2.817888976676673,2.82240701822377,2.83755361247984,2.83755361247984,2.83755361247984,2.83755361247984,2.83755361247984,2.83755361247984,2.83755361247984,2.8417294663697774,2.8417294663697774,2.8567914953764797,2.860635782061017,2.8906768252805977,2.9674487165503756,2.983037654091299,2.983037654091299,2.983037654091299,2.983037654091299,2.9986885499806437,2.9986885499806437,2.9986885499806437,2.9986885499806437,2.9986885499806437,2.9986885499806437,2.9986885499806437,3.014394064811783,3.014394064811783,3.141592653589793]],"response_history":["3"],"rt":9493,"trial_type":"polygon-arrow-question","trial_index":0,"trial_index_global":11,"time_elapsed":2935563,"internal_chunk_id":"0-0. 3-0"},{"nsides":6,"feedback":"Correct! 3 <img src=./images/hexagon_symbol.png style=width:14px;height:14px> 0 = 3 because 0 steps clockwise on the hexagon from 3 brings us to 3","orientation_history":[0],"rt":3569,"trial_type":"polygon-arrow-feedback","trial_index":0,"trial_index_global":12,"time_elapsed":2939133,"internal_chunk_id":"0-0.3-0"},{"nsides":6,"question":"What is 4 <img src=./images/hexagon_symbol.png style=width:14px;height:14px> 4? <br /><br /> (Remember, to perform <img src=./images/hexagon_symbol.png style=width:14px;height:14px>, you can use the interactive diagram on the right, or perform the operation in your mind. Point the arrow at the first number on the hexagon, then move the arrow the second number of points clockwise around the hexagon. The number the arrow arrives at is your result.)","response_type":"free","response_choices":[],"correct_response":"2","response":"2","explain":false,"explanation":"","explanation_history":[],"orientation_history":[[0],[0,0,0,0,0,0,0,0,0,0,0,0.014572478890553242,0.029182526516683183,0.05849079502022292,0.08787503004044339,-6.16590063238344,-6.091291461768069,-6.05625046021453,-5.931642748968574,-5.76914921134759,-5.6945735254211955,-5.578318108626328,-5.2176111240803555,-5.073456736967201,-4.952833068387099,-4.817305354401598,-4.797238240410069,-4.761184571700421,-4.744580412444126,-4.744580412444126,-4.727901156385489,-4.711155631232063,-4.711155631232063,-4.677502150660364,-4.677502150660364,-4.643694457870513,-4.626474251680336,-4.626474251680336,-4.626474251680336,-4.626474251680336,-4.626474251680336,-4.626474251680336,-4.626474251680336,-4.626474251680336,-4.626474251680336,-4.626474251680336,-4.626474251680336,-4.526667896077954,-4.428489353564904,-4.333712108570959,-4.288058573569753,-4.2636731643970345,-4.249243127488289,-4.220852247787388,-4.206897537112879,-4.212729682741413,-4.199092164851723,-4.199092164851723,-4.0958894469678615,-4.0958894469678615,2.0943951023931953]],"response_history":["2"],"rt":30260,"trial_type":"polygon-arrow-question","trial_index":0,"trial_index_global":13,"time_elapsed":2969395,"internal_chunk_id":"0-0.3-0"},{"nsides":6,"feedback":"Correct! 4 <img src=./images/hexagon_symbol.png style=width:14px;height:14px> 4 = 2 because 4 steps clockwise on the hexagon from 4 brings us to 2","orientation_history":[0],"rt":2163,"trial_type":"polygon-arrow-feedback","trial_index":0,"trial_index_global":14,"time_elapsed":2971560,"internal_chunk_id":"0-0.3-0"},{"nsides":6,"question":"What is 1 <img src=./images/hexagon_symbol.png style=width:14px;height:14px> 3? <br /><br /> (Remember, to perform <img src=./images/hexagon_symbol.png style=width:14px;height:14px>, you can use the interactive diagram on the right, or perform the operation in your mind. Point the arrow at the first number on the hexagon, then move the arrow the second number of points clockwise around the hexagon. The number the arrow arrives at is y our resu lt.)","response_type":"free","response_choices":[],"correct_response":"4","response":"4","explain":false,"explanation":"","explanation_history":[],"orientation_history":[[0],[0,0,0,0,0,0,0,0,0,0,0,-6.226057991502067,-6.070999323171547,-5.9328710949441845,-5.9328710949441845,-5.824295036218268,-5.6399586974186615,-5.561979806131522,-5.3585662647694825,-5.221110036846702,-5.164000352149457,-5.0887171088310135,-5.0177703943908245,-4.725467901644518,-4.68382532254593,-4.642182743447342,-4.600684090657489,-4.57784096455633,-4.515228382936501,-4.465156376671988,-4.396543869148796,-4.230486626691367,-4.155750874119571,-4.089066065062577,-3.7835505537315828,-3.162987391472976,-2.8431798398125645,-2.4608575839939637,-2.3276308323535853,-2.3276308323535853,-2.2458464517355896,-2.177259404346451,-2.17102895537157,-2.1588807299332835,-2.1445200150911017,-2.1445200150911017,-2.1445200150911017,-2.135982335666908,-2.127345107140564,-2.11860788954732,-2.11860788954732,-2.109770293740887,-2.100831984299699,-2.100831984299699,-2.100831984299699,-2.0917926824825166,-2.0917926824825166,-2.0917926824825166,-2.0917926824825166,-2.0917926824825166,-2.0917926824825166,-2.0917926824825166,-2.0917926824825166,4.1887902047863905],[4.16282896685831,4.16282896685831,4.16282896685831,4.16282896685831,4.16282896685831,4.16282896685831,4.16282896685831,4.16282896685831,4.16282896685831,4.16282896685831,4.16282896685831,4.16282896685831,4.16282896685831,4.16282896685831,4.1887902047863905]],"response_history":["4"],"rt":13624,"trial_type":"polygon-arrow-question","trial_index":0,"trial_index_global":15,"time_elapsed":2985185,"internal_chunk_id":"0-0.3-0"},{"nsides":6,"feedback":"Correct! 1 <img src=./images/hexagon_symbol.png style=width:14px;height:14px> 3 = 4 because 3 steps clockwise on the hexagon from 1 brings us to 4","orientation_history":[0],"rt":3657,"trial_type":"polygon-arrow-feedback","trial_index":0,"trial_index_global":16,"time_elapsed":2988843,"internal_chunk_id":"0-0. 3-0"},{"nsides":6,"question":"What is 4 <img src=./images/hexagon_symbol.png style=width:14px;height:14px> 3? <br /><br /> (Remember, to perform <img src=./images/hexagon_symbol.png style=width:14px;height:14px>, you can use the interactive diagram on the right, or perform the operation in your mind. Point the arrow at the first number on the hexagon, then move the arrow the second number of points clockwise around the hexagon. The number the arrow arrives at is your result.)","response_type":"free","response_choices":[],"correct_response":"1","response":"1","explain":false,"explanation":"","explanation_history":[],"orientation_history":[[0],[0,0,0,0,0,0,0,0,0.0467596515526949,0.11494402266212833,0.21109333322274648,0.30267318336543214,0.4269294254848508,0.48651943691878186,0.5840810550228075,0.6186201595223761,0.663752373540819,0.7069878246588065,0.7900170681945047,0.8986454423539021,0.8986454423539021,0.9311086345413522,0.9670882084161898,0.9847961234545057,0.9907112141765331,1.0023053846020367,1.0023053846020367,1.0023053846020367,1.0023053846020367,1.0023053846020367,1.0023053846020367,1.0471975511965976]],"response_history":["1"],"rt":7884,"trial_type":"polygon-arrow-question","trial_index":0,"trial_index_global":17,"time_elapsed":2996729,"internal_chunk_id":"0-0.3-0"},{"nsides":6,"feedback":"Correct! 4 <img src=./images/hexagon_symbol.png style=width:14px;height:14px> 3 = 1 because 3 steps clockwise on the hexagon from 4 brings us to 1","orientation_history":[0],"rt":2602,"trial_type":"polygon-arrow-feedback","trial_index":0,"trial_index_global":18,"time_elapsed":2999332,"internal_chunk_id":"0-0.3-0"},{"nsides":6,"question":"What is 0 <img src=./images/hexagon_symbol.png style=width:14px;height:14px> 5? <br /><br /> (Remember, to perform <img src=./images/hexagon_symbol.png style=width:14px;height:14px>, you can use the interactive diagram on the right, or perform the operation in your mind. Point the arrow  at the  first number on the hexagon, then move the arrow the second number of points clockwise around the hexagon. The number the arrow arrives at is your result.)","response_type":"free","response_choices":[],"correct_response":"5","response":"5","explain":false,"explanation":"","explanation_history":[],"orientation_history":[[0],[5.57589486113419,5.57589486113419,5.540336732522731,5.49466323863683,5.459978484841672,5.41453176315839,5.381134341298854,5.348599242132593,5.326597902826135,5.326597902826135,5.316959647072077,5.295358069395867,5.295358069395867,5.295358069395867,5.295358069395867,5.295358069395867,5.235987755982988]],"response_history":["5"],"rt":10964,"trial_type":"polygon-arrow-question","trial_index":0,"trial_index_global":19,"time_elapsed":3010297,"internal_chunk_id":"0-0.3-0"},{"nsides":6,"feedback":"Correct! 0 <img src=./images/hexagon_symbol.png style=width:14px;height:14px> 5 = 5 because 5 steps clockwise on the hexagon from 0 brings us to 5","orientation_history":[0],"rt":3172,"trial_type":"polygon-arrow-feedback","trial_index":0,"trial_index_global":20,"time_elapsed":3013470,"internal_chunk_id":"0-0.3-0"},{"nsides":6,"question":"What is 2 <img src=./images/hexagon_symbol.png style=width:14px;height:14px> 5? <br /><br /> (Remember, to perform <img src=./images/hexagon_symbol.png style=width:14px;height:14px>, you can use the interactive diagram on the right, or perform the operation in your mind. Point the arrow at the first number on the hexagon, then move the arrow the second number of points clockwise around the hexagon. The number the arrow arrives at is your result.)","response_type":"free","response_choices":[],"correct_response":"1","response":"1","explain":false,"explanation":"","explanation_history":[],"orientation_history":[[0],[0,0,0,0,0.05542263558993121,0.13413292632725593,0.20828244598587675,0.327039178513703,0.3619899750443558,0.4203428968954974,0.48677378603138544,0.53432481952453,0.5593855348942365,0.5892855940459513,0.6425267667826777,0.7181399100195076,0.7181399100195076,0.9684095290647725,0.9684095290647725,1.050675870537767,1.0703416727692612,1.0946202681099946,1.1004660828292323,1.1124373419111513,1.1180356039300865,1.1180356039300865,1.1623620607960352,1.2150267364052287,1.0471975511965976]],"response_history":["1"],"rt":19599,"trial_type":"polygon-arrow-question","trial_index":0,"trial_index_global":21,"time_elapsed":3033070,"internal_chunk_id":"0-0.3-0"},{"nsides":6,"feedback":"Correct! 2 <img src=./images/hexagon_symbol.png style=width:14px;height:14px> 5 = 1 because 5 steps clockwise on the hexagon from 2 brings us to 1","orientation_history":[0],"rt":1866,"trial_type":"polygon-arrow-feedback","trial_index":0,"trial_index_global":22,"time_elapsed":3034937,"internal_chunk_id":"0-0.3-0"},{"nsides":6,"instructions":"Now we're going to discuss a couple special properties of this new operation, <img src=./images/hexagon_symbol.png style=width:14px;height:14 px> th at we've learned. First, notice that the number 0 behaves in a special way under <img src=./images/hexagon_symbol.png style=width:14px;height:14px>. Whenever we combine 0 with anything else, we get that same thing back. We'll say that 0 is the <i>identity</i> under <img src=./images/hexagon_symbol.png style=width:14px;height:14px>, because when you combine it with something it gives you that identical thing back.","orientation_history":[0],"rt":20796,"trial_type":"polygon-arrow-instructions","trial_index":0,"trial_index_global":23,"time_elapsed":3055738,"internal_chunk_id":"0-0"},{"nsides":6,"instructions":"Now that we know 0 is the identity under <img src=./images/hexagon_symbol.png style=width:14px;height:14px>, we're going to make a new definition. We'll say that the <i>inverse</i> of a number is the element that you combine with it to produce the identity under our operation. For example, 5 <img src=./images/hexagon_symbol.png style=width:14 px;heigh t:14px> 1 = 0, so we say 1 is the inverse of 5 under <img src=./images/hexagon_symbol.png style=width:14px;height:14px>, (remember 0 is the identity under <img src=./images/hexagon_symbol.png style=width:14px;height:14px>). Similarly, 3 is its own inverse under <img src=./images/hexagon_symbol.png style=width:14px;height:14px>, because 3 <img src=./images/hexagon_symbol.png style=width:14px;height:14px> 3 = 0.","orientation_history":[0],"rt":98515,"trial_type":"polygon-arrow-instructions","trial_index":0,"trial_index_global":24,"time_elapsed":3154256,"internal_chunk_id":"0-0"},{"nsides":6,"question":"Now you try! What is the inverse of 4 under <img src=./images/hexagon_symbol.png style=width:14px;height:14px>? <br /><br /> (Remember, the inverse of an element is the thing which you combine with it to produce the identity.)","response_type":"free","response_choices":[],"correct_response":"2","response":"0","explain":false,"explanation":"","explanation_history":[],"orientation_history":[[0]],"response_history":["o","0"],"rt":31083,"trial_type":"polygon-arrow-question","trial_index":0,"trial_index_global":25,"time_elapsed":3185341,"internal_chunk_id":"0-0.7-0"},{"nsides":6,"feedback":"Sorry, that was incorrect. The inverse of 4 under <img src=./images/hexagon_symbol.png style=width:14px;height:14px> is 2 because 4 <img src=./images/hexagon_symbol.png style=width:14px;height:14px> 2 = 0, and 0 is the identity under <img src=./images/hexagon_symbol.png style=width:14px;height:14px>.","orientation_history":[0],"rt":78414,"trial_type":"polygon-arrow-feedback","trial_index":0,"trial_index_global":26,"time_elapsed":3263756,"internal_chunk_id":"0-0.7-0"},{"nsides":6,"question":"What is the inverse of 1 under <img src=./images/hexagon_symbol.png style=width:14px;height:14px>? <br /><br /> (Remember, the inverse of an element is the thing which you combine with it to produce the identity.)","response_type":"free","response_choices":[],"correct_response":"5","response":"5","explain":false,"explanation":"","explanation_history":[],"orientation_history":[[0]],"response_history":["5"],"rt":9514,"trial_type":"polygon-arrow-question","trial_index":0,"trial_index_global":27,"time_elapsed":3273272,"internal_chunk_id":"0-0.7-0"},{"nsides":6,"feedback":"Correct! The inverse of 1 under <img src=./images/hexagon_symbol.png style=width:14px;height:14px> is 5 because 1 <img src=./images/hexagon_symbol.png style=width:14px;height:14px> 5 = 0, and 0 is the identity under <img src=./images/hexagon_symbol.png style=width:14px;height:14px>.","orientation_history":[0],"rt":8542,"trial_type":"polygon-arrow-feedback","trial_index":0,"trial_index_global":28,"time_elapsed":3281815,"internal_chunk_id":"0-0.7-0"},{"nsides":6,"question":"What is the inverse of 3 under <img src=./images/hexagon_symbol.png style=width:14px;height:14px>? <br /><br /> (Remember, the i nverse o f an element is the thing which you combine with it to produce the identity.)","response_type":"free","response_choices":[],"correct_response":"3","response":"3","explain":false,"explanation":"","explanation_history":[],"orientation_history":[[0]],"response_history":["3"],"rt":9066,"trial_type":"polygon-arrow-question","trial_index":0,"trial_index_global":29,"time_elapsed":3290882,"internal_chunk_id":"0-0.7-0"},{"nsides":6,"feedback":"Correct! The inverse of 3 under <img src=./images/hexagon_symbol.png style=width:14px;height:14px> is 3 because 3 <img src=./images/hexagon_symbol.png style=width:14px;height:14px> 3 = 0, and 0 is the identity under <img src=./images/hexagon_symbol.png style=width:14px;height:14px>.","orientation_history":[0],"rt":3380,"trial_type":"polygon-arrow-feedback","trial_index":0,"trial_index_global":30,"time_elapsed":3294263,"internal_chunk_id":"0-0.7-0"},{"nsides":6,"question":"What is the inverse of 2 under <img src=./image s/hexago n_symbol.png style=width:14px;height:14px>? <br /><br /> (Remember, the inverse of an element is the thing which you combine with it to produce the identity.)","response_type":"free","response_choices":[],"correct_response":"4","response":"4","explain":false,"explanation":"","explanation_history":[],"orientation_history":[[0]],"response_history":["4"],"rt":6177,"trial_type":"polygon-arrow-question","trial_index":0,"trial_index_global":31,"time_elapsed":3300442,"internal_chunk_id":"0-0.7-0"},{"nsides":6,"feedback":"Correct! The inverse of 2 under <img src=./images/hexagon_symbol.png style=width:14px;height:14px> is 4 because 2 <img src=./images/hexagon_symbol.png style=width:14px;height:14px> 4 = 0, and 0 is the identity under <img src=./images/hexagon_symbol.png style=width:14px;height:14px>.","orientation_history":[0],"rt":2510,"trial_type":"polygon-arrow-feedback","trial_index":0,"trial_index_global":32,"time_elapsed":3302953,"internal_chunk_id":"0-0. 7-0"},{"nsides":6,"question":"What is the inverse of 0 under <img src=./images/hexagon_symbol.png style=width:14px;height:14px>? <br /><br /> (Remember, the inverse of an element is the thing which you combine with it to produce the identity.)","response_type":"free","response_choices":[],"correct_response":"0","response":"0","explain":false,"explanation":"","explanation_history":[],"orientation_history":[[0]],"response_history":["9","0"],"rt":18635,"trial_type":"polygon-arrow-question","trial_index":0,"trial_index_global":33,"time_elapsed":3321589,"internal_chunk_id":"0-0.7-0"},{"nsides":6,"feedback":"Correct! The inverse of 0 under <img src=./images/hexagon_symbol.png style=width:14px;height:14px> is 0 because 0 <img src=./images/hexagon_symbol.png style=width:14px;height:14px> 0 = 0, and 0 is the identity under <img src=./images/hexagon_symbol.png style=width:14px;height:14px>.","orientation_history":[0],"rt":2781,"trial_type":"polygon-arro w-feedba ck","trial_index":0,"trial_index_global":34,"time_elapsed":3324371,"internal_chunk_id":"0-0.7-0"},{"instructions":"It is also possible to successively apply <img src=./images/hexagon_symbol.png style=width:14px;height:14px>, and the operation can simply be performed starting with the left-most pair. For example, 2 <img src=./images/hexagon_symbol.png style=width:14px;height:14px> 3 <img src=./images/hexagon_symbol.png style=width:14px;height:14px> 4 = 5 <img src=./images/hexagon_symbol.png style=width:14px;height:14px> 4 = 3.","rt":34930,"trial_type":"instructions","trial_index":0,"trial_index_global":35,"time_elapsed":3359303,"internal_chunk_id":"0-0"},{"nsides":6,"instructions":"We have one last definition to learn today, using the successive operations we just learned. Let's start with an example. Under our operation <img src=./images/hexagon_symbol.png style=width:14px;height:14px> we can make every other number using just 1: 2 = 1  <img sr c=./images/hexagon_symbol.png style=width:14px;height:14px> 1, 3 = 1 <img src=./images/hexagon_symbol.png style=width:14px;height:14px> 1 <img src=./images/hexagon_symbol.png style=width:14px;height:14px> 1, 4 = 1 <img src=./images/hexagon_symbol.png style=width:14px;height:14px> 1 <img src=./images/hexagon_symbol.png style=width:14px;height:14px> 1 <img src=./images/hexagon_symbol.png style=width:14px;height:14px> 1, 5 = 1 <img src=./images/hexagon_symbol.png style=width:14px;height:14px> 1 <img src=./images/hexagon_symbol.png style=width:14px;height:14px> 1 <img src=./images/hexagon_symbol.png style=width:14px;height:14px> 1 <img src=./images/hexagon_symbol.png style=width:14px;height:14px> 1, and 0 = 1 <img src=./images/hexagon_symbol.png style=width:14px;height:14px> 1 <img src=./images/hexagon_symbol.png style=width:14px;height:14px> 1 <img src=./images/hexagon_symbol.png  style=width:14px;height:14px> 1 <img src=./images/hexagon_symbol.png style=width:14px;height:14px> 1 <img src=./images/hexagon_symbol.png style=width:14px;height:14px> 1. Because 1 can make every other element under <img src=./images/hexagon_symbol.png style=width:14px;height:14px>, we say that 1 is a <i>generator</i> under <img src=./images/hexagon_symbol.png style=width:14px;height:14px>. <br /><br /> However, 2 is not a generator under <img src=./images/hexagon_symbol.png style=width:14px;height:14px>, because 4 = 2 <img src=./images/hexagon_symbol.png style=width:14px;height:14px> 2, and 0 = 2 <img src=./images/hexagon_symbol.png style=width:14px;height:14px> 2 <img src=./images/hexagon_symbol.png style=width:14px;height:14px> 2, but there is no way to make 1, 3, or 5 using just 2.","orientation_history":[0],"rt":216376,"trial_type":"polygon-arrow-instructions","trial_index":0,"trial_index_global":36,"time_elapsed":3575680,"internal_chunk_id":"0-0"},{"nsides":6,"question":"Now you try! Is 3 a generator under <img src=./images/hexagon_symbol.png style=width:14px;height:14px>? <br /><br /> (Remember, a generator is an element which can make every other element.)","response_type":"multi","response_choices":["Yes","No"],"correct_response":"No","response":"Yes","explain":false,"explanation":"","explanation_history":[],"orientation_history":[[0]],"response_history":["Yes"],"rt":20764,"trial_type":"polygon-arrow-question","trial_index":0,"trial_index_global":37,"time_elapsed":3596449,"internal_chunk_id":"0-0.10-0"},{"nsides":6,"feedback":"Sorry, that's incorrect. 3 is not a generator under <img src=./images/hexagon_symbol.png style=width:14px;height:14px>, because 3 = 3, 0 = 3 <img src=./images/hexagon_symbol.png style=width:14px;height:14px> 3, but there is no way to make 1, 2, 4, or 5 using just 3.","orientation_history":[0],"rt":30108,"trial_type":"polygon-arrow-feedba ck","trial_index":0,"trial_index_global":38,"time_elapsed":3626558,"internal_chunk_id":"0-0.10-0"},{"nsides":6,"question":"Is 5 a generator under <img src=./images/hexagon_symbol.png style=width:14px;height:14px>? <br /><br /> (Remember, a generator is an element which can make every other element.)","response_type":"multi","response_choices":["Yes","No"],"correct_response":"Yes","response":"Yes","explain":false,"explanation":"","explanation_history":[],"orientation_history":[[0]],"response_history":["Yes"],"rt":5072,"trial_type":"polygon-arrow-question","trial_index":0,"trial_index_global":39,"time_elapsed":3631632,"internal_chunk_id":"0-0.10-0"},{"nsides":6,"feedback":"Correct! 5 is a generator under <img src=./images/hexagon_symbol.png style=width:14px;height:14px>, because 5 = 5, 4 = 5 <img src=./images/hexagon_symbol.png style=width:14px;height:14px> 5, 3 = 5 <img src=./images/hexagon_symbol.png style=width:14px;height:14px> 5 <img src=./images /hexagon _symbol.png style=width:14px;height:14px> 5, 2 = 5 <img src=./images/hexagon_symbol.png style=width:14px;height:14px> 5 <img src=./images/hexagon_symbol.png style=width:14px;height:14px> 5 <img src=./images/hexagon_symbol.png style=width:14px;height:14px> 5, 1 = 5 <img src=./images/hexagon_symbol.png style=width:14px;height:14px> 5 <img src=./images/hexagon_symbol.png style=width:14px;height:14px> 5 <img src=./images/hexagon_symbol.png style=width:14px;height:14px> 5 <img src=./images/hexagon_symbol.png style=width:14px;height:14px> 5, and 0 = 5 <img src=./images/hexagon_symbol.png style=width:14px;height:14px> 5 <img src=./images/hexagon_symbol.png style=width:14px;height:14px> 5 <img src=./images/hexagon_symbol.png style=width:14px;height:14px> 5 <img src=./images/hexagon_symbol.png style=width:14px;height:14px> 5 <img src=./images/hexagon_symbol.png style=width:14px;height: 14px>  5, so you can make all of the numbers under <img src=./images/hexagon_symbol.png style=width:14px;height:14px> using 5","orientation_history":[0],"rt":26480,"trial_type":"polygon-arrow-feedback","trial_index":0,"trial_index_global":40,"time_elapsed":3658114,"internal_chunk_id":"0-0.10-0"},{"nsides":6,"question":"Is 4 a generator under <img src=./images/hexagon_symbol.png style=width:14px;height:14px>? <br /><br /> (Remember, a generator is an element which can make every other element.)","response_type":"multi","response_choices":["Yes","No"],"correct_response":"No","response":"No","explain":false,"explanation":"","explanation_history":[],"orientation_history":[[0]],"response_history":["No"],"rt":6786,"trial_type":"polygon-arrow-question","trial_index":0,"trial_index_global":41,"time_elapsed":3664901,"internal_chunk_id":"0-0.10-0"},{"nsides":6,"feedback":"Correct! 4 is not a generator under <img src=./images/hexagon_symbol.png style=width:14px;height:14 px>, b ecause 4 = 4, 2 = 4 <img src=./images/hexagon_symbol.png style=width:14px;height:14px> 4, and 0 = 4 <img src=./images/hexagon_symbol.png style=width:14px;height:14px> 4 <img src=./images/hexagon_symbol.png style=width:14px;height:14px> 4, but there is no way to make 1, 3, or 5 using just 4.","orientation_history":[0],"rt":64463,"trial_type":"polygon-arrow-feedback","trial_index":0,"trial_index_global":42,"time_elapsed":3729365,"internal_chunk_id":"0-0.10-0"},{"nsides":6,"question":"Is 0 a generator under <img src=./images/hexagon_symbol.png style=width:14px;height:14px>? <br /><br /> (Remember, a generator is an element which can make every other element.)","response_type":"multi","response_choices":["Yes","No"],"correct_response":"No","response":"Yes","explain":false,"explanation":"","explanation_history":[],"orientation_history":[[0]],"response_history":["Yes"],"rt":5574,"trial_type":"polygon-arrow-question","trial_index":0,"trial_index_global":43,"time_elapsed":3734942,"internal_chunk_id":"0-0.10-0"},{"nsides":6,"feedback":"Sorry, that's incorrect. 0 is not a generator under <img src=./images/hexagon_symbol.png style=width:14px;height:14px>, because 0 = 0, but there is no way to make 1, 2, 3, 4, or 5 using just 0.","orientation_history":[0],"rt":5661,"trial_type":"polygon-arrow-feedback","trial_index":0,"trial_index_global":44,"time_elapsed":3740605,"internal_chunk_id":"0-0.10-0"},{"nsides":9,"instructions":"Now we are going to ask you some questions about a new operation, <img src=./images/nonagon_symbol.png style=width:14px;height:14px>, on the numbers 0, 1, 2, 3, 4, 5, 6, 7, 8. It works exactly like <img src=./images/hexagon_symbol.png style=width:14px;height:14px>, except now you use the nonagon shown at the right. <br /><br />Do you see how <img src=./images/nonagon_symbol.png style=width:14px;height:14px> works just like <img src=./images/hexagon_symbol.png style=width:14px; height:1 4px>? By labeling the points of the nonagon with the numbers from 0 to 8, we ensure that when we combine two numbers under <img src=./images/nonagon_symbol.png style=width:14px;height:14px>, we only produce numbers between 0 and 8. <br /><br />We'll give you one practice question with feedback to make sure you understand the new operation. After that, try to complete the remaining questions as accurately as possible.","orientation_history":[0,[0,0,0,0,0,0,0,0,0,0.014249849737537623,0.028517124567505547,-6.226104524773321,-6.211819782185924,-6.183273592104594,-6.139366186097336,-6.108995780206457,-6.0945163833154,-6.0945163833154,-6.034456028086644,-6.034456028086644,-5.98826859731587,-5.97029596015795,-5.937517162879244,-5.918707051650499,-5.8995230900827025,-5.885125571276972,-5.885125571276972,-5.885125571276972,-5.885125571276972,-5.914062403210788,-5.9287393795493974,-6.17998340875881,-0.04701915570333437,-0.061759562161499915,-0.061759562161499915,-0.061759562161499915,-0.061759562161499915,-0.060027962160599024,-0.03092659112147622,-0.01631654349534628,0.028103388554703734,0.028103388554703734,-5.995884937496477,-5.995884937496477,-5.821212738488238,-5.685685024502737,-5.613952027828238,-5.575683111229797,-5.524844601907044,-5.476835211888648,-5.416901335190802,-5.369398896590583,-5.3352170528507825,-5.28894120604817,-5.275557683961246,-5.176446341462543,-5.118955806979231,-5.084486705979723,-5.0781621241113655,-5.0582197888319405,-5.03859234572411,-5.019287154488069,-5.014078868248997,-4.995405317488187,-4.967799757712943,-4.953807129564604,1.3962634015954636],[1.3962634015954636,1.3962634015954636,1.3962634015954636,1.3962634015954636,1.3962634015954636,1.3962634015954636,1.3962634015954636,1.3962634015954636,1.3962634015954636,1.3962634015954636,1.4053955678148746,1.4053955678148746,1.4053955678148746,1.4453311273235796,1.4771675007506944,1.542011528303901,1.6079948968247513,1.674563060600575,1.7776446691232752,1.8452982720758577,1.9528627196056865,2.0175870010212784,2.123286404611296,2.1529154919792326,2.3056424480719047,2.3539768660084235,2.416510328606493,2.632152038520962,2.741193425916319,2.7680140050218,2.795599774325633,2.795599774325633,2.795599774325633,2.795599774325633,2.795599774325633,2.795599774325633,2.795599774325633,2.836451558444546,2.864853010283107,2.953902592917605,3.607903624659979,4.03075755079292,4.2510062741836085,4.352508105189562,4.399717096998777,4.42927999645934,4.55133838428458,4.60278707203856,4.735684702924908,4.862996427106338,4.971152456114309,5.119040582565339,5.188554160867123,5.380725107858468,5.454116713459879,5.5349857138119924,5.591845444753708,5.659182305065291,5.818104182563906,5.818104182563906,5.8489078331596405,5.898618089928859,5.92947719308924,5.960324547858389,5.985723241980416,6.065201486588623,6.096865108664237,6.096865108664237,6.128181149021567,6.1839068237318,6.226576597009314,6.24093978327399,6.3579746471337035,0.13274412765723964,0.2618567049273641,0.32087804854058355,0.3800940087807436,0.39385366612670647,0.39385366612670647,0.39385366612670647,0.39385366612670647,0.39385366612670647,0.39385366612670647,0.39385366612670647,0.39385366612670647,0.39385366612670647,0.39385366612670647,0.39385366612670647,0.39385366612670647,0.39385366612670647,0.39385366612670647,0.39385366612670647,0.39385366612670647,0.39385366612670647,0.39385366612670647,0.39385366612670647,0.39385366612670647,0.39385366612670647,0.39385366612670647,0.3800940087807436,0.3800940087807436,0.3800940087807436,0.3800940087807436,0.3800940087807436,0.3800940087807436,0.3800940087807436,0.3662261336319548,0.3381824095294892,0.30975807048150994,0.30975807048150994,0.29541523049235563,0.2664941084460595,0.2519267545375097,0.23729578289754993,0.20786667191527775,0.17825552401956024,0.16339744693684777,0.16339744693684777,0.16339744693684777,0.16339744693684777,0.14851296526029412,0.14851296526029412,0.13360861847278782,0.13360861847278782,0.13360861847278782,0.13360861847278782,0.13360861847278782,0.13360861847278782,0.13360861847278782,0.13360861847278782,0.13360861847278782,0.11869099879576339,0.11869099879576339,0.11869099879576339,0.11869099879576339,0.11869099879576339,0.11869099879576339,0.11869099879576339,0.11869099879576339,0.11869099879576339,0.11869099879576339,0.11869099879576339,0.11869099879576339,0.11869099879576339,0.11869099879576339,0.11869099879576339,0.11869099879576339,0.11869099879576339,0.11869099879576339,0.11869099879576339,0.11869099879576339,0.11869099879576339,0.11869099879576339,0.11869099879576339,0.11869099879576339,0.11869099879576339,0.11869099879576339,0.11869099879576339,0.11869099879576339,0.11869099879576339,0.11869099879576339,0.11869099879576339,0.11869099879576339,0.11869099879576339,0.11869099879576339,0.11869099879576339,0.11869099879576339,0.11869099879576339,0.11869099879576339,0.11869099879576339,0.10376673380567847,6.372027775995179,6.372027775995179,6.357110156318155,6.297638047992042,6.245054986381101,6.1581531955980395,6.12298831735956,6.105180173711912,6.096687141056221,6.080467476135403,6.080467476135403,6.076353440614237,6.065201486588623,6.065201486588623,6.054131828058516,6.054131828058516,6.054131828058516,6.054131828058516,6.054131828058516,6.054131828058516,6.054131828058516,6.054131828058516,6.054131828058516,6.054131828058516,6.054131828058516,6.054131828058516,6.054131828058516,6.054131828058516,6.054131828058516,6.054131828058516,6.054131828058516,6.054131828058516,6.054131828058516,6.054131828058516,6.054131828058516,6.054131828058516,6.054131828058516,6.0431462398951075,6.0431462398951075,6.05815934948031,6.071958140524408,6.071737341234554,6.0780212970615235,6.081073169580413,6.087004884488323,6.089887828644222,6.0772490964428085,6.07405081310488,5.803316221908104,5.803316221908104,5.79029164510795,5.79029164510795,5.79029164510795,5.79029164510795,5.79029164510795,5.79029164510795,5.79029164510795,5.79029164510795,5.79029164510795,5.79029164510795,5.79029164510795,5.79029164510795,5.79029164510795,5.79029164510795,5.79029164510795,5.779429140593893,5.7667025550024436,5.679927048513801,5.616331126995308,5.5343904757870535,5.510106588974998,5.494666666828006,5.487161846515157,5.467901630270623,5.439064768370613,5.429192210512294,5.429192210512294,5.417876969245128,5.417876969245128,5.417876969245128,5.417876969245128,5.417876969245128,5.417876969245128,5.417876969245128,5.417876969245128,5.417876969245128,5.417876969245128,5.417876969245128,5.417876969245128,5.417876969245128,5.417876969245128,5.417876969245128,5.417876969245128,5.417876969245128,5.417876969245128,5.417876969245128,5.417876969245128,5.417876969245128,5.417876969245128,5.417876969245128,5.417876969245128,5.417876969245128,5.417876969245128,5.417876969245128,5.417876969245128,5.417876969245128,5.417876969245128,5.417876969245128,5.417876969245128,5.417876969245128,5.422393378377401,5.430027735615716,5.480805255865793,5.530246412802526,5.601553877587817,5.6717088265560855,5.751925305594951,5.8750961985534405,5.887605319305135,5.90487333959036,5.9092866586225155,5.918609630796964,5.928021378132864,5.928021378132864,5.928021378132864,5.928021378132864,5.928021378132864,5.928021378132864,5.928021378132864,5.932649954291949,5.937192427915426,5.937192427915426,5.937192427915426,5.937192427915426,5.964565404537938,6.010240712067201,6.065201486588623,6.113110004758123,6.163475439844632,6.207098541192787,6.251424326999764,6.261182620224737,6.272511735715201,6.272511735715201,6.272511735715201,6.272511735715201,6.272511735715201,6.272511735715201,6.272511735715201,6.283870432462565,6.283870432462565,6.283870432462565,6.283870432462565,6.283870432462565,6.283870432462565,6.283870432462565,6.283870432462565,6.283870432462565,6.283870432462565,6.283870432462565,6.283870432462565,6.283870432462565,6.283870432462565,6.283870432462565,6.283870432462565,6.283870432462565,6.283870432462565,6.283870432462565,6.283870432462565,6.283870432462565,6.283870432462565,6.283870432462565,6.283870432462565,6.283870432462565,6.283870432462565,6.283870432462565,6.283870432462565,6.283870432462565,6.283185307179586]],"rt":63060,"trial_type":"polygon-arrow-instructions","trial_index":0,"trial_index_global":45,"time_elapsed":3803668,"internal_chunk_id":"0-0"},{"nsides":9,"question":"Practice: What is 5 <img src=./images/nonagon_symbol.png style=width:14px;height:14px> 5?","response_type":"free","response_choices":[],"correct_response":"1","response":"1","explain":false,"explanation":"","explanation_history":[],"orientation_history":[[0],[0,0,0,0,0,0,0,0,0,0.016665123713940577,0.09966865249116186,0.13255153229667394,0.3066763194016826,0.4502255962607149,0.6153395418053919,0.6573891047242514,0.6895390162874351,0.7188299996216244,0.7288547264526308,0.7387031593541178,0.7387031593541178,0.7387031593541178,0.7387031593541178,0.7387031593541178,0.6981317007977318]],"response_history":["1"],"rt":10933,"trial_type":"polygon-arrow-question","trial_index":0,"trial_index_global":46,"time_elapsed":3814602,"internal_chunk_id":"0-0.12-0"},{"nsides":9,"feedback":"Correct! 5 <img src=./images/nonagon_symbol.png style=width:14px;height:14px> 5 = 1 because 5 steps clockwise on the nonagon from 5 brings us to 1","orientation_history":[0],"rt":3429,"trial_type":"polygon-arrow-feedback","trial_index":0,"trial_index_global":47,"time_elapsed":3818032,"internal_chunk_id":"0-0.12-0"},{"nsides":9,"question":"What is 3 <img src=./images/nonagon_symbol.png style=width:14px;height:14px> 3?","response_type":"free","response_choices":[],"correct_response":"6","response":"6","explain":false,"explanation":"","explanation_history":[],"orientation_history":[[0],[0,0,0,0,0,0,0,0,0,0,0,0,0,-0.01943599718682254,-0.05885871698414924,-0.10177369369175437,-0.583738035010656,-0.9527835958917272,-1.5701777063974722,-1.7700858237741972,-1.8166841907865177,-1.869754476265359,-1.891437824344961,-1.8985608656382702,-1.9119828783783612,-1.9119828783783612,-1.9382925956312835,-1.9511784803054155,-1.9764097178039144,-1.9764097178039144,-1.9764097178039144,-1.9764097178039144,-1.9764097178039144,-1.9764097178039144,-1.9887547696481391,-1.9887547696481391,-1.9887547696481391,-1.9887547696481391,-1.9887547696481391,-1.9887547696481391,-1.9887547696481391,-1.9887547696481391,-1.9887547696481391,-2.0009196196682684,-2.0009196196682684,-2.0129046630456546,-2.0129046630456546,-2.0129046630456546,-2.0129046630456546,-2.0129046630456546,-2.0129046630456546,-2.0129046630456546,-2.0129046630456546,-2.0129046630456546,4.1887902047863905]],"response_history":["6"],"rt":14596,"trial_type":"polygon-arrow-question","trial_index":0,"trial_index_global":48,"time_elapsed":3832630,"internal_chunk_id":"0-0.12-0"},{"nsides":9,"question":"What is 7 <img src=./images/nonagon_symbol.png style=width:14px;height:14px> 4?","response_type":"free","response_choices":[],"correct_response":"2","response":"2","explain":false,"explanation":"","explanation_history":[],"orientation_history":[[0],[6.130535978784321,6.130535978784321,6.130535978784321,6.130535978784321,6.130535978784321,6.130535978784321,6.130535978784321,6.130535978784321,6.130535978784321,6.130535978784321,6.145598570709236,0.01587168299178998,0.21687361566640817,0.21687361566640817,0.47835243137865757,0.7853981633974483,0.9912323415015735,1.1071487177940904,1.1441688336680205,1.1801892830972098,1.1928280152986233,1.2231894670389947,1.2360594894780819,1.3962634015954636]],"response_history":["2"],"rt":10087,"trial_type":"polygon-arrow-question","trial_index":0,"trial_index_global":49,"time_elapsed":3842718,"internal_chunk_id":"0-0.12-0"},{"nsides":9,"question":"What is 1 <img src=./images/nonagon_symbol.png style=width:14px;height:14px> 8?","response_type":"free","response_choices":[],"correct_response":"0","response":"0","explain":false,"explanation":"","explanation_history":[],"orientation_history":[[0]],"response_history":["0"],"rt":8143,"trial_type":"polygon-arrow-question","trial_index":0,"trial_index_global":50,"time_elapsed":3850862,"internal_chunk_id":"0-0.12-0"},{"nsides":9,"question":"What is 5 <img src=./images/nonagon_symbol.png style=width:14px;height:14px> 4?","response_type":"free","response_choices":[],"correct_response":"0","response":"0","explain":false,"explanation":"","explanation_history":[],"orientation_history":[[0]],"response_history":["0"],"rt":7554,"trial_type":"polygon-arrow-question","trial_index":0,"trial_index_global":51,"time_elapsed":3858417,"internal_chunk_id":"0-0.12-0"},{"nsides":9,"question":"What is 6 <img src=./images/nonagon_symbol.png style=width:14px;height:14px> 6?","response_type":"free","response_choices":[],"correct_response":"3","response":"3","explain":false,"explanation":"","explanation_history":[],"orientation_history":[[0],[0.513252272866261,0.513252272866261,0.513252272866261,0.513252272866261,0.513252272866261,0.513252272866261,0.513252272866261,0.513252272866261,0.513252272866261,0.513252272866261,0.513252272866261,0.513252272866261,0.6370703292756835,0.6722471818069637,1.0222469243443686,1.2627435457711202,1.4544411615880217,1.5337762109209665,1.6381102025876018,1.6693768404336995,1.6790669176553525,1.7186456920536521,1.3962634015954636],[1.6056659083496863,1.6056659083496863,1.6056659083496863,1.6056659083496863,1.6056659083496863,1.6056659083496863,1.6056659083496863,1.6288704863578505,1.6520126332456342,1.7590178320996672,1.7843567602753847,1.8072524689948137,1.8298983445743067,1.8522756253229393,1.8853006312116416,1.9069343775804644,1.9492237048235737,1.9698572753710304,1.9901379743449266,2.0100585266229842,2.019881858402964,2.019881858402964,2.019881858402964,2.019881858402964,2.019881858402964,2.019881858402964,2.0943951023931953]],"response_history":["3"],"rt":10405,"trial_type":"polygon-arrow-question","trial_index":0,"trial_index_global":52,"time_elapsed":3868823,"internal_chunk_id":"0-0.12-0"},{"nsides":9,"instructions":"On the following question, and sever al other s later in the HIT, we will ask you to explain how you got your answer. On these questions, you will be given one box for your answer to the question, and a second for your explanation. Please explain your thought process in as much detail as possible (at least one sentence, and more if you can).","orientation_history":[0],"rt":18791,"trial_type":"polygon-arrow-instructions","trial_index":0,"trial_index_global":53,"time_elapsed":3887616,"internal_chunk_id":"0-0.12-0"},{"nsides":9,"question":"What is 4 <img src=./images/nonagon_symbol.png style=width:14px;height:14px> 1? Please explain in words how you got your answer.","response_type":"free","response_choices":[],"correct_response":"5","response":"5","explain":true,"explanation":"From the 4, I move forward 1 spot clockwise ans arrive at 5.","explanation_history":["From the 4 ","From the 4, I move foward i","From the 4, I move foward one spot ","From the 4, I move forward on spot ","From the 4, I move forward o spot ","From t he 4, I move forward  spot ","From the 4, I move forward i spot ","From the 4, I move forward  spot ","From the 4, I move forward 1 spot clockwise ans arrive at 5."],"orientation_history":[[0]],"response_history":["5"],"rt":87931,"trial_type":"polygon-arrow-question","trial_index":0,"trial_index_global":54,"time_elapsed":3975548,"internal_chunk_id":"0-0.12-0"},{"nsides":9,"question":"What is 8 <img src=./images/nonagon_symbol.png style=width:14px;height:14px> 4? Please explain in words how you got your answer.","response_type":"free","response_choices":[],"correct_response":"3","response":"3","explain":true,"explanation":"from the 8 I move 4 times clockwise to the 3.","explanation_history":["from the 8 I move 4 times clockwise to the 3."],"orientation_history":[[0]],"response_history":["3"],"rt":87847,"trial_type":"polygon-arrow-question","trial_index":0,"trial_index_global":55,"time_elapsed":4063397,"internal_chunk_id":"0-0.12-0"},{"nsides":9,"question":"What is the  identit y under <img src=./images/nonagon_symbol.png style=width:14px;height:14px>? Please explain in words how you got your answer.","response_type":"free","response_choices":[],"correct_response":"0","response":"0","explain":true,"explanation":"0 is the inverse number that you combine with another number to get to the answer.","explanation_history":["0 is the inverse number that you combine with another number to get to the answer."],"orientation_history":[[0]],"response_history":["0"],"rt":222032,"trial_type":"polygon-arrow-question","trial_index":0,"trial_index_global":56,"time_elapsed":4285432,"internal_chunk_id":"0-0.12-0"},{"nsides":9,"question":"What is the inverse of 5 under <img src=./images/nonagon_symbol.png style=width:14px;height:14px>?","response_type":"free","response_choices":[],"correct_response":"4","response":"0","explain":false,"explanation":"","explanation_history":[],"orientation_history":[[0]],"response_history":["0"],"rt":15119,"trial_type":" polygon- arrow-question","trial_index":0,"trial_index_global":57,"time_elapsed":4300560,"internal_chunk_id":"0-0.12-0"},{"nsides":9,"question":"What is the inverse of 2 under <img src=./images/nonagon_symbol.png style=width:14px;height:14px>?","response_type":"free","response_choices":[],"correct_response":"7","response":"0","explain":false,"explanation":"","explanation_history":[],"orientation_history":[[0]],"response_history":["0"],"rt":12293,"trial_type":"polygon-arrow-question","trial_index":0,"trial_index_global":58,"time_elapsed":4312855,"internal_chunk_id":"0-0.12-0"},{"nsides":9,"question":"What is the inverse of 0 under <img src=./images/nonagon_symbol.png style=width:14px;height:14px>?","response_type":"free","response_choices":[],"correct_response":"0","response":"0","explain":false,"explanation":"","explanation_history":[],"orientation_history":[[0]],"response_history":["0"],"rt":3635,"trial_type":"polygon-arrow-question","trial_index":0,"trial_index_global":59,"time_elapsed":4316491,"internal_chunk_id":"0-0.12-0"},{"nsides":9,"question":"What is the inverse of 3 under <img src=./images/nonagon_symbol.png style=width:14px;height:14px>? Please explain in words how you got your answer.","response_type":"free","response_choices":[],"correct_response":"6","response":"3","explain":true,"explanation":"3 is it's own number so 3 3=3","explanation_history":["3 is it's own number so 3 3_","3 is it's own number so 3 3-","3 is it's own number so 3 3=3"],"orientation_history":[[0]],"response_history":["3"],"rt":71371,"trial_type":"polygon-arrow-question","trial_index":0,"trial_index_global":60,"time_elapsed":4387863,"internal_chunk_id":"0-0.12-0"},{"nsides":9,"question":"Is 2 a generator under <img src=./images/nonagon_symbol.png style=width:14px;height:14px>? Please explain in words how you got your answer.","response_type":"multi","response_choices":["Yes","No"],"correct_response":"Yes","response":"No","explain":true,"explanation":"Beca use you can't make other numbers e.g. 1 or 3","explanation_history":["Because you can't make other numbers e.g. 10","Because you can't make other numbers e.g. 1 or 3"],"orientation_history":[[0]],"response_history":["No"],"rt":105730,"trial_type":"polygon-arrow-question","trial_index":0,"trial_index_global":61,"time_elapsed":4493594,"internal_chunk_id":"0-0.12-0"},{"nsides":9,"question":"Is 3 a generator under <img src=./images/nonagon_symbol.png style=width:14px;height:14px>? Please explain in words how you got your answer.","response_type":"multi","response_choices":["Yes","No"],"correct_response":"No","response":"Yes","explain":true,"explanation":"because 3=1 1 1","explanation_history":["because 3=1 is 4","because 3=1 is ","because 3=1 is","because 3=1 i","because 3=1 1 1"],"orientation_history":[[0]],"response_history":["Yes"],"rt":144785,"trial_type":"polygon-arrow-question","trial_index":0,"trial_index_global":62,"time_elapsed":4638381,"internal_chunk_id":"0-0. 12-0"},{"nsides":9,"question":"Is 5 a generator under <img src=./images/nonagon_symbol.png style=width:14px;height:14px>? Please explain in words how you got your answer.","response_type":"multi","response_choices":["Yes","No"],"correct_response":"Yes","response":"Yes","explain":true,"explanation":"because 5 can be used to = other numbers","explanation_history":["because 5 can be used to make other numbers","because 5 can be used to mak other numbers","because 5 can be used to ma other numbers","because 5 can be used to m other numbers","because 5 can be used to  other numbers","because 5 can be used to other numbers","because 5 can be used to= other numbers","because 5 can be used to = other numbers"],"orientation_history":[[0]],"response_history":["Yes"],"rt":95499,"trial_type":"polygon-arrow-question","trial_index":0,"trial_index_global":63,"time_elapsed":4733882,"internal_chunk_id":"0-0.12-0"},{"nsides":9,"question":"Is 6 a generator under <img src=./images/nonagon_sym bol.png style=width:14px;height:14px>? Please explain in words how you got your answer.","response_type":"multi","response_choices":["Yes","No"],"correct_response":"No","response":"No","explain":true,"explanation":"because you can't make every number out of it.","explanation_history":["because you can't make every number out of iy","because you can't make every number out of it."],"orientation_history":[[0]],"response_history":["No"],"rt":90076,"trial_type":"polygon-arrow-question","trial_index":0,"trial_index_global":64,"time_elapsed":4823959,"internal_chunk_id":"0-0.12-0"},{"nsides":"n","instructions":"Now we'd like to ask you some questions about <img src=./images/ngon_symbol.png style=width:14px;height:14px>, where n could be any positive counting number. For example, n could be 3, and the polygon a triangle, or n could be any other counting number you can think of. If you need to write the operation, you can use (n), and your answers can include n to stand in  for the  arbitrary value if necessary. (You can use the polygon at the right to think, but it doesn't necessarily correspond to the real polygon, which is why we've left most of it dashed.)","orientation_history":[0],"rt":43818,"trial_type":"polygon-arrow-instructions","trial_index":0,"trial_index_global":65,"time_elapsed":4867781,"internal_chunk_id":"0-0"},{"nsides":"n","question":"What is the formula for the inverse of 1 under <img src=./images/ngon_symbol.png style=width:14px;height:14px>?","response_type":"free","response_choices":[],"correct_response":"n-1","response":"1 under n =2","explain":false,"explanation":"","explanation_history":[],"orientation_history":[[0]],"response_history":["1 under n -","1 under n =2"],"rt":130969,"trial_type":"polygon-arrow-question","trial_index":0,"trial_index_global":66,"time_elapsed":4998752,"internal_chunk_id":"0-0.14-0"},{"nsides":"n","question":"What is the formula for the inverse of an element x under <img src=./images/ngon_symbo l.png  style=width:14px;height:14px>? Please explain in words why your answer is correct.","response_type":"free","response_choices":[],"correct_response":"n-x","response":"2","explain":true,"explanation":"1 under 1 = 2","explanation_history":["1 under 1 =2","1 under 1 = 2"],"orientation_history":[[0]],"response_history":["1","2"],"rt":49587,"trial_type":"polygon-arrow-question","trial_index":0,"trial_index_global":67,"time_elapsed":5048341,"internal_chunk_id":"0-0.14-0"},{"nsides":"n","question":"Is there a pattern to which elements are generators? How can you know if an element x is a generator under <img src=./images/ngon_symbol.png style=width:14px;height:14px> without seeing whether it can make all the elements?.","response_type":"free","response_choices":[],"correct_response":"","response":"A number that is a positive number","explain":false,"explanation":"","explanation_history":[],"orientation_history":[[0]],"response_history":["A number that can make other ","A  number  that can make other","A number that can make othe","A number that can make oth","A number that can make ot","A number that can make o","A number that can make ","A number that can make","A number that can mak","A number that can ma","A number that can m","A number that can ","A number that can","A number that ca","A number that c","A number that is a possitive m","A number that is a possitive number","A number that is a positive number"],"rt":114197,"trial_type":"polygon-arrow-question","trial_index":0,"trial_index_global":68,"time_elapsed":5162540,"internal_chunk_id":"0-0.14-0"},{"nsides":"n","question":"True or false: If x is an odd number, it must be a generator under <img src=./images/ngon_symbol.png style=width:14px;height:14px>.","response_type":"multi","response_choices":["True","False"],"correct_response":"False","response":"False","explain":false,"explanation":"","explanation_history":[],"orientation_history":[[0]],"response_history":["False"],"rt":9117,"trial_type":"polygon-arrow-question","trial_index":0,"trial_index_global":69,"time_elapsed":5171659,"internal_chunk_id":"0-0.14-0"},{"nsides":"n","question":"True or false: If x is an even number, it must not be a generator under <img src=./images/ngon_symbol.png style=width:14px;height:14px>.","response_type":"multi","response_choices":["True","False"],"correct_response":"False","response":"False","explain":false,"explanation":"","explanation_history":[],"orientation_history":[[0]],"response_history":["False"],"rt":24900,"trial_type":"polygon-arrow-question","trial_index":0,"trial_index_global":70,"time_elapsed":5196560,"internal_chunk_id":"0-0.14-0"},{"nsides":"n","question":"True or false: If x is not a generator under <img src=./images/ngon_symbol.png style=width:14px;height:14px>, x must be a divisor of n, that is, x must divide n evenly, with no remainder.","response_type":"multi","response_choices":["True","False"],"correct_response":"False","response":"True","explain":false,"explanation":"","explanation_history":[],"orientation_history":[[0]],"response_history":["True"],"rt":13685,"trial_type":"polygon-arrow-question","trial_index":0,"trial_index_global":71,"time_elapsed":5210247,"internal_chunk_id":"0-0.14-0"},{"nsides":"n","question":"True or false: If x is not a generator under <img src=./images/ngon_symbol.png style=width:14px;height:14px>, x must be a multiple of a divisor of n. Please explain in words how you got your answer.","response_type":"multi","response_choices":["True","False"],"correct_response":"True","response":"True","explain":true,"explanation":"Because it has to be a positive counting number.","explanation_history":["It has to ","It has to","Because it has to be a possitive ","Because it has to be a positive  ","Because it has to be a positive c ","Because it has to be a positive co ","Because it has to be a positive cou ","Because it has to be a positive coun ","Because it has to be a positive count ","Because  it has t o be a positive counti ","Because it has to be a positive countin ","Because it has to be a positive counting  ","Because it has to be a positive counting n ","Because it has to be a positive counting nu ","Because it has to be a positive counting num ","Because it has to be a positive counting numb ","Because it has to be a positive counting numbe ","Because it has to be a positive counting number ","Because it has to be a positive counting number. ","Because it has to be a positive counting number.I'm ","Because it has to be a positive counting number.I'm","Because it has to be a positive counting number.I'","Because it has to be a positive counting number.I","Because it has to be a positive counting number."],"orientation_history":[[0]],"response_history":["True"],"rt":161477,"trial_type":"polygon-arrow-question","trial_index":0,"trial_index_global":72,"time_elapsed":5371725,"internal_chunk_id":"0-0.14-0"},{"nsides":"n","question":"If an element x is a generator under <im g src= ./images/ngon_symbol.png style=width:14px;height:14px>, is its inverse a generator under <img src=./images/ngon_symbol.png style=width:14px;height:14px> always, sometimes, or never?","response_type":"multi","response_choices":["Always","Sometimes","Never"],"correct_response":"Always","response":"Sometimes","explain":false,"explanation":"","explanation_history":[],"orientation_history":[[0]],"response_history":["Never","Sometimes"],"rt":69567,"trial_type":"polygon-arrow-question","trial_index":0,"trial_index_global":73,"time_elapsed":5441294,"internal_chunk_id":"0-0.14-0"},{"nsides":"n","question":"If an element x is a generator under <img src=./images/ngon_symbol.png style=width:14px;height:14px>, is x <img src=./images/ngon_symbol.png style=width:14px;height:14px> x a generator under <img src=./images/ngon_symbol.png style=width:14px;height:14px> always, sometimes, or never? Please explain in words how you got your answer.","response_type":"mul ti","response_choices":["Always","Sometimes","Never"],"correct_response":"Sometimes","response":"Sometimes","explain":true,"explanation":"It depends if its a generating number.","explanation_history":["O","It depends if its a generating numbr","It depends if its a generating number."],"orientation_history":[[0]],"response_history":["Sometimes"],"rt":35110,"trial_type":"polygon-arrow-question","trial_index":0,"trial_index_global":74,"time_elapsed":5476406,"internal_chunk_id":"0-0.14-0"},{"nsides":"n","question":"If an element x is not a generator under <img src=./images/ngon_symbol.png style=width:14px;height:14px>, is x <img src=./images/ngon_symbol.png style=width:14px;height:14px> x a generator under <img src=./images/ngon_symbol.png style=width:14px;height:14px> always, sometimes, or never?","response_type":"multi","response_choices":["Always","Sometimes","Never"],"correct_response":"Never","response":"Never","explain":false,"explanation":"","explanation_history":[],"orientation_history":[[0]],"response_history":["Sometimes","Never"],"rt":33129,"trial_type":"polygon-arrow-question","trial_index":0,"trial_index_global":75,"time_elapsed":5509537,"internal_chunk_id":"0-0.14-0"},{"instructions":"We would like to ask you some questions about your background. Please press Continue to continue.","rt":3849,"trial_type":"instructions","trial_index":0,"trial_index_global":76,"time_elapsed":5513388,"internal_chunk_id":"0-0.15-0"},{"question":"What is your age?","response_type":"free","response_choices":[],"correct_response":"","response":"44","explain":false,"explanation":"","explanation_history":[],"response_history":["44"],"rt":3383,"trial_type":"question","trial_index":0,"trial_index_global":77,"time_elapsed":5516774,"internal_chunk_id":"0-0.15-0"},{"question":"What is your level of education?","response_type":"multi","response_choices":["Did not graduate high school","High school diploma","Some college, no degree","Associates De gree","B achelors Degree","Some graduate school, no degree","Masters Degree","Doctorate, M.D., etc."],"correct_response":"","response":"Some college, no degree","explain":false,"explanation":"","explanation_history":[],"response_history":["Some college, no degree"],"rt":3842,"trial_type":"question","trial_index":0,"trial_index_global":78,"time_elapsed":5520618,"internal_chunk_id":"0-0.15-0"},{"question":"What is the most advanced math class you've completed? If you have multiple classes and you're not sure which one is most advanced, please list them.","response_type":"free","response_choices":[],"correct_response":"","response":"Algebra in high school and very little math in college.","explain":false,"explanation":"","explanation_history":[],"response_history":["Algerbra ","Algebra  ","Algebra i ","Algebra in  ","Algebra in h ","Algebra in hi ","Algebra in hig ","Algebra in high  ","Algebra in high s ","Algebra in high sc ","Algebra in high sch ","Algebra in high scho ","Algebra in  high sch oo ","Algebra in high school  ","Algebra in high school a ","Algebra in high school an ","Algebra in high school and  ","Algebra in high school and s ","Algebra in high school and so ","Algebra in high school and som ","Algebra in high school and some  ","Algebra in high school and some m ","Algebra in high school and some ma ","Algebra in high school and some mat ","Algebra in high school and some math  ","Algebra in high school and some math i ","Algebra in high school and some math in  ","Algebra in high school and some math in c ","Algebra in high school and some math in co ","Algebra in high school and some math in col ","Algebra in high school and some math in coll ","Algebra in high school and some math in colle ","Algebra in high school and some math in colleg ","Algebra in high school and some math in college  ","Algebra in high school and some math in college b ","Algebra in high school and some math in college bu ","Algebra in high school and some math in college  but  "," Algebra in high school and some math in college but o ","Algebra in high school and some math in college but on ","Algebra in high school and some math in college but onl ","Algebra in high school and some math in college but only  ","Algebra in high school and some math in college but only a ","Algebra in high school and some math in college but only ar ","Algebra in high school and some math in college but only a ","Algebra in high school and some math in college but only at  ","Algebra in high school and some math in college but only at t ","Algebra in high school and some math in college but only at th ","Algebra in high school and some math in college but only at the  ","Algebra in high school and some math in college but only at the i ","Algebra in high school and some math in college but only at the in ","Algebra in high school and some math in college but only at the int ","Algebra in high school and some math in college but only at the inte ","Algebra in high school  and som e math in college but only at the inter ","Algebra in high school and some math in college but only at the interm ","Algebra in high school and some math in college but only at the intermi ","Algebra in high school and some math in college but only at the intermid ","Algebra in high school and some math in college but only at the intermida ","Algebra in high school and some math in college but only at the intermidat ","Algebra in high school and some math in college but only at the intermidate  ","Algebra in high school and some math in college but only at the intermidate l ","Algebra in high school and some math in college but only at the intermidate le ","Algebra in high school and some math in college but only at the intermidate lev ","Algebra in high school and some math in college but only at the intermidate leve ","Algebra in high school and some math in college but only at the intermidate level ","Algebra in high school and some math in college but only at the interme diate le vel ","Algebra in high school and some math in college but only at the intermediatelevel ","Algebra in high school and some math in college but only at the interlevel ","Algebra in high school and some math in college but only at the intelevel ","Algebra in high school and some math in college but only at the intlevel ","Algebra in high school and some math in college but only at the inlevel ","Algebra in high school and some math in college but only at the ilevel ","Algebra in high school and some math in college but only at the level ","Algebra in high school and some math in college but only at t","Algebra in high school and some math in college but only at ","Algebra in high school and some math in college but only at","Algebra in high school and some math in college but only a","Algebra in high school and some math in college but only 1st and 2nd semester","Algebra in high school and some math in college but only 1st and 2","Algebra in high school and some math in colle ge but o nly 1","Algebra in high school and some math in college but only beginner ","Algebra in high school and some math in college but only b","Algebra in high school and some math in college but ","Algebra in high school and some math in college but","Algebra in high school and some math in college bu","Algebra in high school and some math in college b","Algebra in high school and some math in college ","Algebra in high school and some math in college.","Algebra in high school and som math in college.","Algebra in high school and so math in college.","Algebra in high school and s math in college.","Algebra in high school and  math in college.","Algebra in high school and v math in college.","Algebra in high school and ve math in college.","Algebra in high school and ver math in college.","Algebra in high school and very math in college.","Algebra in high school and very  math in college.","Algebra in high school and very l math in college.","Algebra in high school and very li mat h in col lege.","Algebra in high school and very lit math in college.","Algebra in high school and very litt math in college.","Algebra in high school and very littl math in college.","Algebra in high school and very little math in college."],"rt":267355,"trial_type":"question","trial_index":0,"trial_index_global":79,"time_elapsed":5787975,"internal_chunk_id":"0-0.15-0"},{"question":"How familiar are you with the concept of modular arithmetic?","response_type":"multi","response_choices":["1 - never heard of it","2 - heard of it but didn't know what it was","3 - seen it used or explained","4 - used it but not often or recently","5 - used it, remember and understand it"],"correct_response":"1","response":"3 - seen it used or explained","explain":false,"explanation":"","explanation_history":[],"response_history":["3 - seen it used or explained"],"rt":103291,"trial_type":"question","trial_index":0,"trial_index_global":80,"time_elapsed":5891268,"internal_chunk_id":"0-0.15-0"},{"question":"How fam iliar are you with the concept of a mathematical group?","response_type":"multi","response_choices":["1 - never heard of it","2 - heard of it but didn't know what it was","3 - seen it used or explained","4 - used it but not often or recently","5 - used it, remember and understand it"],"correct_response":"1","response":"2 - heard of it but didn't know what it was","explain":false,"explanation":"","explanation_history":[],"response_history":["2 - heard of it but didn't know what it was"],"rt":66127,"trial_type":"question","trial_index":0,"trial_index_global":81,"time_elapsed":5957397,"internal_chunk_id":"0-0.15-0"},{"question":"Do you feel you learned something from this HIT?","response_type":"multi","response_choices":["1 - not at all","2 - somewhat","3 - definitely"],"correct_response":"1","response":"3 - definitely","explain":false,"explanation":"","explanation_history":[],"response_history":["3 - definitely"],"rt":6957,"trial_type":"question","trial_index":0,"trial_index_global":82,"time_elapsed":5964356,"internal_chunk_id":"0-0.15-0"},{"question":"Do you feel you understood the concepts in this HIT?","response_type":"multi","response_choices":["1 - not at all","2 - somewhat","3 - definitely"],"correct_response":"1","response":"2 - somewhat","explain":false,"explanation":"","explanation_history":[],"response_history":["2 - somewhat"],"rt":11869,"trial_type":"question","trial_index":0,"trial_index_global":83,"time_elapsed":5976226,"internal_chunk_id":"0-0.15-0"},{"question":"Did you enjoy this HIT?","response_type":"multi","response_choices":["1 - not at all","2 - somewhat","3 - definitely"],"correct_response":"1","response":"3 - definitely","explain":false,"explanation":"","explanation_history":[],"response_history":["3 - definitely"],"rt":3105,"trial_type":"question","trial_index":0,"trial_index_global":84,"time_elapsed":5979333,"internal_chunk_id":"0-0.15-0"},{"question":"What is your gender?","response_type":"multi","response_choices":["Female","M ale","Ot her"],"correct_response":"","response":"Female","explain":false,"explanation":"","explanation_history":[],"response_history":["Female"],"rt":3780,"trial_type":"question","trial_index":0,"trial_index_global":85,"time_elapsed":5983114,"internal_chunk_id":"0-0.15-0"},{"question":"What is/are your native language(s)? (The languages spoken in your household when you were a child.)","response_type":"free","response_choices":[],"correct_response":"","response":"English","explain":false,"explanation":"","explanation_history":[],"response_history":["English"],"rt":25182,"trial_type":"question","trial_index":0,"trial_index_global":86,"time_elapsed":6008297,"internal_chunk_id":"0-0.15-0"},{"question":"Did you use pen and paper at any point on this HIT?","response_type":"free","response_choices":[],"correct_response":"","response":"no","explain":false,"explanation":"","explanation_history":[],"response_history":["no"],"rt":5630,"trial_type":"question","trial_index":0,"trial_index_global":87,"time_elapsed":6013930,"internal_chunk_id":"0-0.15-0"},{"question":"Do you have any comments on this HIT?","response_type":"free","response_choices":[],"correct_response":"","response":"interesting hit.","explain":false,"explanation":"","explanation_history":[],"response_history":["no","n","interesting hit for","interesting hit fo","interesting hit f","interesting hit ","interesting hit."],"rt":20245,"trial_type":"question","trial_index":0,"trial_index_global":88,"time_elapsed":6034176,"internal_chunk_id":"0-0.15-0"}]