[{"nsides":6,"instructions":"Let's define a new operation <img src=./images/hexagon_symbol.png style=width:14px;height:14px>. This operation will give us a way of combining two of the numbers 0, 1, 2, 3, 4, 5 to get another one of them back. To perform <img src=./images/hexagon_symbol.png style=width:14px;height:14px>, you can either use a method based on the hexagon at right, or a method based on arithmetic.<br /><b>Hexagon method:</b> you can use the interactive diagram on the right, or perform the operation in your mind. Point the arrow at the first number on the hexagon by clicking, then click (or click and drag) to move the arrow the second number of points clockwise around the hexagon. The number the arrow arrives at is your result. (The operation is called <img src=./images/hexagon_symbol.png style=width:14px;height:14px> because it uses the hexagon, which has 6 sides.) <br ><b>Arithmetic method:</b> you start with the first number, and then add  the sec ond one to it. If the sum is smaller than 6, that's your result. If the sum is 6 or bigger, you subtract 6 to get your result. <br /><br />For example, 3 <img src=./images/hexagon_symbol.png style=width:14px;height:14px> 5 = 2, because 5 steps clockwise from 3 on the hexagon brings us to 2. Equivalently, 3 + 5 = 8, and 8 is bigger than 6, so we subtract 6, and 8 - 6 = 2. So 3 <img src=./images/hexagon_symbol.png style=width:14px;height:14px> 5 = 2.<br /><br />Similarly, 1 <img src=./images/hexagon_symbol.png style=width:14px;height:14px> 4 = 5, because 1 + 4 = 5, and 5 is less than 6 so we leave it alone. Equivalently, 4 steps clockwise from 1 on the hexagon brings us to 5. <br /><br />Click Continue when you're ready to move on.","orientation_history":[0],"rt":130570,"trial_type":"polygon-arrow-instructions","trial_index":0,"trial_index_global":1,"time_elapsed":151466,"internal_chunk_id":"0-0"},{"nsides":6,"instructions":"Do you see how the diffe rent way s of performing <img src=./images/hexagon_symbol.png style=width:14px;height:14px> give the same result? By labeling the points of the hexagon with the numbers from 0 to 5, we ensure that when we combine two numbers using the hexagon, we only produce numbers between 0 and 5. When we use the arithmetic strategy, adding the second number to the first mimics counting around the hexagon, and subtracting 6 each time we get above 5 makes sure the results correspond to the numbers on the points of the hexagon. <br /><br />Click Continue when you're ready to move on.","orientation_history":[0],"rt":4709,"trial_type":"polygon-arrow-instructions","trial_index":0,"trial_index_global":2,"time_elapsed":156188,"internal_chunk_id":"0-0"},{"nsides":6,"question":"Now try one on your own! What is 4 <img src=./images/hexagon_symbol.png style=width:14px;height:14px> 5? <br /><br /> (Remember, to perform <img src=./images/hexagon_symbol.png style=width:14px;height:14px>, you  can either use a method based on the hexagon at right, or a method based on arithmetic.<br /><br /><b>Hexagon method:</b> you can use the interactive diagram on the right, or perform the operation in your mind. Point the arrow at the first number, then move the arrow the second number of points clockwise around the hexagon. The number the arrow arrives at is your result. <br /><br /><b>Arithmetic method:</b> you start with the first number, and then add the second one to it. If the sum is smaller than 6, that's your result. If the sum is 6 or bigger, you subtract 6 to get your result.)","response_type":"free","response_choices":[],"correct_response":"3","response":"3","explain":false,"explanation":"","explanation_history":[],"orientation_history":[[0]],"response_history":["3"],"rt":15237,"trial_type":"polygon-arrow-question","trial_index":0,"trial_index_global":3,"time_elapsed":171429,"internal_chunk_id":"0-0.3-0"},{"nsides":6,"feedback":"Correct! 4 <img src=./images/hexag on_symbo l.png style=width:14px;height:14px> 5 = 3 because 5 steps clockwise on the hexagon from 4 brings us to 3. Equivalently, 4 + 5 = 9 and 9 - 6 = 3.","orientation_history":[0],"rt":2237,"trial_type":"polygon-arrow-feedback","trial_index":0,"trial_index_global":4,"time_elapsed":173671,"internal_chunk_id":"0-0.3-0"},{"nsides":6,"question":"What is 3 <img src=./images/hexagon_symbol.png style=width:14px;height:14px> 2? Try to solve this problem using the hexagon. <br /><br /> (Remember, to perform <img src=./images/hexagon_symbol.png style=width:14px;height:14px> on the hexagon, you can use the interactive diagram on the right, or perform the operation in your mind. Point the arrow at the first number on the hexagon, and then move the arrow the second number of points clockwise around the hexagon.)","response_type":"free","response_choices":[],"correct_response":"5","response":"5","explain":false,"explanation":"","explanation_history":[],"orientation_history":[[0]],"response_history":["5"],"rt":8833,"trial_type":"polygon-arrow-question","trial_index":0,"trial_index_global":5,"time_elapsed":182506,"internal_chunk_id":"0-0.3-0"},{"nsides":6,"feedback":"Correct! 3 <img src=./images/hexagon_symbol.png style=width:14px;height:14px> 2 = 5 because 2 steps clockwise on the hexagon from 3 brings us to 5. Equivalently, 3 + 2 = 5 and 5 is less than 6.","orientation_history":[0],"rt":930,"trial_type":"polygon-arrow-feedback","trial_index":0,"trial_index_global":6,"time_elapsed":183438,"internal_chunk_id":"0-0.3-0"},{"nsides":6,"question":"What is 1 <img src=./images/hexagon_symbol.png style=width:14px;height:14px> 5? Try to solve this probem using the arithmetic technique. <br /><br /> (Remember, to perform <img src=./images/hexagon_symbol.png style=width:14px;height:14px> by arithmetic, you start with the first number, and then add the second one to it. If the sum is smaller than 6, that's your result. If the sum is 6 or big ger, you  subtract 6 to get your result.)","response_type":"free","response_choices":[],"correct_response":"0","response":"0","explain":false,"explanation":"","explanation_history":[],"orientation_history":[[0]],"response_history":["0"],"rt":6948,"trial_type":"polygon-arrow-question","trial_index":0,"trial_index_global":7,"time_elapsed":190388,"internal_chunk_id":"0-0.3-0"},{"nsides":6,"feedback":"Correct! 1 <img src=./images/hexagon_symbol.png style=width:14px;height:14px> 5 = 0 because 1 + 5 = 6 and 6 - 6 = 0.  Equivalently, 5 steps clockwise on the hexagon from 1 brings us to 0.","orientation_history":[0],"rt":818,"trial_type":"polygon-arrow-feedback","trial_index":0,"trial_index_global":8,"time_elapsed":191208,"internal_chunk_id":"0-0.3-0"},{"nsides":6,"question":"What is 1 <img src=./images/hexagon_symbol.png style=width:14px;height:14px> 1? Try to solve this problem using the hexagon. <br /><br /> (Remember, to perform <img src=./images/hexagon_symbol.png st yle=wi dth:14px;height:14px> on the hexagon, you can use the interactive diagram on the right, or perform the operation in your mind. Point the arrow at the first number on the hexagon, and then move the arrow the second number of points clockwise around the hexagon.)","response_type":"free","response_choices":[],"correct_response":"2","response":"2","explain":false,"explanation":"","explanation_history":[],"orientation_history":[[0]],"response_history":["2"],"rt":4467,"trial_type":"polygon-arrow-question","trial_index":0,"trial_index_global":9,"time_elapsed":195676,"internal_chunk_id":"0-0.3-0"},{"nsides":6,"feedback":"Correct! 1 <img src=./images/hexagon_symbol.png style=width:14px;height:14px> 1 = 2 because 1 step clockwise on the hexagon from 1 brings us to 2. Equivalently, 1 + 1 = 2 and 2 is less than 6.","orientation_history":[0],"rt":874,"trial_type":"polygon-arrow-feedback","trial_index":0,"trial_index_global":10,"time_elapsed":196552,"internal_chunk_id":"0-0.3-0"},{"nsides":6,"question":"What is 3 <img src=./images/hexagon_symbol.png style=width:14px;height:14px> 0? Try to solve this problem using the arithmetic technique. <br /><br /> (Remember, to perform <img src=./images/hexagon_symbol.png style=width:14px;height:14px> using arithmetic, you start with the first number, and then add the second one to it. If the sum is smaller than 6, that's your result. If the sum is 6 or bigger, you subtract 6 to get your result.)","response_type":"free","response_choices":[],"correct_response":"3","response":"3","explain":false,"explanation":"","explanation_history":[],"orientation_history":[[0]],"response_history":["3"],"rt":3350,"trial_type":"polygon-arrow-question","trial_index":0,"trial_index_global":11,"time_elapsed":199903,"internal_chunk_id":"0-0.3-0"},{"nsides":6,"feedback":"Correct! 3 <img src=./images/hexagon_symbol.png style=width:14px;height:14px> 0 = 3 because 3 + 0 = 3 and 3 - 6 = 3.  Equivalently, 0 steps clockwis e on the  hexagon from 3 brings us to 3.","orientation_history":[0],"rt":786,"trial_type":"polygon-arrow-feedback","trial_index":0,"trial_index_global":12,"time_elapsed":200691,"internal_chunk_id":"0-0.3-0"},{"nsides":6,"question":"What is 4 <img src=./images/hexagon_symbol.png style=width:14px;height:14px> 4? Try to solve this problem using the hexagon. <br /><br /> (Remember, to perform <img src=./images/hexagon_symbol.png style=width:14px;height:14px> on the hexagon, you can use the interactive diagram on the right, or perform the operation in your mind. Point the arrow at the first number on the hexagon, and then move the arrow the second number of points clockwise around the hexagon.)","response_type":"free","response_choices":[],"correct_response":"2","response":"2","explain":false,"explanation":"","explanation_history":[],"orientation_history":[[0]],"response_history":["2"],"rt":4596,"trial_type":"polygon-arrow-question","trial_index":0,"trial_index_global":13,"time_elapsed":205288,"internal_chunk_id":"0-0.3-0"},{"nsides":6,"feedback":"Correct! 4 <img src=./images/hexagon_symbol.png style=width:14px;height:14px> 4 = 2 because 4 steps clockwise on the hexagon from 4 brings us to 2. Equivalently, 4 + 4 = 8 and 8 - 6 = 2.","orientation_history":[0],"rt":785,"trial_type":"polygon-arrow-feedback","trial_index":0,"trial_index_global":14,"time_elapsed":206075,"internal_chunk_id":"0-0.3-0"},{"nsides":6,"question":"What is 1 <img src=./images/hexagon_symbol.png style=width:14px;height:14px> 3? Try to solve this problem using the arithmetic technique. <br /><br /> (Remember, to perform <img src=./images/hexagon_symbol.png style=width:14px;height:14px> by arithmetic, you start with the first number, and then add the second one to it. If the sum is smaller than 6, that's your result. If the sum is 6 or bigger, you subtract 6 to get your result.)","response_type":"free","response_choices":[],"correct_response":"4","response":"4 ","explain":false,"explanation":"","explanation_history":[],"orientation_history":[[0]],"response_history":["4"],"rt":4138,"trial_type":"polygon-arrow-question","trial_index":0,"trial_index_global":15,"time_elapsed":210215,"internal_chunk_id":"0-0.3-0"},{"nsides":6,"feedback":"Correct! 1 <img src=./images/hexagon_symbol.png style=width:14px;height:14px> 3 = 4 because 1 + 3 = 4 and 4 - 6 = 4.  Equivalently, 3 steps clockwise on the hexagon from 1 brings us to 4.","orientation_history":[0],"rt":704,"trial_type":"polygon-arrow-feedback","trial_index":0,"trial_index_global":16,"time_elapsed":210921,"internal_chunk_id":"0-0.3-0"},{"nsides":6,"question":"What is 4 <img src=./images/hexagon_symbol.png style=width:14px;height:14px> 3? <br /><br /> (Remember, to perform <img src=./images/hexagon_symbol.png style=width:14px;height:14px>, you can either use a method based on the hexagon at right, or a method based on arithmetic.<br /><br /><b>Hexagon method:</b> you can  use the  interactive diagram on the right, or perform the operation in your mind. Point the arrow at the first number, then move the arrow the second number of points clockwise around the hexagon. The number the arrow arrives at is your result. <br /><br /><b>Arithmetic method:</b> you start with the first number, and then add the second one to it. If the sum is smaller than 6, that's your result. If the sum is 6 or bigger, you subtract 6 to get your result.)","response_type":"free","response_choices":[],"correct_response":"1","response":"1","explain":false,"explanation":"","explanation_history":[],"orientation_history":[[0]],"response_history":["1"],"rt":5327,"trial_type":"polygon-arrow-question","trial_index":0,"trial_index_global":17,"time_elapsed":216250,"internal_chunk_id":"0-0.3-0"},{"nsides":6,"feedback":"Correct! 4 <img src=./images/hexagon_symbol.png style=width:14px;height:14px> 3 = 1 because 3 steps clockwise on the hexagon from 4 brings us to 1. Equivalently, 4 +  3 = 7 a nd 7 - 6 = 1.","orientation_history":[0],"rt":930,"trial_type":"polygon-arrow-feedback","trial_index":0,"trial_index_global":18,"time_elapsed":217182,"internal_chunk_id":"0-0.3-0"},{"nsides":6,"question":"What is 0 <img src=./images/hexagon_symbol.png style=width:14px;height:14px> 5? <br /><br /> (Remember, to perform <img src=./images/hexagon_symbol.png style=width:14px;height:14px>, you can either use a method based on the hexagon at right, or a method based on arithmetic.<br /><br /><b>Hexagon method:</b> you can use the interactive diagram on the right, or perform the operation in your mind. Point the arrow at the first number, then move the arrow the second number of points clockwise around the hexagon. The number the arrow arrives at is your result. <br /><br /><b>Arithmetic method:</b> you start with the first number, and then add the second one to it. If the sum is smaller than 6, that's your result. If the sum is 6 or bigger, you subtract 6 to get yo ur resul t.)","response_type":"free","response_choices":[],"correct_response":"5","response":"5","explain":false,"explanation":"","explanation_history":[],"orientation_history":[[0]],"response_history":["5"],"rt":5525,"trial_type":"polygon-arrow-question","trial_index":0,"trial_index_global":19,"time_elapsed":222708,"internal_chunk_id":"0-0.3-0"},{"nsides":6,"feedback":"Correct! 0 <img src=./images/hexagon_symbol.png style=width:14px;height:14px> 5 = 5 because 5 steps clockwise on the hexagon from 0 brings us to 5. Equivalently, 0 + 5 = 5 and 5 is less than 6.","orientation_history":[0],"rt":899,"trial_type":"polygon-arrow-feedback","trial_index":0,"trial_index_global":20,"time_elapsed":223609,"internal_chunk_id":"0-0.3-0"},{"nsides":6,"question":"What is 2 <img src=./images/hexagon_symbol.png style=width:14px;height:14px> 5? <br /><br /> (Remember, to perform <img src=./images/hexagon_symbol.png style=width:14px;height:14px>, you can either use a method based  on the  hexagon at right, or a method based on arithmetic.<br /><br /><b>Hexagon method:</b> you can use the interactive diagram on the right, or perform the operation in your mind. Point the arrow at the first number, then move the arrow the second number of points clockwise around the hexagon. The number the arrow arrives at is your result. <br /><br /><b>Arithmetic method:</b> you start with the first number, and then add the second one to it. If the sum is smaller than 6, that's your result. If the sum is 6 or bigger, you subtract 6 to get your result.)","response_type":"free","response_choices":[],"correct_response":"1","response":"1","explain":false,"explanation":"","explanation_history":[],"orientation_history":[[0]],"response_history":["1"],"rt":3196,"trial_type":"polygon-arrow-question","trial_index":0,"trial_index_global":21,"time_elapsed":226806,"internal_chunk_id":"0-0.3-0"},{"nsides":6,"feedback":"Correct! 2 <img src=./images/hexagon_symbol.png style=width:14px;he ight:14p x> 5 = 1 because 5 steps clockwise on the hexagon from 2 brings us to 1. Equivalently, 2 + 5 = 7 and 7 - 6 = 1.","orientation_history":[0],"rt":1068,"trial_type":"polygon-arrow-feedback","trial_index":0,"trial_index_global":22,"time_elapsed":227875,"internal_chunk_id":"0-0.3-0"},{"nsides":6,"instructions":"Now we're going to discuss a couple special properties of this new operation, <img src=./images/hexagon_symbol.png style=width:14px;height:14px> that we've learned. First, notice that the number 0 behaves in a special way under <img src=./images/hexagon_symbol.png style=width:14px;height:14px>. Whenever we combine 0 with anything else, we get that same thing back. We'll say that 0 is the <i>identity</i> under <img src=./images/hexagon_symbol.png style=width:14px;height:14px>, because when you combine it with something it gives you that identical thing back.","orientation_history":[0],"rt":21061,"trial_type":"polygon-arrow-instructions","trial_index":0,"trial_index_global":23,"time_elapsed":248940,"internal_chunk_id":"0-0"},{"nsides":6,"instructions":"Now that we know 0 is the identity under <img src=./images/hexagon_symbol.png style=width:14px;height:14px>, we're going to make a new definition. We'll say that the <i>inverse</i> of a number is the element that you combine with it to produce the identity. For example, 5 <img src=./images/hexagon_symbol.png style=width:14px;height:14px> 1 = 0, so we say 1 is the inverse of 5 under <img src=./images/hexagon_symbol.png style=width:14px;height:14px>, (remember 0 is the identity under <img src=./images/hexagon_symbol.png style=width:14px;height:14px>). Similarly, 3 is its own inverse under <img src=./images/hexagon_symbol.png style=width:14px;height:14px>, because 3 <img src=./images/hexagon_symbol.png style=width:14px;height:14px> 3 = 0.","orientation_history":[0],"rt":57309,"trial_type":"polygon-arrow-instructions","trial_index":0,"trial_index_global":24,"time_elapsed":306251,"internal_chunk_id":"0-0"},{"nsides":6,"question":"Now you try! What is the inverse of 4 under <img src=./images/hexagon_symbol.png style=width:14px;height:14px>? <br /><br /> (Remember, the inverse of an element is the thing which you combine with it to produce the identity.)","response_type":"free","response_choices":[],"correct_response":"2","response":"2","explain":false,"explanation":"","explanation_history":[],"orientation_history":[[0]],"response_history":["4","2"],"rt":24644,"trial_type":"polygon-arrow-question","trial_index":0,"trial_index_global":25,"time_elapsed":330898,"internal_chunk_id":"0-0.7-0"},{"nsides":6,"feedback":"Correct! The inverse of 4 under <img src=./images/hexagon_symbol.png style=width:14px;height:14px> is 2 because 4 <img src=./images/hexagon_symbol.png style=width:14px;height:14px> 2 = 0, and 0 is the identity under <img src=./images/hexagon_symbol.png style=width:14px;height:14 px>.","orientation_history":[0],"rt":1304,"trial_type":"polygon-arrow-feedback","trial_index":0,"trial_index_global":26,"time_elapsed":332206,"internal_chunk_id":"0-0.7-0"},{"nsides":6,"question":"What is the inverse of 1 under <img src=./images/hexagon_symbol.png style=width:14px;height:14px>? <br /><br /> (Remember, the inverse of an element is the thing which you combine with it to produce the identity.)","response_type":"free","response_choices":[],"correct_response":"5","response":"5","explain":false,"explanation":"","explanation_history":[],"orientation_history":[[0]],"response_history":["5"],"rt":2811,"trial_type":"polygon-arrow-question","trial_index":0,"trial_index_global":27,"time_elapsed":335018,"internal_chunk_id":"0-0.7-0"},{"nsides":6,"feedback":"Correct! The inverse of 1 under <img src=./images/hexagon_symbol.png style=width:14px;height:14px> is 5 because 1 <img src=./images/hexagon_symbol.png style=width:14px;height:14px> 5 = 0, and 0 is the  identit y under <img src=./images/hexagon_symbol.png style=width:14px;height:14px>.","orientation_history":[0],"rt":720,"trial_type":"polygon-arrow-feedback","trial_index":0,"trial_index_global":28,"time_elapsed":335740,"internal_chunk_id":"0-0.7-0"},{"nsides":6,"question":"What is the inverse of 3 under <img src=./images/hexagon_symbol.png style=width:14px;height:14px>? <br /><br /> (Remember, the inverse of an element is the thing which you combine with it to produce the identity.)","response_type":"free","response_choices":[],"correct_response":"3","response":"3","explain":false,"explanation":"","explanation_history":[],"orientation_history":[[0]],"response_history":["3"],"rt":2081,"trial_type":"polygon-arrow-question","trial_index":0,"trial_index_global":29,"time_elapsed":337823,"internal_chunk_id":"0-0.7-0"},{"nsides":6,"feedback":"Correct! The inverse of 3 under <img src=./images/hexagon_symbol.png style=width:14px;height:14px> is 3 because 3 <img src=./image s/hexagon_symbol.png style=width:14px;height:14px> 3 = 0, and 0 is the identity under <img src=./images/hexagon_symbol.png style=width:14px;height:14px>.","orientation_history":[0],"rt":664,"trial_type":"polygon-arrow-feedback","trial_index":0,"trial_index_global":30,"time_elapsed":338488,"internal_chunk_id":"0-0.7-0"},{"nsides":6,"question":"What is the inverse of 2 under <img src=./images/hexagon_symbol.png style=width:14px;height:14px>? <br /><br /> (Remember, the inverse of an element is the thing which you combine with it to produce the identity.)","response_type":"free","response_choices":[],"correct_response":"4","response":"4","explain":false,"explanation":"","explanation_history":[],"orientation_history":[[0]],"response_history":["3","4"],"rt":3718,"trial_type":"polygon-arrow-question","trial_index":0,"trial_index_global":31,"time_elapsed":342208,"internal_chunk_id":"0-0.7-0"},{"nsides":6,"feedback":"Correct! The inverse of 2 under <img src=. /images/ hexagon_symbol.png style=width:14px;height:14px> is 4 because 2 <img src=./images/hexagon_symbol.png style=width:14px;height:14px> 4 = 0, and 0 is the identity under <img src=./images/hexagon_symbol.png style=width:14px;height:14px>.","orientation_history":[0],"rt":811,"trial_type":"polygon-arrow-feedback","trial_index":0,"trial_index_global":32,"time_elapsed":343020,"internal_chunk_id":"0-0.7-0"},{"nsides":6,"question":"What is the inverse of 0 under <img src=./images/hexagon_symbol.png style=width:14px;height:14px>? <br /><br /> (Remember, the inverse of an element is the thing which you combine with it to produce the identity.)","response_type":"free","response_choices":[],"correct_response":"0","response":"0","explain":false,"explanation":"","explanation_history":[],"orientation_history":[[0]],"response_history":["0"],"rt":3034,"trial_type":"polygon-arrow-question","trial_index":0,"trial_index_global":33,"time_elapsed":346056,"internal_chunk_id":"0- 0.7-0"},{"nsides":6,"feedback":"Correct! The inverse of 0 under <img src=./images/hexagon_symbol.png style=width:14px;height:14px> is 0 because 0 <img src=./images/hexagon_symbol.png style=width:14px;height:14px> 0 = 0, and 0 is the identity under <img src=./images/hexagon_symbol.png style=width:14px;height:14px>.","orientation_history":[0],"rt":731,"trial_type":"polygon-arrow-feedback","trial_index":0,"trial_index_global":34,"time_elapsed":346788,"internal_chunk_id":"0-0.7-0"},{"nsides":6,"instructions":"It is also possible to successively apply <img src=./images/hexagon_symbol.png style=width:14px;height:14px>, and the operation can simply be performed starting with the left-most pair. For example, 2 <img src=./images/hexagon_symbol.png style=width:14px;height:14px> 3 <img src=./images/hexagon_symbol.png style=width:14px;height:14px> 4 = 5 <img src=./images/hexagon_symbol.png style=width:14px;height:14px> 4 = 3.","orientation_history":[0],"rt":16784,"trial_type":"polygon-arrow-instructions","trial_index":0,"trial_index_global":35,"time_elapsed":363573,"internal_chunk_id":"0-0"},{"nsides":6,"instructions":"We have one last definition to learn today, using the successive operations we just learned. Let's start with an example. Under our operation <img src=./images/hexagon_symbol.png style=width:14px;height:14px> we can make every other number using just 1: 2 = 1 <img src=./images/hexagon_symbol.png style=width:14px;height:14px> 1, 3 = 1 <img src=./images/hexagon_symbol.png style=width:14px;height:14px> 1 <img src=./images/hexagon_symbol.png style=width:14px;height:14px> 1, 4 = 1 <img src=./images/hexagon_symbol.png style=width:14px;height:14px> 1 <img src=./images/hexagon_symbol.png style=width:14px;height:14px> 1 <img src=./images/hexagon_symbol.png style=width:14px;height:14px> 1, 5 = 1 <img src=./images/hexagon_symbol.png style=width :14px;he ight:14px> 1 <img src=./images/hexagon_symbol.png style=width:14px;height:14px> 1 <img src=./images/hexagon_symbol.png style=width:14px;height:14px> 1 <img src=./images/hexagon_symbol.png style=width:14px;height:14px> 1, and 0 = 1 <img src=./images/hexagon_symbol.png style=width:14px;height:14px> 1 <img src=./images/hexagon_symbol.png style=width:14px;height:14px> 1 <img src=./images/hexagon_symbol.png style=width:14px;height:14px> 1 <img src=./images/hexagon_symbol.png style=width:14px;height:14px> 1 <img src=./images/hexagon_symbol.png style=width:14px;height:14px> 1. Because 1 can make every other element under <img src=./images/hexagon_symbol.png style=width:14px;height:14px>, we say that 1 is a <i>generator</i> under <img src=./images/hexagon_symbol.png style=width:14px;height:14px>. <br /><br /> However, 2 is not a generator under <img src=./images/hexagon_symbol.png style=width:14p x;height :14px>, because 4 = 2 <img src=./images/hexagon_symbol.png style=width:14px;height:14px> 2, and 0 = 2 <img src=./images/hexagon_symbol.png style=width:14px;height:14px> 2 <img src=./images/hexagon_symbol.png style=width:14px;height:14px> 2, but there is no way to make 1, 3, or 5 using just 2.","orientation_history":[0],"rt":72629,"trial_type":"polygon-arrow-instructions","trial_index":0,"trial_index_global":36,"time_elapsed":436203,"internal_chunk_id":"0-0"},{"nsides":6,"question":"Now you try! Is 3 a generator under <img src=./images/hexagon_symbol.png style=width:14px;height:14px>? <br /><br /> (Remember, a generator is an element which can make every other element.)","response_type":"multi","response_choices":["Yes","No"],"correct_response":"No","response":"No","explain":false,"explanation":"","explanation_history":[],"orientation_history":[[0]],"response_history":["No"],"rt":7083,"trial_type":"polygon-arrow-question","trial_index":0,"trial_index_global":37,"time_elapsed":443290,"internal_chunk_id":"0-0.10-0"},{"nsides":6,"feedback":"Correct! 3 is not a generator under <img src=./images/hexagon_symbol.png style=width:14px;height:14px>, because 3 = 3, 0 = 3 <img src=./images/hexagon_symbol.png style=width:14px;height:14px> 3, but there is no way to make 1, 2, 4, or 5 using just 3.","orientation_history":[0],"rt":867,"trial_type":"polygon-arrow-feedback","trial_index":0,"trial_index_global":38,"time_elapsed":444158,"internal_chunk_id":"0-0.10-0"},{"nsides":6,"question":"Is 5 a generator under <img src=./images/hexagon_symbol.png style=width:14px;height:14px>? <br /><br /> (Remember, a generator is an element which can make every other element.)","response_type":"multi","response_choices":["Yes","No"],"correct_response":"Yes","response":"No","explain":false,"explanation":"","explanation_history":[],"orientation_history":[[0]],"response_history":["No"],"rt":2352,"trial_type":"polygon-arrow-questi on","trial_index":0,"trial_index_global":39,"time_elapsed":446512,"internal_chunk_id":"0-0.10-0"},{"nsides":6,"feedback":"Sorry, that's incorrect. 5 is a generator under <img src=./images/hexagon_symbol.png style=width:14px;height:14px>, because 5 = 5, 4 = 5 <img src=./images/hexagon_symbol.png style=width:14px;height:14px> 5, 3 = 5 <img src=./images/hexagon_symbol.png style=width:14px;height:14px> 5 <img src=./images/hexagon_symbol.png style=width:14px;height:14px> 5, 2 = 5 <img src=./images/hexagon_symbol.png style=width:14px;height:14px> 5 <img src=./images/hexagon_symbol.png style=width:14px;height:14px> 5 <img src=./images/hexagon_symbol.png style=width:14px;height:14px> 5, 1 = 5 <img src=./images/hexagon_symbol.png style=width:14px;height:14px> 5 <img src=./images/hexagon_symbol.png style=width:14px;height:14px> 5 <img src=./images/hexagon_symbol.png style=width:14px;height:14px> 5 <img src=./ima ges/hexa gon_symbol.png style=width:14px;height:14px> 5, and 0 = 5 <img src=./images/hexagon_symbol.png style=width:14px;height:14px> 5 <img src=./images/hexagon_symbol.png style=width:14px;height:14px> 5 <img src=./images/hexagon_symbol.png style=width:14px;height:14px> 5 <img src=./images/hexagon_symbol.png style=width:14px;height:14px> 5 <img src=./images/hexagon_symbol.png style=width:14px;height:14px> 5, so you can make all of the numbers under <img src=./images/hexagon_symbol.png style=width:14px;height:14px> using 5","orientation_history":[0],"rt":65547,"trial_type":"polygon-arrow-feedback","trial_index":0,"trial_index_global":40,"time_elapsed":512061,"internal_chunk_id":"0-0.10-0"},{"nsides":6,"question":"Is 4 a generator under <img src=./images/hexagon_symbol.png style=width:14px;height:14px>? <br /><br /> (Remember, a generator is an element which can make every other element.)","response_type":"multi","response_choices":["Yes","No"],"correct_response":"No","response":"Yes","explain":false,"explanation":"","explanation_history":[],"orientation_history":[[0]],"response_history":["Yes"],"rt":9639,"trial_type":"polygon-arrow-question","trial_index":0,"trial_index_global":41,"time_elapsed":521702,"internal_chunk_id":"0-0.10-0"},{"nsides":6,"feedback":"Sorry, that's incorrect. 4 is not a generator under <img src=./images/hexagon_symbol.png style=width:14px;height:14px>, because 4 = 4, 2 = 4 <img src=./images/hexagon_symbol.png style=width:14px;height:14px> 4, and 0 = 4 <img src=./images/hexagon_symbol.png style=width:14px;height:14px> 4 <img src=./images/hexagon_symbol.png style=width:14px;height:14px> 4, but there is no way to make 1, 3, or 5 using just 4.","orientation_history":[0],"rt":19320,"trial_type":"polygon-arrow-feedback","trial_index":0,"trial_index_global":42,"time_elapsed":541025,"internal_chunk_id":"0-0.10-0"},{"nsides":6,"question":"Is 0 a generator  under < img src=./images/hexagon_symbol.png style=width:14px;height:14px>? <br /><br /> (Remember, a generator is an element which can make every other element.)","response_type":"multi","response_choices":["Yes","No"],"correct_response":"No","response":"No","explain":false,"explanation":"","explanation_history":[],"orientation_history":[[0]],"response_history":["No"],"rt":5606,"trial_type":"polygon-arrow-question","trial_index":0,"trial_index_global":43,"time_elapsed":546632,"internal_chunk_id":"0-0.10-0"},{"nsides":6,"feedback":"Correct! 0 is not a generator under <img src=./images/hexagon_symbol.png style=width:14px;height:14px>, because 0 = 0, but there is no way to make 1, 2, 3, 4, or 5 using just 0.","orientation_history":[0],"rt":4483,"trial_type":"polygon-arrow-feedback","trial_index":0,"trial_index_global":44,"time_elapsed":551117,"internal_chunk_id":"0-0.10-0"},{"nsides":9,"instructions":"Now we are going to ask you some questions about a new operation, <im g src= ./images/nonagon_symbol.png style=width:14px;height:14px>, on the numbers 0, 1, 2, 3, 4, 5, 6, 7, 8. It works exactly like <img src=./images/hexagon_symbol.png style=width:14px;height:14px>, except now you use the nonagon shown at the right. Equivalently, after adding the two numbers you subtract 9 if your result is 9 or greater.<br /><br />Do you see how the different ways of performing <img src=./images/nonagon_symbol.png style=width:14px;height:14px> give the same result, just like with <img src=./images/hexagon_symbol.png style=width:14px;height:14px>? By labeling the points of the nonagon with the numbers from 0 to 8, we ensure that when we combine two numbers under <img src=./images/nonagon_symbol.png style=width:14px;height:14px>, we only produce numbers between 0 and 8. When we use the arithmetic strategy, adding the second number to the first mimics counting around the nonagon, and subtracting 9 each time we get above 8 makes su re the r esults correspond to the numbers on the points of the nonagon.<br /><br />We'll give you one practice question with feedback to make sure you understand the new operation. After that, try to complete the remaining questions as accurately as possible.","orientation_history":[0],"rt":30323,"trial_type":"polygon-arrow-instructions","trial_index":0,"trial_index_global":45,"time_elapsed":581441,"internal_chunk_id":"0-0"},{"nsides":9,"question":"Practice: What is 5 <img src=./images/nonagon_symbol.png style=width:14px;height:14px> 5?","response_type":"free","response_choices":[],"correct_response":"1","response":"1","explain":false,"explanation":"","explanation_history":[],"orientation_history":[[0]],"response_history":["0","1"],"rt":5757,"trial_type":"polygon-arrow-question","trial_index":0,"trial_index_global":46,"time_elapsed":587201,"internal_chunk_id":"0-0.12-0"},{"nsides":9,"feedback":"Correct! 5 <img src=./images/nonagon_symbol.png style=width:14px;height:14px > 5 =  1 because 5 steps clockwise on the nonagon from 5 brings us to 1. Equivalently, 5 + 5 = 10 and 10 - 9 = 1.","orientation_history":[0],"rt":922,"trial_type":"polygon-arrow-feedback","trial_index":0,"trial_index_global":47,"time_elapsed":588124,"internal_chunk_id":"0-0.12-0"},{"nsides":9,"question":"What is 3 <img src=./images/nonagon_symbol.png style=width:14px;height:14px> 3?","response_type":"free","response_choices":[],"correct_response":"6","response":"6","explain":false,"explanation":"","explanation_history":[],"orientation_history":[[0]],"response_history":["6"],"rt":3118,"trial_type":"polygon-arrow-question","trial_index":0,"trial_index_global":48,"time_elapsed":591243,"internal_chunk_id":"0-0.12-0"},{"nsides":9,"question":"What is 7 <img src=./images/nonagon_symbol.png style=width:14px;height:14px> 4?","response_type":"free","response_choices":[],"correct_response":"2","response":"2","explain":false,"explanation":"","explanation_history":[],"orientation_history":[[0]],"response_history":["2"],"rt":7694,"trial_type":"polygon-arrow-question","trial_index":0,"trial_index_global":49,"time_elapsed":598939,"internal_chunk_id":"0-0.12-0"},{"nsides":9,"question":"What is 1 <img src=./images/nonagon_symbol.png style=width:14px;height:14px> 8?","response_type":"free","response_choices":[],"correct_response":"0","response":"0","explain":false,"explanation":"","explanation_history":[],"orientation_history":[[0]],"response_history":["0","0"],"rt":23278,"trial_type":"polygon-arrow-question","trial_index":0,"trial_index_global":50,"time_elapsed":622218,"internal_chunk_id":"0-0.12-0"},{"nsides":9,"question":"What is 5 <img src=./images/nonagon_symbol.png style=width:14px;height:14px> 4?","response_type":"free","response_choices":[],"correct_response":"0","response":"0","explain":false,"explanation":"","explanation_history":[],"orientation_history":[[0]],"response_history":["0"],"rt":5646,"trial_type":"polygon-arrow-question","trial_index":0,"trial_index_global":51,"time_elapsed":627866,"internal_chunk_id":"0-0.12-0"},{"nsides":9,"question":"What is 6 <img src=./images/nonagon_symbol.png style=width:14px;height:14px> 6?","response_type":"free","response_choices":[],"correct_response":"3","response":"3","explain":false,"explanation":"","explanation_history":[],"orientation_history":[[0]],"response_history":["3"],"rt":6449,"trial_type":"polygon-arrow-question","trial_index":0,"trial_index_global":52,"time_elapsed":634316,"internal_chunk_id":"0-0.12-0"},{"nsides":9,"instructions":"On the following question, and several others later in the HIT, we will ask you to explain how you got your answer. On these questions, you will be given one box for your answer to the question, and a second for your explanation. Please explain your thought process in as much detail as possible (at least one sentence, and more if you can).","orientation_history":[0],"rt":10544,"trial_type":"polygon-arrow-instructions","trial_index":0,"trial_index_global":53,"time_elapsed":644862,"internal_chunk_id":"0-0.12-0"},{"nsides":9,"question":"What is 4 <img src=./images/nonagon_symbol.png style=width:14px;height:14px> 1? Please explain in words how you got your answer.","response_type":"free","response_choices":[],"correct_response":"5","response":"5","explain":true,"explanation":"I added the two numbers together and they were less than 9, so that is the answer.","explanation_history":["I added the two numbers tod","I added the two numbers togt","I added the two numbers together and they were less than 9, so that is the answer."],"orientation_history":[[0]],"response_history":["5"],"rt":23674,"trial_type":"polygon-arrow-question","trial_index":0,"trial_index_global":54,"time_elapsed":668537,"internal_chunk_id":"0-0.12-0"},{"nsides":9,"question":"What is 8 <img src=./images/nonagon_symbol.png style=width:14px;height:14px> 4? Please explain in words how you got your answer.","response_type":"free","response_choices":[],"correct_response":"3","response":"3","explain":true,"explanation":"I added the two numbers together and they were more than 9, so I subtracted 9 from 12 and 3 was the answer.","explanation_history":["I added the two numbers together and they were less than 9, so that is the answer.","I added the two numbers together and they were omre","I added the two numbers together and they were omr","I added the two numbers together and they were om","I added the two numbers together and they were o","I added the two numbers together and they were more thanb ","I added the two numbers together and they were more thanb","I added the two numbers together and they were more than 9 (","I added the two numbers together and they were more than 9 ","I added the two numbers together and they were more than 9 ","I added the two numbers together and they were more than 9, so I subtracted 9 from 12 and 3 was the asn","I added the two numbers together and they were more than 9, so I s ubtracte d 9 from 12 and 3 was the as","I added the two numbers together and they were more than 9, so I subtracted 9 from 12 and 3 was the answer."],"orientation_history":[[0]],"response_history":["3"],"rt":43839,"trial_type":"polygon-arrow-question","trial_index":0,"trial_index_global":55,"time_elapsed":712377,"internal_chunk_id":"0-0.12-0"},{"nsides":9,"question":"What is the identity under <img src=./images/nonagon_symbol.png style=width:14px;height:14px>? Please explain in words how you got your answer.","response_type":"free","response_choices":[],"correct_response":"0","response":"0","explain":true,"explanation":"Whenever I combine zero with any other number, the latter number will always be the answer.","explanation_history":["Whenever I combine zero with anyt","Whenever I combine zero with any other number, that ","Whenever I combine zero with any other number, that","Whenever I combine zero with any other number, tha","Whenever I combine zero with any other number,  the l"," Whenever I combine zero with any other number, the ","Whenever I combine zero with any other number, the latter number will always be the answer."],"orientation_history":[[0]],"response_history":["0"],"rt":55466,"trial_type":"polygon-arrow-question","trial_index":0,"trial_index_global":56,"time_elapsed":767846,"internal_chunk_id":"0-0.12-0"},{"nsides":9,"question":"What is the inverse of 5 under <img src=./images/nonagon_symbol.png style=width:14px;height:14px>?","response_type":"free","response_choices":[],"correct_response":"4","response":"4","explain":false,"explanation":"","explanation_history":[],"orientation_history":[[0]],"response_history":["4"],"rt":24728,"trial_type":"polygon-arrow-question","trial_index":0,"trial_index_global":57,"time_elapsed":792576,"internal_chunk_id":"0-0.12-0"},{"nsides":9,"question":"What is the inverse of 2 under <img src=./images/nonagon_symbol.png style=width:14px;height:14px>?","response_type":"free","response_choices":[],"correct_response":"7","response":"7","explain":false,"explanation":"","explanation_history":[],"orientation_history":[[0]],"response_history":["7"],"rt":10219,"trial_type":"polygon-arrow-question","trial_index":0,"trial_index_global":58,"time_elapsed":802796,"internal_chunk_id":"0-0.12-0"},{"nsides":9,"question":"What is the inverse of 0 under <img src=./images/nonagon_symbol.png style=width:14px;height:14px>?","response_type":"free","response_choices":[],"correct_response":"0","response":"0","explain":false,"explanation":"","explanation_history":[],"orientation_history":[[0]],"response_history":["0"],"rt":2202,"trial_type":"polygon-arrow-question","trial_index":0,"trial_index_global":59,"time_elapsed":804999,"internal_chunk_id":"0-0.12-0"},{"nsides":9,"question":"What is the inverse of 3 under <img src=./images/nonagon_symbol.png style=width:14px;height:14px>? Please explain in words how you got your answer.","response_type":"free","response_choices":[],"correct_response":"6","response":"6","explain":true,"explanation":"The inverse of the number is the number added to 3 to produce the identity.","explanation_history":["The inverse of the number is whatever g","The inverse of the number is whatever ","The inverse of the number is what","The inverse of the number is wha","The inverse of the number is wh","The inverse of the number is w","The inverse of the number is the number added to 3 to get ","The inverse of the number is the number added to 3 to produce the identity."],"orientation_history":[[0]],"response_history":["6"],"rt":48819,"trial_type":"polygon-arrow-question","trial_index":0,"trial_index_global":60,"time_elapsed":853820,"internal_chunk_id":"0-0.12-0"},{"nsides":9,"question":"Is 2 a generator under <img src=./images/nonagon_symbol.png style=width:14px;height:14px>? Please explain in words how you got your answer.","response_type":"multi","response_choices":["Yes","No"],"correct_response":"Yes","response":"Yes","explain":true,"explanation":"adding a successive numbers of 2s will result in each number on the nonagon.","explanation_history":["adding a successive numbers of 2 ","adding a successive numbers of 2s will result in each number on the nonogam","adding a successive numbers of 2s will result in each number on the nonagon."],"orientation_history":[[0]],"response_history":["No","Yes"],"rt":183507,"trial_type":"polygon-arrow-question","trial_index":0,"trial_index_global":61,"time_elapsed":1037330,"internal_chunk_id":"0-0.12-0"},{"nsides":9,"question":"Is 3 a generator under <img src=./images/nonagon_symbol.png style=width:14px;height:14px>? Please explain in words how you got your answer.","response_type":"multi","response_choices":["Yes","No"],"correct_response":"No","response":"No","explain":true,"explanation":"adding a successive numbers of 3s will not result in each number on the nonagon. It will only result in 0,3,6,9.","explanation_history":["adding a successive numbers of 2s will re sult in  each number on the nonagon.","adding a successive numbers of s will result in each number on the nonagon.","adding a successive numbers of 3s will result in each number on the nonagon.","adding a successive numbers of 3s will  result in each number on the nonagon.","adding a successive numbers of 3s will no result in each number on the nonagon.","adding a successive numbers of 3s will not result in each number on the nonagon. It will only result in 0,3,6,9."],"orientation_history":[[0]],"response_history":["No"],"rt":36442,"trial_type":"polygon-arrow-question","trial_index":0,"trial_index_global":62,"time_elapsed":1073782,"internal_chunk_id":"0-0.12-0"},{"nsides":9,"question":"Is 5 a generator under <img src=./images/nonagon_symbol.png style=width:14px;height:14px>? Please explain in words how you got your answer.","response_type":"multi","response_choices":["Yes","No"],"correct_response":"Yes","response":"Yes","explain":true,"explanation":"Adding a successive number s of 5s  will result in each number on the nonagon being selected.","explanation_history":["adding a successive numbers of 2s will result in each number on the nonagon.","adding a successive numbers of 5s will result in each number on the nonagon.","dding a successive numbers of 5s will result in each number on the nonagon.","Adding a successive numbers of 5s will result in each number on the nonagon.","Adding a successive numbers of 5s will result in each number on the nonagon .","Adding a successive numbers of 5s will result in each number on the nonagon b.","Adding a successive numbers of 5s will result in each number on the nonagon be.","Adding a successive numbers of 5s will result in each number on the nonagon bein.","Adding a successive numbers of 5s will result in each number on the nonagon being.","Adding a successive numbers of 5s will result in each number on the nonagon being .","Adding a successive numbers of 5s will result in each number on the nonagon being s.","Adding  a succe ssive numbers of 5s will result in each number on the nonagon being sel.","Adding a successive numbers of 5s will result in each number on the nonagon being sele.","Adding a successive numbers of 5s will result in each number on the nonagon being selec.","Adding a successive numbers of 5s will result in each number on the nonagon being select.","Adding a successive numbers of 5s will result in each number on the nonagon being selecte.","Adding a successive numbers of 5s will result in each number on the nonagon being selected."],"orientation_history":[[0]],"response_history":["Yes"],"rt":67187,"trial_type":"polygon-arrow-question","trial_index":0,"trial_index_global":63,"time_elapsed":1140974,"internal_chunk_id":"0-0.12-0"},{"nsides":9,"question":"Is 6 a generator under <img src=./images/nonagon_symbol.png style=width:14px;height:14px>? Please explain in words how you got your answer.","response_type":"multi","response_choices":["Yes","No"],"correct_response":"No","response":"No","explain":true,"explanation":"adding a successive numbers of 6s will not result in each number on the nonagon. You'll only get 0,3,6 selected.","explanation_history":["adding a successive numbers of 2s will result in each number on the nonagon.","adding a successive numbers of 2s will  result in each number on the nonagon.","adding a successive numbers of 2s will no result in each number on the nonagon.","adding a successive numbers of 2s will not result in each number on the nonagon.","adding a successive numbers of 6s will not result in each number on the nonagon. y","adding a successive numbers of 6s will not result in each number on the nonagon. Youl","adding a successive numbers of 6s will not result in each number on the nonagon. You'll only get 0,3,6 see","adding a successive numbers of 6s will not result in each number on the nonagon. You'll only get 0,3,6 selected."],"orientation_history":[[0]],"response_history":["No"],"rt":49066,"trial_type":"polygon-arrow-q uestion","trial_index":0,"trial_index_global":64,"time_elapsed":1190043,"internal_chunk_id":"0-0.12-0"},{"nsides":"n","instructions":"Now we'd like to ask you some questions about <img src=./images/ngon_symbol.png style=width:14px;height:14px>, where n could be any postive counting number. For example, n could be 3, and the polygon a triangle, or n could be any other counting number you can think of, in which case the corresponding polygon would have n sides. Just as before, you can use either the polygon or arithmetic methods. If you need to write the operation, you can use (n), and your answers can include n to stand in for the arbitrary value if necessary. (You can use the polygon at the right to think, but it doesn't necessarily correspond to the real polygon, which is why we've left most of it dashed.)","orientation_history":[0],"rt":43291,"trial_type":"polygon-arrow-instructions","trial_index":0,"trial_index_global":65,"time_elapsed":1233340,"internal_chunk_id":"0- 0"},{"nsides":"n","question":"What is the formula for the inverse of 1 under <img src=./images/ngon_symbol.png style=width:14px;height:14px>?","response_type":"free","response_choices":[],"correct_response":"n-1","response":"1+n=0","explain":false,"explanation":"","explanation_history":[],"orientation_history":[[0]],"response_history":["1+n=0"],"rt":148411,"trial_type":"polygon-arrow-question","trial_index":0,"trial_index_global":66,"time_elapsed":1381752,"internal_chunk_id":"0-0.14-0"},{"nsides":"n","question":"What is the formula for the inverse of an element x under <img src=./images/ngon_symbol.png style=width:14px;height:14px>? Please explain in words how you got your answer.","response_type":"free","response_choices":[],"correct_response":"n-x","response":"x+(n)=0","explain":true,"explanation":"The element added to the number of sides must equal the identity, 0.","explanation_history":["The element added to the numbr","The element added to the number of sides m ust equa l the identity, zero.","The element added to the number of sides must equal the identity, zero","The element added to the number of sides must equal the identity, zer","The element added to the number of sides must equal the identity, ze","The element added to the number of sides must equal the identity, z","The element added to the number of sides must equal the identity, 0."],"orientation_history":[[0]],"response_history":["x+(n)=0"],"rt":52839,"trial_type":"polygon-arrow-question","trial_index":0,"trial_index_global":67,"time_elapsed":1434600,"internal_chunk_id":"0-0.14-0"},{"nsides":"n","question":"Is there a pattern to which elements are generators? How can you know if an element x is a generator under <img src=./images/ngon_symbol.png style=width:14px;height:14px> without seeing whether it can make all the elements?.","response_type":"free","response_choices":[],"correct_response":"","response":"The pattern to which elements are generators is solved by continuo usly add ing the element by itself until you see repetition. Once the repetition has started, if all the other elements have been selected, it is a generator. I don't know how you can know if an element is a generator without seeing if it can make all the elements.","explain":false,"explanation":"","explanation_history":[],"orientation_history":[[0]],"response_history":["The patter t","The patter ","The pattern to which le","The pattern to which l","The pattern to which elements are generators is a","The pattern to which elements are generators is solved by continuously adding the element by itself until you see repition. If you ","The pattern to which elements are generators is solved by continuously adding the element by itself until you see repetition. If you ","The pattern to which elements are generators is solved by continuously adding the element by itself until you see repetition. Onc ","The pattern to which elements are generators is solved by continuously adding the element  by itse lf until you see repetition. Once te","The pattern to which elements are generators is solved by continuously adding the element by itself until you see repetition. Once the repition has started, if t","The pattern to which elements are generators is solved by continuously adding the element by itself until you see repetition. Once the repition has started, if all the other elements have been selected, it is a gne","The pattern to which elements are generators is solved by continuously adding the element by itself until you see repetition. Once the repition has started, if all the other elements have been selected, it is a gn","The pattern to which elements are generators is solved by continuously adding the element by itself until you see repetition. Once the repition has started, if all the other elements have been selected, it is a generator.","The pattern to which elements are generators is solved by continuously adding the element by itself until you see repetition. Onc e the re petition has started, if all the other elements have been selected, it is a generator. I don't know how you can know if an element is a generator without seeing if it can mal","The pattern to which elements are generators is solved by continuously adding the element by itself until you see repetition. Once the repetition has started, if all the other elements have been selected, it is a generator. I don't know how you can know if an element is a generator without seeing if it can make all the elemetn","The pattern to which elements are generators is solved by continuously adding the element by itself until you see repetition. Once the repetition has started, if all the other elements have been selected, it is a generator. I don't know how you can know if an element is a generator without seeing if it can make all the elemet","The pattern to which elements are generators is solved by continuously adding the element by itself until you see repetition. Once the repetition has s tarted,  if all the other elements have been selected, it is a generator. I don't know how you can know if an element is a generator without seeing if it can make all the elements."],"rt":132140,"trial_type":"polygon-arrow-question","trial_index":0,"trial_index_global":68,"time_elapsed":1566743,"internal_chunk_id":"0-0.14-0"},{"nsides":"n","question":"True or false: If x is an odd number, it must be a generator under <img src=./images/ngon_symbol.png style=width:14px;height:14px>.","response_type":"multi","response_choices":["True","False"],"correct_response":"False","response":"False","explain":false,"explanation":"","explanation_history":[],"orientation_history":[[0]],"response_history":["True","False"],"rt":20189,"trial_type":"polygon-arrow-question","trial_index":0,"trial_index_global":69,"time_elapsed":1586934,"internal_chunk_id":"0-0.14-0"},{"nsides":"n","question":"True or false: If x is an even number, it must not be a generator under <img src=./images/ngon_symbol.p ng sty le=width:14px;height:14px>.","response_type":"multi","response_choices":["True","False"],"correct_response":"False","response":"True","explain":false,"explanation":"","explanation_history":[],"orientation_history":[[0]],"response_history":["True"],"rt":6867,"trial_type":"polygon-arrow-question","trial_index":0,"trial_index_global":70,"time_elapsed":1593802,"internal_chunk_id":"0-0.14-0"},{"nsides":"n","question":"True or false: If x is not a generator under <img src=./images/ngon_symbol.png style=width:14px;height:14px>, x must be a divisor of n, that is, x must divide n evenly, with no remainder.","response_type":"multi","response_choices":["True","False"],"correct_response":"False","response":"True","explain":false,"explanation":"","explanation_history":[],"orientation_history":[[0]],"response_history":["False","True"],"rt":24035,"trial_type":"polygon-arrow-question","trial_index":0,"trial_index_global":71,"time_elapsed":1617838,"internal_chunk_id":"0-0.14-0"},{"nsides":"n","question":"True or false: If x is not a generator under <img src=./images/ngon_symbol.png style=width:14px;height:14px>, x must be a multiple of a divisor of n. Please explain in words how you got your answer.","response_type":"multi","response_choices":["True","False"],"correct_response":"True","response":"False","explain":true,"explanation":"If even numbers are not a generator under n, then odd numbers would be a generator. Thus, odd numbers would not multiply to form the even number.","explanation_history":["2= ","2=2","If even numbers are ","f even numbers are "," even numbers are ","I even numbers are ","I'm even numbers are ","I'm  even numbers are ","I'm even numbers are ","I' even numbers are ","I even numbers are "," even numbers are ","I even numbers are ","If even numbers are not a m","If even numbers are not a generator under 9n0,","If even numbers are not a generator under 9n0","If even numbers are not a generator under 9n","If even numbers are no t a gene rator under 9","If even numbers are not a generator under n, then odd numbers wul","If even numbers are not a generator under n, then odd numbers wu","If even numbers are not a generator under n, then odd numbers wu","If even numbers are not a generator under n, then odd numbers would a ","If even numbers are not a generator under n, then odd numbers would a","If even numbers are not a generator under n, then odd numbers would be a generator. Thus, odd numbers would not multiple","If even numbers are not a generator under n, then odd numbers would be a generator. Thus, odd numbers would not multiply to form the even um","If even numbers are not a generator under n, then odd numbers would be a generator. Thus, odd numbers would not multiply to form the even u","If even numbers are not a generator under n, then odd numbers would be a generator. Thus, odd numbers would not multiply to form the even bum","If even numbers are not a generator under n, then odd numbers would be a g enerator . Thus, odd numbers would not multiply to form the even bu","If even numbers are not a generator under n, then odd numbers would be a generator. Thus, odd numbers would not multiply to form the even b","If even numbers are not a generator under n, then odd numbers would be a generator. Thus, odd numbers would not multiply to form the even number ","If even numbers are not a generator under n, then odd numbers would be a generator. Thus, odd numbers would not multiply to form the even number."],"orientation_history":[[0]],"response_history":["True","False"],"rt":1782097,"trial_type":"polygon-arrow-question","trial_index":0,"trial_index_global":72,"time_elapsed":3399939,"internal_chunk_id":"0-0.14-0"},{"nsides":"n","question":"If an element x is a generator under <img src=./images/ngon_symbol.png style=width:14px;height:14px>, is its inverse a generator under <img src=./images/ngon_symbol.png style=width:14px;height:14px> always, sometimes, or never?","response_type":" multi","response_choices":["Always","Sometimes","Never"],"correct_response":"Always","response":"Sometimes","explain":false,"explanation":"","explanation_history":[],"orientation_history":[[0]],"response_history":["Sometimes"],"rt":53765,"trial_type":"polygon-arrow-question","trial_index":0,"trial_index_global":73,"time_elapsed":3453714,"internal_chunk_id":"0-0.14-0"},{"nsides":"n","question":"if an element x is a generator under <img src=./images/ngon_symbol.png style=width:14px;height:14px>, is x <img src=./images/ngon_symbol.png style=width:14px;height:14px> x a generator under <img src=./images/ngon_symbol.png style=width:14px;height:14px> always, sometimes, or never? Please explain in words how you got your answer.","response_type":"multi","response_choices":["Always","Sometimes","Never"],"correct_response":"Sometimes","response":"Sometimes","explain":true,"explanation":"I selected sometimes because I believe there are only certain occasions wher e x is a  generator under n and x(n)x is a generator.","explanation_history":["I selected sometimes because I believe there are only certain occassions ","I selected sometimes because I believe there are only certain occ","I selected sometimes because I believe there are only certain ocassions ","I selected sometimes because I believe there are only certain occasions  ","I selected sometimes because I believe there are only certain occasions w ","I selected sometimes because I believe there are only certain occasions wh ","I selected sometimes because I believe there are only certain occasions wher ","I selected sometimes because I believe there are only certain occasions where  ","I selected sometimes because I believe there are only certain occasions where x  ","I selected sometimes because I believe there are only certain occasions where x i ","I selected sometimes because I believe there are only certain occasions where x is  ","I selected sometimes because I believe there are on ly certa in occasions where x is a  ","I selected sometimes because I believe there are only certain occasions where x is a g ","I selected sometimes because I believe there are only certain occasions where x is a gen ","I selected sometimes because I believe there are only certain occasions where x is a gener ","I selected sometimes because I believe there are only certain occasions where x is a generat ","I selected sometimes because I believe there are only certain occasions where x is a generato ","I selected sometimes because I believe there are only certain occasions where x is a generator  ","I selected sometimes because I believe there are only certain occasions where x is a generator u ","I selected sometimes because I believe there are only certain occasions where x is a generator und ","I selected sometimes because I believe there are only certain occasions where x is a generator under  ","I selected sometimes because I believe there are only certain occasions where x is a  generat or under n ","I selected sometimes because I believe there are only certain occasions where x is a generator under  ","I selected sometimes because I believe there are only certain occasions where x is a generator under x ","I selected sometimes because I believe there are only certain occasions where x is a generator under xn ","I selected sometimes because I believe there are only certain occasions where x is a generator under xnx ","I selected sometimes because I believe there are only certain occasions where x is a generator under xnx.  ","I selected sometimes because I believe there are only certain occasions where x is a generator under xnx. F ","I selected sometimes because I believe there are only certain occasions where x is a generator under xnx. Fo ","I selected sometimes because I believe there are only certain occasions where x is a generator under xnx. For  ","I selected sometimes because I believe there are only certain occasions where x is a generator under x nx. For  e ","I selected sometimes because I believe there are only certain occasions where x is a generator under xnx. For ex ","I selected sometimes because I believe there are only certain occasions where x is a generator under xnx. For exam ","I selected sometimes because I believe there are only certain occasions where x is a generator under xnx. For examp ","I selected sometimes because I believe there are only certain occasions where x is a generator under xnx. For exampl ","I selected sometimes because I believe there are only certain occasions where x is a generator under xnx. For example ","I selected sometimes because I believe there are only certain occasions where x is a generator under xnx. For example,  ","I selected sometimes because I believe there are only certain occasions where x is a generator under xnx. For example, 5 ","I selected sometimes because I believe there are only certain occasions where x is a generator under xnx. For example, 58 ","I selected sometim es becau se I believe there are only certain occasions where x is a generator under xnx. For example, 585 ","I selected sometimes because I believe there are only certain occasions where x is a generator under nx. For example, 585 ","I selected sometimes because I believe there are only certain occasions where x is a generator under n. For example, 585 ","I selected sometimes because I believe there are only certain occasions where x is a generator under n . For example, 585 ","I selected sometimes because I believe there are only certain occasions where x is a generator under n an. For example, 585 ","I selected sometimes because I believe there are only certain occasions where x is a generator under n and. For example, 585 ","I selected sometimes because I believe there are only certain occasions where x is a generator under n and . For example, 585 ","I selected sometimes because I believe there are only certain occasions where x is a generator under n and x. For example, 585 ","I  selecte d sometimes because I believe there are only certain occasions where x is a generator under n and x(. For example, 585 ","I selected sometimes because I believe there are only certain occasions where x is a generator under n and x(n. For example, 585 ","I selected sometimes because I believe there are only certain occasions where x is a generator under n and x(n). For example, 585 ","I selected sometimes because I believe there are only certain occasions where x is a generator under n and x(n)x. For example, 585 ","I selected sometimes because I believe there are only certain occasions where x is a generator under n and x(n)x . For example, 585 ","I selected sometimes because I believe there are only certain occasions where x is a generator under n and x(n)x i. For example, 585 ","I selected sometimes because I believe there are only certain occasions where x is a generator under n and x(n)x is. For example, 585 ","I selected sometimes because I believe there are only certai n occasi ons where x is a generator under n and x(n)x is . For example, 585 ","I selected sometimes because I believe there are only certain occasions where x is a generator under n and x(n)x is a . For example, 585 ","I selected sometimes because I believe there are only certain occasions where x is a generator under n and x(n)x is a g. For example, 585 ","I selected sometimes because I believe there are only certain occasions where x is a generator under n and x(n)x is a ger. For example, 585 ","I selected sometimes because I believe there are only certain occasions where x is a generator under n and x(n)x is a gern. For example, 585 ","I selected sometimes because I believe there are only certain occasions where x is a generator under n and x(n)x is a ger. For example, 585 ","I selected sometimes because I believe there are only certain occasions where x is a generator under n and x(n)x is a ge. For example, 585 ","I selected sometimes because I believe there are only certain occa sions wh ere x is a generator under n and x(n)x is a gen. For example, 585 ","I selected sometimes because I believe there are only certain occasions where x is a generator under n and x(n)x is a gener. For example, 585 ","I selected sometimes because I believe there are only certain occasions where x is a generator under n and x(n)x is a generat. For example, 585 ","I selected sometimes because I believe there are only certain occasions where x is a generator under n and x(n)x is a generator. For example, 585 ","I selected sometimes because I believe there are only certain occasions where x is a generator under n and x(n)x is a generator."],"orientation_history":[[0]],"response_history":["Sometimes","Always","Sometimes"],"rt":116331,"trial_type":"polygon-arrow-question","trial_index":0,"trial_index_global":74,"time_elapsed":3570048,"internal_chunk_id":"0-0.14-0"},{"nsides":"n","question":"If an element x is not a generator under <img src=./images/ngon_symbol.png style=width:14 px;heigh t:14px>, is x <img src=./images/ngon_symbol.png style=width:14px;height:14px> x a generator under <img src=./images/ngon_symbol.png style=width:14px;height:14px> always, sometimes, or never?","response_type":"multi","response_choices":["Always","Sometimes","Never"],"correct_response":"Never","response":"Sometimes","explain":false,"explanation":"","explanation_history":[],"orientation_history":[[0]],"response_history":["Sometimes"],"rt":7902,"trial_type":"polygon-arrow-question","trial_index":0,"trial_index_global":75,"time_elapsed":3577953,"internal_chunk_id":"0-0.14-0"},{"instructions":"Now we'd like you to do a few of the questions and tell us how much you're using the arithmetic and polygon methods to solve them. We'll give you a demonstration of the response screen first.<br /><br />Press continue when you're ready to begin.","rt":1543,"trial_type":"instructions","trial_index":0,"trial_index_global":76,"time_elapsed":3579499,"internal_chunk_id":"0-0.15- 0"},{"nsides":9,"added_prompt":"<i>This is a demo response screen. You can respond independently to both questions, so it's okay to say you used both methods.</i><br /><br />","polygon_response":"0","modular_response":"4","rt":8765,"trial_type":"polygon-arrow-which-representation","trial_index":0,"trial_index_global":77,"time_elapsed":3588266,"internal_chunk_id":"0-0.15-0"},{"question":"<i>This is a demo response screen.</i><br /><br />Please describe in as much detail as possible how you used the arithmetic method, polygon method, or both for the problem.","response_type":"free","response_choices":[],"correct_response":"","response":"I used the arithmetic method because it was the easiest method.","explain":false,"explanation":"","explanation_history":[],"response_history":["I used the arti","I used the art","I used the arithmatic method because it was the easiest method.","I used the arithmetic method because it was the easiest method."],"rt":45448,"trial_type":"question","trial_index":0,"trial_index_global":78,"time_elapsed":3633718,"internal_chunk_id":"0-0.15-0"},{"instructions":"Great! Now we have a few questions for you to do (some of which you may have seen earlier), and after each question you will tell us how much you used the polygon and arithmetic methods.<br /><br />Press continue when you're ready to begin.","rt":1676,"trial_type":"instructions","trial_index":0,"trial_index_global":79,"time_elapsed":3635396,"internal_chunk_id":"0-0.15-0"},{"nsides":9,"question":"Please answer the following question:<br /><br />What is the inverse of 4 under <img src=./images/nonagon_symbol.png style=width:14px;height:14px>?","response_type":"free","response_choices":[],"correct_response":"5","response":"4","explain":false,"explanation":"","explanation_history":[],"orientation_history":[[0]],"response_history":["4"],"rt":47004,"trial_type":"polygon-arrow-question","trial_index":0,"trial_index_global":80,"time_elapsed":3682402,"internal_chunk_id":"0-0.15-0"},{"nsides":9,"question":"Please answer the following question:<br /><br />What is the inverse of 4 under <img src=./images/nonagon_symbol.png style=width:14px;height:14px>?","added_prompt":"","polygon_response":"0","modular_response":"4","rt":6758,"trial_type":"polygon-arrow-which-representation","trial_index":0,"trial_index_global":81,"time_elapsed":3689162,"internal_chunk_id":"0-0.15-0"},{"question":"Please describe in as much detail as possible how you used the arithmetic method, polygon method, or both for the problem.","response_type":"free","response_choices":[],"correct_response":"","response":"I knew that there were 8 sides so I added whatever number would get me to 8.","explain":false,"explanation":"","explanation_history":[],"response_history":["I knew that there were 9 sides and ","I knew that there were 8 sides so I added whatever number would get me to 8."],"rt":31159,"trial_type":"question","trial_index":0,"trial_index_global":82,"time_elapsed":3720325,"internal_chunk_id":"0-0.15-0"},{"nsides":9,"question":"Please answer the following question:<br /><br />What is the inverse of 0 under <img src=./images/nonagon_symbol.png style=width:14px;height:14px>?","response_type":"free","response_choices":[],"correct_response":"0","response":"9","explain":false,"explanation":"","explanation_history":[],"orientation_history":[[0]],"response_history":["9"],"rt":13976,"trial_type":"polygon-arrow-question","trial_index":0,"trial_index_global":83,"time_elapsed":3734304,"internal_chunk_id":"0-0.15-0"},{"nsides":9,"question":"Please answer the following question:<br /><br />What is the inverse of 0 under <img src=./images/nonagon_symbol.png style=width:14px;height:14px>?","added_prompt":"","polygon_response":"4","modular_response":"0","rt":3531,"trial_type":"polygon-arrow-which-representation","trial_index":0,"trial_index_global":84,"time_elapsed":3737836,"internal_chunk_id":"0-0.15-0"},{"question":"Please describe in as much detail as poss ible how  you used the arithmetic method, polygon method, or both for the problem.","response_type":"free","response_choices":[],"correct_response":"","response":"Since I realized I messed up the last question, there were 9 sides. I counted all the sides of the object and then knew that would be the answer.","explain":false,"explanation":"","explanation_history":[],"response_history":["Since I realized I messed up the last question, there were 9 sides. I counted all the d","Since I realized I messed up the last question, there were 9 sides. I counted all the sides of the object and then knew that would be the answer."],"rt":29882,"trial_type":"question","trial_index":0,"trial_index_global":85,"time_elapsed":3767720,"internal_chunk_id":"0-0.15-0"},{"nsides":9,"question":"Please answer the following question:<br /><br />Is 4 a generator under <img src=./images/nonagon_symbol.png style=width:14px;height:14px>?","response_type":"Multi","response_choices":["Yes","No"],"correct_response":" Yes","response":"No","explain":false,"explanation":"","explanation_history":[],"orientation_history":[[0]],"response_history":["No"],"rt":9378,"trial_type":"polygon-arrow-question","trial_index":0,"trial_index_global":86,"time_elapsed":3777099,"internal_chunk_id":"0-0.15-0"},{"nsides":9,"question":"Please answer the following question:<br /><br />Is 4 a generator under <img src=./images/nonagon_symbol.png style=width:14px;height:14px>?","added_prompt":"","polygon_response":"0","modular_response":"4","rt":3404,"trial_type":"polygon-arrow-which-representation","trial_index":0,"trial_index_global":87,"time_elapsed":3780504,"internal_chunk_id":"0-0.15-0"},{"question":"Please describe in as much detail as possible how you used the arithmetic method, polygon method, or both for the problem.","response_type":"free","response_choices":[],"correct_response":"","response":"I just kept adding 4 to itself to see if it would give me all the numbers up.","explain":false,"explanation":"","explanation_history":[],"response_history":["I just kept adding 4 to ites","I just kept adding 4 to ite","I just kept adding 4 to itself to see if it would repe","I just kept adding 4 to itself to see if it would rep","I just kept adding 4 to itself to see if it would re","I just kept adding 4 to itself to see if it would r","I just kept adding 4 to itself to see if it would give me all the numbers uop","I just kept adding 4 to itself to see if it would give me all the numbers uo","I just kept adding 4 to itself to see if it would give me all the numbers up to 9","I just kept adding 4 to itself to see if it would give me all the numbers up to ","I just kept adding 4 to itself to see if it would give me all the numbers up to","I just kept adding 4 to itself to see if it would give me all the numbers up t","I just kept adding 4 to itself to see if it would give me all the numbers up ","I just kept adding 4 to itself to see if it would give me all the numbers up."],"rt":22133,"trial_type":"question","trial_index":0,"trial_index_global":88,"time_elapsed":3802640,"internal_chunk_id":"0-0.15-0"},{"nsides":"n","question":"Please answer the following question:<br /><br />True or false: If x divides n, it must not be a generator under <img src=./images/ngon_symbol.png style=width:14px;height:14px>.","response_type":"multi","response_choices":["True","False"],"correct_response":"True","response":"True","explain":false,"explanation":"","explanation_history":[],"orientation_history":[[0]],"response_history":["False","True","False","True"],"rt":38559,"trial_type":"polygon-arrow-question","trial_index":0,"trial_index_global":89,"time_elapsed":3841201,"internal_chunk_id":"0-0.15-0"},{"nsides":"n","question":"Please answer the following question:<br /><br />True or false: If x divides n, it must not be a generator under <img src=./images/ngon_symbol.png style=width:14px;height:14px>.","added_prompt":"","polygon_response":"0","modular_response":"4","rt":4206,"trial_type":"polygon-arrow-which-representation","trial_index":0,"trial_index_global":90,"time_elapsed":3845409,"internal_chunk_id":"0-0.15-0"},{"question":"Please describe in as much detail as possible how you used the arithmetic method, polygon method, or both for the problem.","response_type":"free","response_choices":[],"correct_response":"","response":"I used the arithmetic method. I used an odd and an even (n) and an odd and even x to determine that it couldn't be true.","explain":false,"explanation":"","explanation_history":[],"response_history":["I used the arithmetic method. If x is ","I used the arithmetic method. If x is","I used the arithmetic method. If x i","I used the arithmetic method. If x ","I used the arithmetic method. If x","I used the arithmetic method. If ","I used the arithmetic method. If","I used the arithmetic method. I used an odd and an even (n) and an odd and even x to determine that it w","I used the arithmetic method. I used an odd and an even  (n) and  an odd and even x to determine that it couldn't be true."],"rt":32406,"trial_type":"question","trial_index":0,"trial_index_global":91,"time_elapsed":3877818,"internal_chunk_id":"0-0.15-0"},{"instructions":"We would like to ask you some questions about your background. Please press Continue to continue.","rt":1766,"trial_type":"instructions","trial_index":0,"trial_index_global":92,"time_elapsed":3879586,"internal_chunk_id":"0-0.16-0"},{"question":"What is your age?","response_type":"free","response_choices":[],"correct_response":"","response":"36","explain":false,"explanation":"","explanation_history":[],"response_history":["36"],"rt":2375,"trial_type":"question","trial_index":0,"trial_index_global":93,"time_elapsed":3881962,"internal_chunk_id":"0-0.16-0"},{"question":"What is your level of education?","response_type":"multi","response_choices":["Did not graduate high school","High school diploma","Some college, no degree","Associates Degree","Bachelors Degree","Some grad uate sch ool, no degree","Masters Degree","Doctorate, M.D., etc."],"correct_response":"","response":"Bachelors Degree","explain":false,"explanation":"","explanation_history":[],"response_history":["Bachelors Degree"],"rt":2022,"trial_type":"question","trial_index":0,"trial_index_global":94,"time_elapsed":3883984,"internal_chunk_id":"0-0.16-0"},{"question":"What is the most advanced math class you've completed? If you have multiple classes and you're not sure which one is most advanced, please list them.","response_type":"free","response_choices":[],"correct_response":"","response":"algebra 2","explain":false,"explanation":"","explanation_history":[],"response_history":["algebra 2"],"rt":5988,"trial_type":"question","trial_index":0,"trial_index_global":95,"time_elapsed":3889973,"internal_chunk_id":"0-0.16-0"},{"question":"How familiar are you with the concept of modular arithmetic?","response_type":"multi","response_choices":["1 - never heard of it","2 - heard of it but didn't know wh at it wa s","3 - seen it used or explained","4 - used it but not often or recently","5 - used it, remember and understand it"],"correct_response":"1","response":"1 - never heard of it","explain":false,"explanation":"","explanation_history":[],"response_history":["1 - never heard of it"],"rt":2809,"trial_type":"question","trial_index":0,"trial_index_global":96,"time_elapsed":3892783,"internal_chunk_id":"0-0.16-0"},{"question":"How familiar are you with the concept of a mathematical group?","response_type":"multi","response_choices":["1 - never heard of it","2 - heard of it but didn't know what it was","3 - seen it used or explained","4 - used it but not often or recently","5 - used it, remember and understand it"],"correct_response":"1","response":"1 - never heard of it","explain":false,"explanation":"","explanation_history":[],"response_history":["1 - never heard of it"],"rt":2054,"trial_type":"question","trial_index":0,"trial_index_global":97,"time_elapsed":3894839,"internal_chunk_id":"0-0. 16-0"},{"question":"Do you feel you learned something from this HIT?","response_type":"multi","response_choices":["1 - not at all","2 - somewhat","3 - definitely"],"correct_response":"1","response":"1 - not at all","explain":false,"explanation":"","explanation_history":[],"response_history":["1 - not at all"],"rt":3450,"trial_type":"question","trial_index":0,"trial_index_global":98,"time_elapsed":3898291,"internal_chunk_id":"0-0.16-0"},{"question":"Do you feel you understood the concepts in this HIT?","response_type":"multi","response_choices":["1 - not at all","2 - somewhat","3 - definitely"],"correct_response":"1","response":"2 - somewhat","explain":false,"explanation":"","explanation_history":[],"response_history":["2 - somewhat"],"rt":2360,"trial_type":"question","trial_index":0,"trial_index_global":99,"time_elapsed":3900653,"internal_chunk_id":"0-0.16-0"},{"question":"Did you enjoy this HIT?","response_type":"multi","response_choices":["1 - not at all","2 - somewhat","3  - defin itely"],"correct_response":"1","response":"1 - not at all","explain":false,"explanation":"","explanation_history":[],"response_history":["1 - not at all"],"rt":2063,"trial_type":"question","trial_index":0,"trial_index_global":100,"time_elapsed":3902718,"internal_chunk_id":"0-0.16-0"},{"question":"What is your gender?","response_type":"multi","response_choices":["Female","Male","Other"],"correct_response":"","response":"Male","explain":false,"explanation":"","explanation_history":[],"response_history":["Male"],"rt":1546,"trial_type":"question","trial_index":0,"trial_index_global":101,"time_elapsed":3904265,"internal_chunk_id":"0-0.16-0"},{"question":"What is/are your native language(s)? (The languages spoken in your household when you were a child.)","response_type":"free","response_choices":[],"correct_response":"","response":"english","explain":false,"explanation":"","explanation_history":[],"response_history":["english"],"rt":3780,"trial_type":"question","trial_index":0,"trial_index_global":102,"time_elapsed":3908046,"internal_chunk_id":"0-0.16-0"},{"question":"Did you use pen and paper at any point on this HIT?","response_type":"free","response_choices":[],"correct_response":"","response":"no","explain":false,"explanation":"","explanation_history":[],"response_history":["bo","b","no"],"rt":4856,"trial_type":"question","trial_index":0,"trial_index_global":103,"time_elapsed":3912904,"internal_chunk_id":"0-0.16-0"},{"question":"Do you have any comments on this HIT?","response_type":"free","response_choices":[],"correct_response":"","response":"This hit should have been worth $10, not $5. Also, a few of the questions were so complicated that I had to guess as to what the answer was. \n\n1)If x is not a generator under , x must be a multiple of a divisor of n. Please explain in words how you got your answer.\n\n2)if an element x is a generator under , is x  x a generator under always, sometimes, or never? Please explain in words how you got your answer.\n\nThis  was extremely frustrating hit.","explain":false,"explanation":"","explanation_history":[],"response_history":["This hit should have been worth $10, not $5. Also, two fo the ","This hit should have been worth $10, not $5. Also, t","This hit should have been worth $10, not $5. Also, a few of the questions were so complicated that I had to guess as to what the answer was. This was extremely frustrating hit.","This hit should have been worth $10, not $5. Also, a few of the questions were so complicated that I had to guess as to what the answer was. \nThis was extremely frustrating hit.","This hit should have been worth $10, not $5. Also, a few of the questions were so complicated that I had to guess as to what the answer was. \n\nThis was extremely frustrating hit.","This hit should have been worth $10, not $5. Also, a few of the questions were so complicated that I had to guess as to what the answer was. \n\n\nThis was extremely frustrating hit.","This hit should have been wort h $10, n ot $5. Also, a few of the questions were so complicated that I had to guess as to what the answer was. \nTrue or false: If x is not a generator under , x must be a multiple of a divisor of n. Please explain in words how you got your answer.\n\nif an element x is a generator under , is x  x a generator under always, sometimes, or never? Please explain in words how you got your answer.\n\nThis was extremely frustrating hit.","This hit should have been worth $10, not $5. Also, a few of the questions were so complicated that I had to guess as to what the answer was. \n\nIf x is not a generator under , x must be a multiple of a divisor of n. Please explain in words how you got your answer.\n\nif an element x is a generator under , is x  x a generator under always, sometimes, or never? Please explain in words how you got your answer.\n\nThis was extremely frustrating hit.","This hit should have been worth $10, not $5. Also, a few of the questions were so complicated that I had to  guess as  to what the answer was. \n\n1If x is not a generator under , x must be a multiple of a divisor of n. Please explain in words how you got your answer.\n\nif an element x is a generator under , is x  x a generator under always, sometimes, or never? Please explain in words how you got your answer.\n\nThis was extremely frustrating hit.","This hit should have been worth $10, not $5. Also, a few of the questions were so complicated that I had to guess as to what the answer was. \n\n1)If x is not a generator under , x must be a multiple of a divisor of n. Please explain in words how you got your answer.\n\nif an element x is a generator under , is x  x a generator under always, sometimes, or never? Please explain in words how you got your answer.\n\nThis was extremely frustrating hit.","This hit should have been worth $10, not $5. Also, a few of the questions were so complicated that I had to guess as to what the answer was. \n\n1)If x is not a generator under , x must be a multi ple of a  divisor of n. Please explain in words how you got your answer.\n\n2if an element x is a generator under , is x  x a generator under always, sometimes, or never? Please explain in words how you got your answer.\n\nThis was extremely frustrating hit.","This hit should have been worth $10, not $5. Also, a few of the questions were so complicated that I had to guess as to what the answer was. \n\n1)If x is not a generator under , x must be a multiple of a divisor of n. Please explain in words how you got your answer.\n\n2)if an element x is a generator under , is x  x a generator under always, sometimes, or never? Please explain in words how you got your answer.\n\nThis was extremely frustrating hit.","This hit should have been worth $10, not $5. Also, a few of the questions were so complicated that I had to guess as to what the answer was. \n\n1)If x is not a generator under , x must be a multiple of a divisor of n. Please explain in words how you got your answer.\n\n2) if an  element  x is a generator under , is x  x a generator under always, sometimes, or never? Please explain in words how you got your answer.\n\nThis was extremely frustrating hit.","This hit should have been worth $10, not $5. Also, a few of the questions were so complicated that I had to guess as to what the answer was. \n\n1)If x is not a generator under , x must be a multiple of a divisor of n. Please explain in words how you got your answer.\n\n2)if an element x is a generator under , is x  x a generator under always, sometimes, or never? Please explain in words how you got your answer.\n\nThis was extremely frustrating hit."],"rt":56720,"trial_type":"question","trial_index":0,"trial_index_global":104,"time_elapsed":3969626,"internal_chunk_id":"0-0.16-0"}]