[{"nsides":6,"instructions":"Let's define a new operation <img src=./images/hexagon_symbol.png style=width:14px;height:14px>. This operation will give us a way of combining two of the numbers 0, 1, 2, 3, 4, 5 to get another one of them back. Consider the hexagon at the right, where I've labeled each point with one of the numbers. To perform <img src=./images/hexagon_symbol.png style=width:14px;height:14px>, you can use the interactive diagram on the right, or perform the operation in your mind. Point the arrow at the first number on the hexagon by clicking, then click (or click and drag) to move the arrow the second number of points clockwise around the hexagon. The number the arrow arrives at is your result. (The operation is called <img src=./images/hexagon_symbol.png style=width:14px;height:14px> because it uses the hexagon, which has 6 sides.) <br /><br />For example, 3 <img src=./images/hexagon_symbol.png style=width:14px;height:14px> 5 =  2, becau se 5 steps clockwise from 3 on the hexagon brings us to 2. So 3 <img src=./images/hexagon_symbol.png style=width:14px;height:14px> 5 = 2.<br /><br />Similarly, 1 <img src=./images/hexagon_symbol.png style=width:14px;height:14px> 4 = 5, because 4 steps clockwise from 1 brings us to 5. <br /><br />Click Continue when you're ready to move on.","orientation_history":[0,[1.0341081524909712,1.0341081524909712,1.0341081524909712,1.0341081524909712,1.0341081524909712,1.0341081524909712,1.0341081524909712,1.0341081524909712,1.0341081524909712,1.0471975511965976],[2.049148758173554,2.049148758173554,2.049148758173554,2.049148758173554,2.049148758173554,2.049148758173554,2.0943951023931953],[3.172510633152836,3.172510633152836,3.172510633152836,3.172510633152836,3.172510633152836,3.172510633152836,3.141592653589793],[4.182173207608059,4.182173207608059,4.182173207608059,4.182173207608059,4.182173207608059,4.182173207608059,4.182173207608059,4.1887902047863905],[5.281372138494033,5.281372138494033,5.281372138494033,5.281372138494033,5.281372138494033,5.281372138494033,5.281372138494033,5.235987755982988],[6.247056456666811,6.247056456666811,6.247056456666811,6.247056456666811,6.247056456666811,6.283185307179586],[3.099065118970009,3.099065118970009,3.099065118970009,3.099065118970009,3.099065118970009,3.099065118970009,3.099065118970009,3.141592653589793],[4.2205798043959915,4.2205798043959915,4.2205798043959915,4.2205798043959915,4.2205798043959915,4.2205798043959915,4.1887902047863905],[5.243566599610454,5.243566599610454,5.243566599610454,5.243566599610454,5.243566599610454,5.243566599610454,5.235987755982988],[6.250230209565288,6.250230209565288,6.250230209565288,6.250230209565288,6.250230209565288,6.250230209565288,6.250230209565288,6.283185307179586],[1.032172156731846,1.032172156731846,1.032172156731846,1.032172156731846,1.032172156731846,1.032172156731846,1.032172156731846,1.0471975511965976],[2.0951170390983185,2.0951170390983185,2.100385925576973,2.100385925576973,2.100385925576973,2.100385925576973,2.100385925576973,2.0943951023931953],[3.046640947247037,3.046640947247037,3.046640947247037,3.046640947247037,3.046640947247037,3.141592653589793],[4.130251412225746,4.130251412225746,4.130251412225746,4.130251412225746,4.130251412225746,4.130251412225746,4.1887902047863905],[5.2633714680583275,5.2633714680583275,5.2633714680583275,5.2633714680583275,5.2633714680583275,5.2633714680583275,5.2633714680583275,5.2633714680583275,5.235987755982988],[0.08515939261970673,0.08515939261970673,0.08515939261970673,0.08515939261970673,0.08515939261970673,0],[1.0267536539728521,1.0267536539728521,1.0358412530088001,1.0358412530088001,1.0358412530088001,1.0358412530088001,1.0358412530088001,1.0358412530088001,1.0471975511965976],[1.9663674775377031,1.9663674775377031,1.9663674775377031,1.97568811307998,2.0943951023931953]],"rt":79145,"trial_type":"polygon-arrow-instructions","trial_index":0,"trial_index_global":1,"time_elapsed":87750,"internal_chunk_id":"0-0"},{"nsides":6,"instructions":"Do you see how <img src=./images/hexagon_symbol.png style=width:14px;height:14px> works? By labeling the points of the hexagon with the numbers from 0 to 5, we ensure that when we combine two numbers under <img src=./images/hexagon_symbol.png style=width:14px;height:14px>, we only produce numbers between 0 and 5.<br /><br />Click Continue when you are ready to move on.","orientation_history":[0],"rt":12429,"trial_type":"polygon-arrow-instructions","trial_index":0,"trial_index_global":2,"time_elapsed":100182,"internal_chunk_id":"0-0"},{"nsides":6,"question":"Now try one on your own! What is 4 <img src=./images/hexagon_symbol.png style=width:14px;height:14px> 5? <br /><br /> (Remember, to perform <img src=./images/hexagon_symbol.png style=width:14px;height:14px>, you can use the interactive diagram on the right, or perform the operation in your mind. Point the arrow at the first number on t he hexag on, then move the arrow the second number of points clockwise around the hexagon. The number the arrow arrives at is your result.)","response_type":"free","response_choices":[],"correct_response":"3","response":"3","explain":false,"explanation":"","explanation_history":[],"orientation_history":[[0],[4.130251412225746,4.130251412225746,4.130251412225746,4.130251412225746,4.130251412225746,4.130251412225746,4.130251412225746,4.130251412225746,4.130251412225746,4.130251412225746,4.1887902047863905]],"response_history":["3"],"rt":21326,"trial_type":"polygon-arrow-question","trial_index":0,"trial_index_global":3,"time_elapsed":121510,"internal_chunk_id":"0-0.3-0"},{"nsides":6,"feedback":"Correct! 4 <img src=./images/hexagon_symbol.png style=width:14px;height:14px> 5 = 3 because 5 steps clockwise on the hexagon from 4 brings us to 3","orientation_history":[0],"rt":3526,"trial_type":"polygon-arrow-feedback","trial_index":0,"trial_index_global":4,"time_elapsed":125038,"internal_chunk_id":"0-0.3-0"},{"nsides":6,"question":"What is 3 <img src=./images/hexagon_symbol.png style=width:14px;height:14px> 2? <br /><br /> (Remember, to perform <img src=./images/hexagon_symbol.png style=width:14px;height:14px>, you can use the interactive diagram on the right, or perform the operation in your mind. Point the arrow at the first number on the hexagon, then move the arrow the second number of points clockwise around the hexagon. The number the arrow arrives at is your result.)","response_type":"free","response_choices":[],"correct_response":"5","response":"5","explain":false,"explanation":"","explanation_history":[],"orientation_history":[[0],[3.1865062490595824,3.1865062490595824,3.1865062490595824,3.1865062490595824,3.1865062490595824,3.1865062490595824,3.1865062490595824,3.1865062490595824,3.141592653589793],[4.118416298512585,4.118416298512585,4.118416298512585,4.118416298512585,4.118416298512585,4.118416298512585,4.118416298512585,4.1887902047863905],[5.171086134776653,5.171086134776653,5.171086134776653,5.171086134776653,5.171086134776653,5.171086134776653,5.235987755982988]],"response_history":["5"],"rt":8048,"trial_type":"polygon-arrow-question","trial_index":0,"trial_index_global":5,"time_elapsed":133086,"internal_chunk_id":"0-0.3-0"},{"nsides":6,"feedback":"Correct! 3 <img src=./images/hexagon_symbol.png style=width:14px;height:14px> 2 = 5 because 2 steps clockwise on the hexagon from 3 brings us to 5","orientation_history":[0],"rt":1607,"trial_type":"polygon-arrow-feedback","trial_index":0,"trial_index_global":6,"time_elapsed":134694,"internal_chunk_id":"0-0.3-0"},{"nsides":6,"question":"What is 1 <img src=./images/hexagon_symbol.png style=width:14px;height:14px> 5? <br /><br /> (Remember, to perform <img src=./images/hexagon_symbol.png style=width:14px;height:14px>, you can use the interactive diagram on the right, or perform the operation in your mind. Point the arrow at the first number on  the hex agon, then move the arrow the second number of points clockwise around the hexagon. The number the arrow arrives at is your result.)","response_type":"free","response_choices":[],"correct_response":"0","response":"0","explain":false,"explanation":"","explanation_history":[],"orientation_history":[[0],[0.9386583652659028,0.9386583652659028,0.9453112865556675,0.9453112865556675,0.9453112865556675,0.9518438569459916,0.9582587701845932,1.0471975511965976],[2.1150768117408765,2.1150768117408765,2.1150768117408765,2.1150768117408765,2.1150768117408765,2.1150768117408765,2.0943951023931953],[3.1936289683990093,3.1936289683990093,3.1936289683990093,3.1936289683990093,3.1936289683990093,3.1936289683990093,3.1936289683990093,3.141592653589793],[4.221842031557781,4.221842031557781,4.217077749308269,4.217077749308269,4.217077749308269,4.217077749308269,4.217077749308269,4.1887902047863905],[5.141736321745856,5.141736321745856,5.141736321745856,5.141736321745856,5.141736321745856,5.235987755982988],[0.04758310327698334,0.04758310327698334,0.04758310327698334,0.04758310327698334,0.04758310327698334,0.04758310327698334,0.04758310327698334,0]],"response_history":["0"],"rt":8480,"trial_type":"polygon-arrow-question","trial_index":0,"trial_index_global":7,"time_elapsed":143175,"internal_chunk_id":"0-0.3-0"},{"nsides":6,"feedback":"Correct! 1 <img src=./images/hexagon_symbol.png style=width:14px;height:14px> 5 = 0 because 5 steps clockwise on the hexagon from 1 brings us to 0","orientation_history":[0],"rt":1544,"trial_type":"polygon-arrow-feedback","trial_index":0,"trial_index_global":8,"time_elapsed":144719,"internal_chunk_id":"0-0.3-0"},{"nsides":6,"question":"What is 1 <img src=./images/hexagon_symbol.png style=width:14px;height:14px> 1? <br /><br /> (Remember, to perform <img src=./images/hexagon_symbol.png style=width:14px;height:14px>, you can use the interactive diagram on the right, or perform the operation in your mind. Point the arrow a t the fi rst number on the hexagon, then move the arrow the second number of points clockwise around the hexagon. The number the arrow arrives at is your result.)","response_type":"free","response_choices":[],"correct_response":"2","response":"2","explain":false,"explanation":"","explanation_history":[],"orientation_history":[[0]],"response_history":["2"],"rt":7215,"trial_type":"polygon-arrow-question","trial_index":0,"trial_index_global":9,"time_elapsed":151934,"internal_chunk_id":"0-0.3-0"},{"nsides":6,"feedback":"Correct! 1 <img src=./images/hexagon_symbol.png style=width:14px;height:14px> 1 = 2 because 1 step clockwise on the hexagon from 1 brings us to 2","orientation_history":[0],"rt":1355,"trial_type":"polygon-arrow-feedback","trial_index":0,"trial_index_global":10,"time_elapsed":153289,"internal_chunk_id":"0-0.3-0"},{"nsides":6,"question":"What is 3 <img src=./images/hexagon_symbol.png style=width:14px;height:14px> 0? <br /><br /> (Remember, to perform <img sr c=./im ages/hexagon_symbol.png style=width:14px;height:14px>, you can use the interactive diagram on the right, or perform the operation in your mind. Point the arrow at the first number on the hexagon, then move the arrow the second number of points clockwise around the hexagon. The number the arrow arrives at is your result.)","response_type":"free","response_choices":[],"correct_response":"3","response":"3","explain":false,"explanation":"","explanation_history":[],"orientation_history":[[0]],"response_history":["3"],"rt":4032,"trial_type":"polygon-arrow-question","trial_index":0,"trial_index_global":11,"time_elapsed":157321,"internal_chunk_id":"0-0.3-0"},{"nsides":6,"feedback":"Correct! 3 <img src=./images/hexagon_symbol.png style=width:14px;height:14px> 0 = 3 because 0 steps clockwise on the hexagon from 3 brings us to 3","orientation_history":[0],"rt":1176,"trial_type":"polygon-arrow-feedback","trial_index":0,"trial_index_global":12,"time_elapsed":158497,"internal_chunk_id":"0-0.3-0"},{"nsides":6,"question":"What is 4 <img src=./images/hexagon_symbol.png style=width:14px;height:14px> 4? <br /><br /> (Remember, to perform <img src=./images/hexagon_symbol.png style=width:14px;height:14px>, you can use the interactive diagram on the right, or perform the operation in your mind. Point the arrow at the first number on the hexagon, then move the arrow the second number of points clockwise around the hexagon. The number the arrow arrives at is your result.)","response_type":"free","response_choices":[],"correct_response":"2","response":"2","explain":false,"explanation":"","explanation_history":[],"orientation_history":[[0],[4.194739871007915,4.194739871007915,4.194739871007915,4.194739871007915,4.194739871007915,4.194739871007915,4.194739871007915,4.194739871007915,4.1887902047863905],[5.241270531137815,5.241270531137815,5.241270531137815,5.241270531137815,5.241270531137815,5.241270531137815,5.241270531137815,5.235987755982988],[0.09608871551736686,0.09608871551736686,0.09608871551736686,0.09608871551736686,0.09608871551736686,0.09608871551736686,0.09608871551736686,0],[0.9582587701845932,0.9582587701845932,0.9582587701845932,0.9582587701845932,0.9673628493566342,0.973619668702219,0.973619668702219,0.982793723247329,1.0471975511965976],[2.097423598228647,2.097423598228647,2.097423598228647,2.097423598228647,2.097423598228647,2.0943951023931953]],"response_history":["2"],"rt":9016,"trial_type":"polygon-arrow-question","trial_index":0,"trial_index_global":13,"time_elapsed":167513,"internal_chunk_id":"0-0.3-0"},{"nsides":6,"feedback":"Correct! 4 <img src=./images/hexagon_symbol.png style=width:14px;height:14px> 4 = 2 because 4 steps clockwise on the hexagon from 4 brings us to 2","orientation_history":[0],"rt":1439,"trial_type":"polygon-arrow-feedback","trial_index":0,"trial_index_global":14,"time_elapsed":168953,"internal_chunk_id":"0-0.3-0"},{"nsides":6,"question":"What is 1 <img src=./images/hexagon _symbol. png style=width:14px;height:14px> 3? <br /><br /> (Remember, to perform <img src=./images/hexagon_symbol.png style=width:14px;height:14px>, you can use the interactive diagram on the right, or perform the operation in your mind. Point the arrow at the first number on the hexagon, then move the arrow the second number of points clockwise around the hexagon. The number the arrow arrives at is your result.)","response_type":"free","response_choices":[],"correct_response":"4","response":"4","explain":false,"explanation":"","explanation_history":[],"orientation_history":[[0],[0.9760370693115438,0.9760370693115438,0.9760370693115438,0.9760370693115438,0.9760370693115438,0.9760370693115438,0.9760370693115438,0.9760370693115438,0.9760370693115438,1.0471975511965976],[2.0741957111915506,2.0741957111915506,2.0741957111915506,2.0741957111915506,2.0741957111915506,2.0741957111915506,2.0943951023931953],[3.0309354324158972,3.0309354324158972,3.0309354324158972,3.0309354324158972,3.0309354324158972,3.0309354324158972,3.141592653589793],[4.159970056064344,4.159970056064344,4.159970056064344,4.159970056064344,4.159970056064344,4.1887902047863905]],"response_history":["4"],"rt":9408,"trial_type":"polygon-arrow-question","trial_index":0,"trial_index_global":15,"time_elapsed":178362,"internal_chunk_id":"0-0.3-0"},{"nsides":6,"feedback":"Correct! 1 <img src=./images/hexagon_symbol.png style=width:14px;height:14px> 3 = 4 because 3 steps clockwise on the hexagon from 1 brings us to 4","orientation_history":[0],"rt":1696,"trial_type":"polygon-arrow-feedback","trial_index":0,"trial_index_global":16,"time_elapsed":180058,"internal_chunk_id":"0-0.3-0"},{"nsides":6,"question":"What is 4 <img src=./images/hexagon_symbol.png style=width:14px;height:14px> 3? <br /><br /> (Remember, to perform <img src=./images/hexagon_symbol.png style=width:14px;height:14px>, you can use the interactive diagram on the right, or perform the operation in your min d. Point  the arrow at the first number on the hexagon, then move the arrow the second number of points clockwise around the hexagon. The number the arrow arrives at is your result.)","response_type":"free","response_choices":[],"correct_response":"1","response":"1","explain":false,"explanation":"","explanation_history":[],"orientation_history":[[0],[4.2536918259927265,4.2536918259927265,4.243690909274811,4.238537643889929,4.238537643889929,4.238537643889929,4.238537643889929,4.1887902047863905],[5.196338368244714,5.196338368244714,5.20633034930427,5.21173570206482,5.2272737567889145,5.237184752034796,5.235987755982988],[0.06731387579270498,0.06731387579270498,0.06731387579270498,0.06731387579270498,0.06731387579270498,0.06731387579270498,0.06731387579270498,0],[0.9517302722122684,0.9517302722122684,0.9517302722122684,0.9517302722122684,0.9517302722122684,0.9517302722122684,0.9517302722122684,1.0471975511965976]],"response_history":["1"],"rt":7023,"trial_type":"polygon-arrow-question ","trial_index":0,"trial_index_global":17,"time_elapsed":187081,"internal_chunk_id":"0-0.3-0"},{"nsides":6,"feedback":"Correct! 4 <img src=./images/hexagon_symbol.png style=width:14px;height:14px> 3 = 1 because 3 steps clockwise on the hexagon from 4 brings us to 1","orientation_history":[0],"rt":1775,"trial_type":"polygon-arrow-feedback","trial_index":0,"trial_index_global":18,"time_elapsed":188857,"internal_chunk_id":"0-0.3-0"},{"nsides":6,"question":"What is 0 <img src=./images/hexagon_symbol.png style=width:14px;height:14px> 5? <br /><br /> (Remember, to perform <img src=./images/hexagon_symbol.png style=width:14px;height:14px>, you can use the interactive diagram on the right, or perform the operation in your mind. Point the arrow at the first number on the hexagon, then move the arrow the second number of points clockwise around the hexagon. The number the arrow arrives at is your result.)","response_type":"free","response_choices":[],"correct_response":"5","response":"5","explain":false,"explanation":"","explanation_history":[],"orientation_history":[[0]],"response_history":["5"],"rt":7225,"trial_type":"polygon-arrow-question","trial_index":0,"trial_index_global":19,"time_elapsed":196082,"internal_chunk_id":"0-0.3-0"},{"nsides":6,"feedback":"Correct! 0 <img src=./images/hexagon_symbol.png style=width:14px;height:14px> 5 = 5 because 5 steps clockwise on the hexagon from 0 brings us to 5","orientation_history":[0],"rt":1383,"trial_type":"polygon-arrow-feedback","trial_index":0,"trial_index_global":20,"time_elapsed":197465,"internal_chunk_id":"0-0.3-0"},{"nsides":6,"question":"What is 2 <img src=./images/hexagon_symbol.png style=width:14px;height:14px> 5? <br /><br /> (Remember, to perform <img src=./images/hexagon_symbol.png style=width:14px;height:14px>, you can use the interactive diagram on the right, or perform the operation in your mind. Point the arrow at the first number on the hexagon, then move the  arrow th e second number of points clockwise around the hexagon. The number the arrow arrives at is your result.)","response_type":"free","response_choices":[],"correct_response":"1","response":"1","explain":false,"explanation":"","explanation_history":[],"orientation_history":[[0],[2.0292356495566306,2.0292356495566306,2.0292356495566306,2.0292356495566306,2.0292356495566306,2.0292356495566306,2.0292356495566306,2.0943951023931953],[3.202492861867781,3.202492861867781,3.202492861867781,3.202492861867781,3.202492861867781,3.1903345048997247,3.1903345048997247,3.1903345048997247,3.141592653589793],[4.0894799262044454,4.0894799262044454,4.0894799262044454,4.0894799262044454,4.0894799262044454,4.0894799262044454,4.1887902047863905],[5.190054362747439,5.190054362747439,5.190054362747439,5.199288212195959,5.204198156373388,5.235987755982988],[0.08121630645073741,0.08121630645073741,0.08121630645073741,0.08121630645073741,0.08121630645073741,0],[1.09432890732119,1.09432890732119,1.1028568986520793,1.1071487177940904,1.1071487177940904,1.1071487177940904,1.1071487177940904,1.0471975511965976]],"response_history":["1"],"rt":9847,"trial_type":"polygon-arrow-question","trial_index":0,"trial_index_global":21,"time_elapsed":207313,"internal_chunk_id":"0-0.3-0"},{"nsides":6,"feedback":"Correct! 2 <img src=./images/hexagon_symbol.png style=width:14px;height:14px> 5 = 1 because 5 steps clockwise on the hexagon from 2 brings us to 1","orientation_history":[0],"rt":5820,"trial_type":"polygon-arrow-feedback","trial_index":0,"trial_index_global":22,"time_elapsed":213133,"internal_chunk_id":"0-0.3-0"},{"nsides":6,"instructions":"Now we're going to discuss a couple special properties of this new operation, <img src=./images/hexagon_symbol.png style=width:14px;height:14px> that we've learned. First, notice that the number 0 behaves in a special way under <img src=./images/hexagon_symbol.png style=width:14px;height:14px>. Whenever we combine 0 with anything el se, we g et that same thing back. We'll say that 0 is the <i>identity</i> under <img src=./images/hexagon_symbol.png style=width:14px;height:14px>, because when you combine it with something it gives you that identical thing back.","orientation_history":[0],"rt":21646,"trial_type":"polygon-arrow-instructions","trial_index":0,"trial_index_global":23,"time_elapsed":234780,"internal_chunk_id":"0-0"},{"nsides":6,"instructions":"Now that we know 0 is the identity under <img src=./images/hexagon_symbol.png style=width:14px;height:14px>, we're going to make a new definition. We'll say that the <i>inverse</i> of a number is the element that you combine with it to produce the identity under our operation. For example, 5 <img src=./images/hexagon_symbol.png style=width:14px;height:14px> 1 = 0, so we say 1 is the inverse of 5 under <img src=./images/hexagon_symbol.png style=width:14px;height:14px>, (remember 0 is the identity under <img src=./images/hexagon_sym bol.png style=width:14px;height:14px>). Similarly, 3 is its own inverse under <img src=./images/hexagon_symbol.png style=width:14px;height:14px>, because 3 <img src=./images/hexagon_symbol.png style=width:14px;height:14px> 3 = 0.","orientation_history":[0],"rt":29239,"trial_type":"polygon-arrow-instructions","trial_index":0,"trial_index_global":24,"time_elapsed":264020,"internal_chunk_id":"0-0"},{"nsides":6,"question":"Now you try! What is the inverse of 4 under <img src=./images/hexagon_symbol.png style=width:14px;height:14px>? <br /><br /> (Remember, the inverse of an element is the thing which you combine with it to produce the identity.)","response_type":"free","response_choices":[],"correct_response":"2","response":"2","explain":false,"explanation":"","explanation_history":[],"orientation_history":[[0],[4.196158309772942,4.196158309772942,4.196158309772942,4.196158309772942,4.196158309772942,4.196158309772942,4.196158309772942,4.196158309772942,4.1887902047863905],[5.176036589385496,5.176036589385496,5.176036589385496,5.176036589385496,5.176036589385496,5.176036589385496,5.235987755982988],[6.0777899179898185,6.107918931176505,6.136870019174556,6.177200949189986,6.208058151268824,6.249864311301339,6.260717178593761,6.283185307179586]],"response_history":["2"],"rt":10090,"trial_type":"polygon-arrow-question","trial_index":0,"trial_index_global":25,"time_elapsed":274110,"internal_chunk_id":"0-0.7-0"},{"nsides":6,"feedback":"Correct! The inverse of 4 under <img src=./images/hexagon_symbol.png style=width:14px;height:14px> is 2 because 4 <img src=./images/hexagon_symbol.png style=width:14px;height:14px> 2 = 0, and 0 is the identity under <img src=./images/hexagon_symbol.png style=width:14px;height:14px>.","orientation_history":[0],"rt":1511,"trial_type":"polygon-arrow-feedback","trial_index":0,"trial_index_global":26,"time_elapsed":275622,"internal_chunk_id":"0-0.7-0"},{"nsides":6,"question":"What is the i nverse o f 1 under <img src=./images/hexagon_symbol.png style=width:14px;height:14px>? <br /><br /> (Remember, the inverse of an element is the thing which you combine with it to produce the identity.)","response_type":"free","response_choices":[],"correct_response":"5","response":"5","explain":false,"explanation":"","explanation_history":[],"orientation_history":[[0]],"response_history":["5"],"rt":5111,"trial_type":"polygon-arrow-question","trial_index":0,"trial_index_global":27,"time_elapsed":280734,"internal_chunk_id":"0-0.7-0"},{"nsides":6,"feedback":"Correct! The inverse of 1 under <img src=./images/hexagon_symbol.png style=width:14px;height:14px> is 5 because 1 <img src=./images/hexagon_symbol.png style=width:14px;height:14px> 5 = 0, and 0 is the identity under <img src=./images/hexagon_symbol.png style=width:14px;height:14px>.","orientation_history":[0],"rt":808,"trial_type":"polygon-arrow-feedback","trial_index":0,"trial_index_global":28,"time_elapsed":281542,"internal_chunk_id":"0-0.7-0"},{"nsides":6,"question":"What is the inverse of 3 under <img src=./images/hexagon_symbol.png style=width:14px;height:14px>? <br /><br /> (Remember, the inverse of an element is the thing which you combine with it to produce the identity.)","response_type":"free","response_choices":[],"correct_response":"3","response":"3","explain":false,"explanation":"","explanation_history":[],"orientation_history":[[0]],"response_history":["3"],"rt":3817,"trial_type":"polygon-arrow-question","trial_index":0,"trial_index_global":29,"time_elapsed":285359,"internal_chunk_id":"0-0.7-0"},{"nsides":6,"feedback":"Correct! The inverse of 3 under <img src=./images/hexagon_symbol.png style=width:14px;height:14px> is 3 because 3 <img src=./images/hexagon_symbol.png style=width:14px;height:14px> 3 = 0, and 0 is the identity under <img src=./images/hexagon_symbol.png style=width:14px;height:14px>.","orientation_history":[0],"rt":1007,"trial_type":"polygon-arrow-feedback","trial_index":0,"trial_index_global":30,"time_elapsed":286366,"internal_chunk_id":"0-0.7-0"},{"nsides":6,"question":"What is the inverse of 2 under <img src=./images/hexagon_symbol.png style=width:14px;height:14px>? <br /><br /> (Remember, the inverse of an element is the thing which you combine with it to produce the identity.)","response_type":"free","response_choices":[],"correct_response":"4","response":"4","explain":false,"explanation":"","explanation_history":[],"orientation_history":[[0],[2.1995926132103296,2.1995926132103296,2.1995926132103296,2.1995926132103296,2.1995926132103296,2.1995926132103296,2.1995926132103296,2.1995926132103296,2.0943951023931953]],"response_history":["4"],"rt":5271,"trial_type":"polygon-arrow-question","trial_index":0,"trial_index_global":31,"time_elapsed":291638,"internal_chunk_id":"0-0.7-0"},{"nsides":6,"feedback":"Correct! The inverse of 2 under <img src=./images/hexagon_symbol.png style=width :14px;he ight:14px> is 4 because 2 <img src=./images/hexagon_symbol.png style=width:14px;height:14px> 4 = 0, and 0 is the identity under <img src=./images/hexagon_symbol.png style=width:14px;height:14px>.","orientation_history":[0],"rt":1479,"trial_type":"polygon-arrow-feedback","trial_index":0,"trial_index_global":32,"time_elapsed":293118,"internal_chunk_id":"0-0.7-0"},{"nsides":6,"question":"What is the inverse of 0 under <img src=./images/hexagon_symbol.png style=width:14px;height:14px>? <br /><br /> (Remember, the inverse of an element is the thing which you combine with it to produce the identity.)","response_type":"free","response_choices":[],"correct_response":"0","response":"6","explain":false,"explanation":"","explanation_history":[],"orientation_history":[[0]],"response_history":["6"],"rt":4504,"trial_type":"polygon-arrow-question","trial_index":0,"trial_index_global":33,"time_elapsed":297622,"internal_chunk_id":"0-0.7-0"},{"nsides":6,"feedback":"S orry, th at was incorrect. The inverse of 0 under <img src=./images/hexagon_symbol.png style=width:14px;height:14px> is 0 because 0 <img src=./images/hexagon_symbol.png style=width:14px;height:14px> 0 = 0, and 0 is the identity under <img src=./images/hexagon_symbol.png style=width:14px;height:14px>.","orientation_history":[0],"rt":2752,"trial_type":"polygon-arrow-feedback","trial_index":0,"trial_index_global":34,"time_elapsed":300374,"internal_chunk_id":"0-0.7-0"},{"instructions":"It is also possible to successively apply <img src=./images/hexagon_symbol.png style=width:14px;height:14px>, and the operation can simply be performed starting with the left-most pair. For example, 2 <img src=./images/hexagon_symbol.png style=width:14px;height:14px> 3 <img src=./images/hexagon_symbol.png style=width:14px;height:14px> 4 = 5 <img src=./images/hexagon_symbol.png style=width:14px;height:14px> 4 = 3.","rt":26656,"trial_type":"instructions ","trial_index":0,"trial_index_global":35,"time_elapsed":327030,"internal_chunk_id":"0-0"},{"nsides":6,"instructions":"We have one last definition to learn today, using the successive operations we just learned. Let's start with an example. Under our operation <img src=./images/hexagon_symbol.png style=width:14px;height:14px> we can make every other number using just 1: 2 = 1 <img src=./images/hexagon_symbol.png style=width:14px;height:14px> 1, 3 = 1 <img src=./images/hexagon_symbol.png style=width:14px;height:14px> 1 <img src=./images/hexagon_symbol.png style=width:14px;height:14px> 1, 4 = 1 <img src=./images/hexagon_symbol.png style=width:14px;height:14px> 1 <img src=./images/hexagon_symbol.png style=width:14px;height:14px> 1 <img src=./images/hexagon_symbol.png style=width:14px;height:14px> 1, 5 = 1 <img src=./images/hexagon_symbol.png style=width:14px;height:14px> 1 <img src=./images/hexagon_symbol.png style=w idth:14p x;height:14px> 1 <img src=./images/hexagon_symbol.png style=width:14px;height:14px> 1 <img src=./images/hexagon_symbol.png style=width:14px;height:14px> 1, and 0 = 1 <img src=./images/hexagon_symbol.png style=width:14px;height:14px> 1 <img src=./images/hexagon_symbol.png style=width:14px;height:14px> 1 <img src=./images/hexagon_symbol.png style=width:14px;height:14px> 1 <img src=./images/hexagon_symbol.png style=width:14px;height:14px> 1 <img src=./images/hexagon_symbol.png style=width:14px;height:14px> 1. Because 1 can make every other element under <img src=./images/hexagon_symbol.png style=width:14px;height:14px>, we say that 1 is a <i>generator</i> under <img src=./images/hexagon_symbol.png style=width:14px;height:14px>. <br /><br /> However, 2 is not a generator under <img src=./images/hexagon_symbol.png style=width:14px;height:14px>, because 4 = 2 <img src=./images/hexagon_symbol.png  style= width:14px;height:14px> 2, and 0 = 2 <img src=./images/hexagon_symbol.png style=width:14px;height:14px> 2 <img src=./images/hexagon_symbol.png style=width:14px;height:14px> 2, but there is no way to make 1, 3, or 5 using just 2.","orientation_history":[0],"rt":17066,"trial_type":"polygon-arrow-instructions","trial_index":0,"trial_index_global":36,"time_elapsed":344097,"internal_chunk_id":"0-0"},{"nsides":6,"question":"Now you try! Is 3 a generator under <img src=./images/hexagon_symbol.png style=width:14px;height:14px>? <br /><br /> (Remember, a generator is an element which can make every other element.)","response_type":"multi","response_choices":["Yes","No"],"correct_response":"No","response":"No","explain":false,"explanation":"","explanation_history":[],"orientation_history":[[0]],"response_history":["No"],"rt":18231,"trial_type":"polygon-arrow-question","trial_index":0,"trial_index_global":37,"time_elapsed":362329,"internal_chunk_id":"0-0.10-0"},{"nsides":6,"feedback":"Correct! 3 is not a generator under <img src=./images/hexagon_symbol.png style=width:14px;height:14px>, because 3 = 3, 0 = 3 <img src=./images/hexagon_symbol.png style=width:14px;height:14px> 3, but there is no way to make 1, 2, 4, or 5 using just 3.","orientation_history":[0],"rt":2392,"trial_type":"polygon-arrow-feedback","trial_index":0,"trial_index_global":38,"time_elapsed":364722,"internal_chunk_id":"0-0.10-0"},{"nsides":6,"question":"Is 5 a generator under <img src=./images/hexagon_symbol.png style=width:14px;height:14px>? <br /><br /> (Remember, a generator is an element which can make every other element.)","response_type":"multi","response_choices":["Yes","No"],"correct_response":"Yes","response":"No","explain":false,"explanation":"","explanation_history":[],"orientation_history":[[0]],"response_history":["No"],"rt":14383,"trial_type":"polygon-arrow-question","trial_index":0,"trial_index_global":39,"time_elapsed":379105,"internal_chunk_id":"0-0.10-0"},{"nsides":6,"feedback":"Sorry, that's incorrect. 5 is a generator under <img src=./images/hexagon_symbol.png style=width:14px;height:14px>, because 5 = 5, 4 = 5 <img src=./images/hexagon_symbol.png style=width:14px;height:14px> 5, 3 = 5 <img src=./images/hexagon_symbol.png style=width:14px;height:14px> 5 <img src=./images/hexagon_symbol.png style=width:14px;height:14px> 5, 2 = 5 <img src=./images/hexagon_symbol.png style=width:14px;height:14px> 5 <img src=./images/hexagon_symbol.png style=width:14px;height:14px> 5 <img src=./images/hexagon_symbol.png style=width:14px;height:14px> 5, 1 = 5 <img src=./images/hexagon_symbol.png style=width:14px;height:14px> 5 <img src=./images/hexagon_symbol.png style=width:14px;height:14px> 5 <img src=./images/hexagon_symbol.png style=width:14px;height:14px> 5 <img src=./images/hexagon_symbol.png style=width:14px;height:14px> 5, and 0 =  5 <img s rc=./images/hexagon_symbol.png style=width:14px;height:14px> 5 <img src=./images/hexagon_symbol.png style=width:14px;height:14px> 5 <img src=./images/hexagon_symbol.png style=width:14px;height:14px> 5 <img src=./images/hexagon_symbol.png style=width:14px;height:14px> 5 <img src=./images/hexagon_symbol.png style=width:14px;height:14px> 5, so you can make all of the numbers under <img src=./images/hexagon_symbol.png style=width:14px;height:14px> using 5","orientation_history":[0],"rt":2255,"trial_type":"polygon-arrow-feedback","trial_index":0,"trial_index_global":40,"time_elapsed":381361,"internal_chunk_id":"0-0.10-0"},{"nsides":6,"question":"Is 4 a generator under <img src=./images/hexagon_symbol.png style=width:14px;height:14px>? <br /><br /> (Remember, a generator is an element which can make every other element.)","response_type":"multi","response_choices":["Yes","No"],"correct_response":"No","response":"Yes","explain":false,"explanation":"","explanation_history":[],"orientation_history":[[0]],"response_history":["Yes"],"rt":4208,"trial_type":"polygon-arrow-question","trial_index":0,"trial_index_global":41,"time_elapsed":385569,"internal_chunk_id":"0-0.10-0"},{"nsides":6,"feedback":"Sorry, that's incorrect. 4 is not a generator under <img src=./images/hexagon_symbol.png style=width:14px;height:14px>, because 4 = 4, 2 = 4 <img src=./images/hexagon_symbol.png style=width:14px;height:14px> 4, and 0 = 4 <img src=./images/hexagon_symbol.png style=width:14px;height:14px> 4 <img src=./images/hexagon_symbol.png style=width:14px;height:14px> 4, but there is no way to make 1, 3, or 5 using just 4.","orientation_history":[0],"rt":1160,"trial_type":"polygon-arrow-feedback","trial_index":0,"trial_index_global":42,"time_elapsed":386729,"internal_chunk_id":"0-0.10-0"},{"nsides":6,"question":"Is 0 a generator under <img src=./images/hexagon_symbol.png style=width:14px;heigh t:14px >? <br /><br /> (Remember, a generator is an element which can make every other element.)","response_type":"multi","response_choices":["Yes","No"],"correct_response":"No","response":"Yes","explain":false,"explanation":"","explanation_history":[],"orientation_history":[[0]],"response_history":["Yes"],"rt":2544,"trial_type":"polygon-arrow-question","trial_index":0,"trial_index_global":43,"time_elapsed":389273,"internal_chunk_id":"0-0.10-0"},{"nsides":6,"feedback":"Sorry, that's incorrect. 0 is not a generator under <img src=./images/hexagon_symbol.png style=width:14px;height:14px>, because 0 = 0, but there is no way to make 1, 2, 3, 4, or 5 using just 0.","orientation_history":[0],"rt":1247,"trial_type":"polygon-arrow-feedback","trial_index":0,"trial_index_global":44,"time_elapsed":390521,"internal_chunk_id":"0-0.10-0"},{"nsides":9,"instructions":"Now we are going to ask you some questions about a new operation, <img src=./images/nonagon_symbol.png style=width:14 px;heigh t:14px>, on the numbers 0, 1, 2, 3, 4, 5, 6, 7, 8. It works exactly like <img src=./images/hexagon_symbol.png style=width:14px;height:14px>, except now you use the nonagon shown at the right. <br /><br />Do you see how <img src=./images/nonagon_symbol.png style=width:14px;height:14px> works just like <img src=./images/hexagon_symbol.png style=width:14px;height:14px>? By labeling the points of the nonagon with the numbers from 0 to 8, we ensure that when we combine two numbers under <img src=./images/nonagon_symbol.png style=width:14px;height:14px>, we only produce numbers between 0 and 8. <br /><br />We'll give you one practice question with feedback to make sure you understand the new operation. After that, try to complete the remaining questions as accurately as possible.","orientation_history":[0],"rt":12625,"trial_type":"polygon-arrow-instructions","trial_index":0,"trial_index_global":45,"time_elapsed":403147,"internal_chunk_id":"0-0"},{"nsides":9,"question":"Practice: What is 5 <img src=./images/nonagon_symbol.png style=width:14px;height:14px> 5?","response_type":"free","response_choices":[],"correct_response":"1","response":"1","explain":false,"explanation":"","explanation_history":[],"orientation_history":[[0],[3.55339995895151,3.55339995895151,3.55339995895151,3.55339995895151,3.55339995895151,3.55339995895151,3.55339995895151,3.490658503988659],[4.06657306091112,4.06657306091112,4.06657306091112,4.06657306091112,4.06657306091112,4.06657306091112,4.1887902047863905],[4.8641541357123925,4.8641541357123925,4.8641541357123925,4.8641541357123925,4.8641541357123925,4.8641541357123925,4.8641541357123925,4.886921905584122],[5.5190605298061985,5.5190605298061985,5.5190605298061985,5.5190605298061985,5.5190605298061985,5.5190605298061985,5.5190605298061985,5.585053606381854],[0,0,0,0,0,0,0,0],[0.7783060837231286,0.7783060837231286,0.7783060837231286,0.7783060837231286,0.6981317007977318]],"response_history":["1"],"rt":9672,"trial_type":"polygon-arrow-question","trial_index":0,"trial_index_global":46,"time_elapsed":412819,"internal_chunk_id":"0-0.12-0"},{"nsides":9,"feedback":"Correct! 5 <img src=./images/nonagon_symbol.png style=width:14px;height:14px> 5 = 1 because 5 steps clockwise on the nonagon from 5 brings us to 1","orientation_history":[0],"rt":1151,"trial_type":"polygon-arrow-feedback","trial_index":0,"trial_index_global":47,"time_elapsed":413971,"internal_chunk_id":"0-0.12-0"},{"nsides":9,"question":"What is 3 <img src=./images/nonagon_symbol.png style=width:14px;height:14px> 3?","response_type":"free","response_choices":[],"correct_response":"6","response":"6","explain":false,"explanation":"","explanation_history":[],"orientation_history":[[0],[2.16527133186976,2.16527133186976,2.16527133186976,2.16527133186976,2.0943951023931953],[2.677945044588987,2.677945044588987,2.677945044588987,2.677945044588987,2.677945044588987,2.792526803190927],[3.5095735897347775,3.5095735897347775,3.5095735897347775,3.5095735897347775,3.5095735897347775,3.5095735897347775,3.490658503988659],[4.071024620476237,4.071024620476237,4.071024620476237,4.071024620476237,4.071024620476237,4.1887902047863905]],"response_history":["6"],"rt":7743,"trial_type":"polygon-arrow-question","trial_index":0,"trial_index_global":48,"time_elapsed":421715,"internal_chunk_id":"0-0.12-0"},{"nsides":9,"question":"What is 7 <img src=./images/nonagon_symbol.png style=width:14px;height:14px> 4?","response_type":"free","response_choices":[],"correct_response":"2","response":"2","explain":false,"explanation":"","explanation_history":[],"orientation_history":[[0],[4.831389273767469,4.831389273767469,4.831389273767469,4.831389273767469,4.831389273767469,4.831389273767469,4.886921905584122],[5.543908259796649,5.543908259796649,5.543908259796649,5.543908259796649,5.543908259796649,5.543908259796649,5.543908259796649,5.585053606381854],[0.10548930852509053,0.10548930852509053,0.10548930852509053,0.10548930852509053,0.10548930852509053,0.10548930852509053,0],[0.6812982252878489,0.6812982252878489,0.6812982252878489,0.6812982252878489,0.6812982252878489,0.6812982252878489,0.6812982252878489,0.6981317007977318],[1.396124127786657,1.396124127786657,1.396124127786657,1.396124127786657,1.396124127786657,1.396124127786657,1.3962634015954636]],"response_history":["2"],"rt":11192,"trial_type":"polygon-arrow-question","trial_index":0,"trial_index_global":49,"time_elapsed":432907,"internal_chunk_id":"0-0.12-0"},{"nsides":9,"question":"What is 1 <img src=./images/nonagon_symbol.png style=width:14px;height:14px> 8?","response_type":"free","response_choices":[],"correct_response":"0","response":"0","explain":false,"explanation":"","explanation_history":[],"orientation_history":[[0],[0.6889243882148613,0.6976242710702278,0.7061990924279967,0.7061990924279967,0.7061990924279967,0.7061990924279967,0.6981317007977318],[1.3690339824746094,1.3690339824746094,1.3690339824746094,1.3690339824746094,1.3690339824746094,1.3690339824746094,1.3962634015954636],[2.1251038229964476,2.1251038229964476,2.1251038229964476,2.1251038229964476,2.1251038229964476,2.1251038229964476,2.1251038229964476,2.1251038229964476,2.0943951023931953],[2.733443549834704,2.733443549834704,2.733443549834704,2.733443549834704,2.733443549834704,2.733443549834704,2.733443549834704,2.792526803190927],[3.600632000280479,3.600632000280479,3.600632000280479,3.600632000280479,3.600632000280479,3.490658503988659],[4.124386376837123,4.124386376837123,4.124386376837123,4.124386376837123,4.124386376837123,4.1887902047863905],[4.835360849948987,4.835360849948987,4.835360849948987,4.835360849948987,4.836743974931451,4.886921905584122],[5.483295404716638,5.483295404716638,5.483295404716638,5.483295404716638,5.483295404716638,5.483295404716638,5.585053606381854],[6.199047066648415,6.199047066648415,6.199047066648415,6.199047066648415,6.199047066648415,6.199047066648415,6.283185307179586]],"response_history":["0 "],"rt":11280,"trial_type":"polygon-arrow-question","trial_index":0,"trial_index_global":50,"time_elapsed":444188,"internal_chunk_id":"0-0.12-0"},{"nsides":9,"question":"What is 5 <img src=./images/nonagon_symbol.png style=width:14px;height:14px> 4?","response_type":"free","response_choices":[],"correct_response":"0","response":"0","explain":false,"explanation":"","explanation_history":[],"orientation_history":[[0]],"response_history":["0"],"rt":5910,"trial_type":"polygon-arrow-question","trial_index":0,"trial_index_global":51,"time_elapsed":450099,"internal_chunk_id":"0-0.12-0"},{"nsides":9,"question":"What is 6 <img src=./images/nonagon_symbol.png style=width:14px;height:14px> 6?","response_type":"free","response_choices":[],"correct_response":"3","response":"3","explain":false,"explanation":"","explanation_history":[],"orientation_history":[[0],[4.243933716117192,4.243933716117192,4.243933716117192,4.243933716117192,4.243933716117192,4.243933716117192,4.1887902047863905],[4.914151324704976,4.914151324704976,4.914151324704976,4.914151324704976,4.914151324704976,4.914151324704976,4.886921905584122],[5.600868752304838,5.600868752304838,5.600868752304838,5.600868752304838,5.600868752304838,5.600868752304838,5.600868752304838,5.585053606381854],[0.02563540852167745,0.02563540852167745,0.02563540852167745,0.02563540852167745,0.02563540852167745,0.02563540852167745,0],[0.645575794613255,0.645575794613255,0.645575794613255,0.645575794613255,0.645575794613255,0.645575794613255,0.645575794613255,0.6518691143055768,0.6981317007977318],[1.3129317789939,1.3129317789939,1.3129317789939,1.3129317789939,1.3129317789939,1.3962634015954636],[1.998260639810122,1.998260639810122,2.002491344111223,2.002491344111223,2.002491344111223,2.0068012091529783,2.01119231298524,2.020226884266214,2.0943951023931953]],"response_history":["3"],"rt":8995,"trial_type":"polygon-arrow-question","trial_index":0,"trial_index_global":52,"time_elapsed":459095,"internal_chunk_id":"0- 0.12-0"},{"nsides":9,"instructions":"On the following question, and several others later in the HIT, we will ask you to explain how you got your answer. On these questions, you will be given one box for your answer to the question, and a second for your explanation. Please explain your thought process in as much detail as possible (at least one sentence, and more if you can).","orientation_history":[0],"rt":13319,"trial_type":"polygon-arrow-instructions","trial_index":0,"trial_index_global":53,"time_elapsed":472414,"internal_chunk_id":"0-0.12-0"},{"nsides":9,"question":"What is 4 <img src=./images/nonagon_symbol.png style=width:14px;height:14px> 1? Please explain in words how you got your answer.","response_type":"free","response_choices":[],"correct_response":"5","response":"5","explain":true,"explanation":"5 is one click from 4","explanation_history":["5 is one click from 4"],"orientation_history":[[0],[2.741351996555819,2.741351996555819,2.741351996555819,2.741351996555819,2.741351996555819,2.741351996555819,2.792526803190927],[3.4480772184396553,3.4480772184396553,3.4480772184396553,3.4480772184396553,3.4480772184396553,3.490658503988659]],"response_history":["5"],"rt":25832,"trial_type":"polygon-arrow-question","trial_index":0,"trial_index_global":54,"time_elapsed":498247,"internal_chunk_id":"0-0.12-0"},{"nsides":9,"question":"What is 8 <img src=./images/nonagon_symbol.png style=width:14px;height:14px> 4? Please explain in words how you got your answer.","response_type":"free","response_choices":[],"correct_response":"3","response":"3","explain":true,"explanation":"3 is 4 clicks from 8","explanation_history":["3 is r ","3 is r","3 is 4 clicks from 8"],"orientation_history":[[0],[5.497787143782138,5.497787143782138,5.497787143782138,5.497787143782138,5.497787143782138,5.497787143782138,5.497787143782138,5.585053606381854],[0.10308160852270021,0.10308160852270021,0.10308160852270021,0.10308160852270021,0.10308160852270021,0.10308160852270021,0.10308160852270021,0.10308160852270021,0],[0.5700404636997103,0.5700404636997103,0.5700404636997103,0.5700404636997103,0.5700404636997103,0.5700404636997103,0.5700404636997103,0.6981317007977318],[1.268651103255459,1.268651103255459,1.2722973952087173,1.2722973952087173,1.2722973952087173,1.2722973952087173,1.2722973952087173,1.3962634015954636],[2.120356340321276,2.120356340321276,2.120356340321276,2.120356340321276,2.120356340321276,2.0943951023931953]],"response_history":["3"],"rt":26009,"trial_type":"polygon-arrow-question","trial_index":0,"trial_index_global":55,"time_elapsed":524256,"internal_chunk_id":"0-0.12-0"},{"nsides":9,"question":"What is the identity under <img src=./images/nonagon_symbol.png style=width:14px;height:14px>? Please explain in words how you got your answer.","response_type":"free","response_choices":[],"correct_response":"0","response":"0","explain":true,"explanation":"Any number plus 0 will equal that number","explanation_history":["Any  number  plus 0 will i","Any number plus 0 will equal that number"],"orientation_history":[[0]],"response_history":["0"],"rt":38199,"trial_type":"polygon-arrow-question","trial_index":0,"trial_index_global":56,"time_elapsed":562456,"internal_chunk_id":"0-0.12-0"},{"nsides":9,"question":"What is the inverse of 5 under <img src=./images/nonagon_symbol.png style=width:14px;height:14px>?","response_type":"free","response_choices":[],"correct_response":"4","response":"4","explain":false,"explanation":"","explanation_history":[],"orientation_history":[[0],[3.4249006179652475,3.4249006179652475,3.4249006179652475,3.4249006179652475,3.4249006179652475,3.4249006179652475,3.490658503988659],[4.164365063960412,4.164365063960412,4.164365063960412,4.164365063960412,4.164365063960412,4.164365063960412,4.1887902047863905],[4.931057926258632,4.931057926258632,4.931057926258632,4.931057926258632,4.931057926258632,4.931057926258632,4.931057926258632,4.886921905584122],[5.601414603779009,5.601414603779009,5.601414603779009,5.601414603779009,5.601414603779009,5.601414603779009,5.585053606381854],[6.225777192542786,6.237240651371467,6.237240651371467,6.237240651371467,6.237240651371467,6.237240651371467,6.283185307179586]],"response_history":["4"],"rt":12523,"trial_type":"polygon-arrow-question","trial_index":0,"trial_index_global":57,"time_elapsed":574979,"internal_chunk_id":"0-0.12-0"},{"nsides":9,"question":"What is the inverse of 2 under <img src=./images/nonagon_symbol.png style=width:14px;height:14px>?","response_type":"free","response_choices":[],"correct_response":"7","response":"7","explain":false,"explanation":"","explanation_history":[],"orientation_history":[[0],[1.307398694249396,1.307398694249396,1.307398694249396,1.307398694249396,1.307398694249396,1.307398694249396,1.3962634015954636],[2.076871290091238,2.076871290091238,2.076871290091238,2.076871290091238,2.076871290091238,2.076871290091238,2.0943951023931953],[2.753822481714474,2.753822481714474,2.753822481714474,2.753822481714474,2.753822481714474,2.7586939365438496,2.792526803190927],[3.4288741069869273,3.4288741069869273,3.4288741069869273,3.4288741069869273,3.4288741069869273,3.4288741069869273,3.490658503988659],[4.206438581113614,4.206438581113614,4.206438581113614,4.206438581113614,4.206438581113614,4.206438581113614,4.1887902047863905],[4.8734808849222695,4.8734808849222695,4.8734808849222695,4.8734808849222695,4.8734808849222695,4.8734808849222695,4.8734808849222695,4.886921905584122],[5.554330580726955,5.554330580726955,5.554330580726955,5.554330580726955,5.554330580726955,5.554330580726955,5.585053606381854],[6.094963801874815,6.094963801874815,6.094963801874815,6.094963801874815,6.094963801874815,6.283185307179586]],"response_history":["7"],"rt":10575,"trial_type":"polygon-arrow-question","trial_index":0,"trial_index_global":58,"time_elapsed":585555,"internal_chunk_id":"0-0.12-0"},{"nsides":9,"question":"What is the inverse of 0 under <img src=./images/nonagon_s ymbol.pn g style=width:14px;height:14px>?","response_type":"free","response_choices":[],"correct_response":"0","response":"0","explain":false,"explanation":"","explanation_history":[],"orientation_history":[[0]],"response_history":["0"],"rt":6367,"trial_type":"polygon-arrow-question","trial_index":0,"trial_index_global":59,"time_elapsed":591923,"internal_chunk_id":"0-0.12-0"},{"nsides":9,"question":"What is the inverse of 3 under <img src=./images/nonagon_symbol.png style=width:14px;height:14px>? Please explain in words how you got your answer.","response_type":"free","response_choices":[],"correct_response":"6","response":"6","explain":true,"explanation":"3 is 6 clicks away from 0","explanation_history":["3 is s","3 is 6 clicks away from 0"],"orientation_history":[[0],[2.1091708401411267,2.1091708401411267,2.1193457292454245,2.1193457292454245,2.1193457292454245,2.1193457292454245,2.1193457292454245,2.0943951023931953],[2.795625380976997,2.795625380976997,2.795625380976997,2.795625380976997,2.795625380976997,2.795625380976997,2.792526803190927],[3.4846165940104967,3.4846165940104967,3.4846165940104967,3.4846165940104967,3.4846165940104967,3.4846165940104967,3.490658503988659],[4.077836178608181,4.077836178608181,4.077836178608181,4.0869039401454605,4.1887902047863905],[4.736480703809611,4.736480703809611,4.736480703809611,4.736480703809611,4.736480703809611,4.736480703809611,4.886921905584122],[5.431218980006314,5.431218980006314,5.439031321066415,5.439031321066415,5.447828748060195,5.447828748060195,5.585053606381854],[0.14784936525875558,0.14784936525875558,0.14784936525875558,0.14784936525875558,0.14784936525875558,0]],"response_history":["6"],"rt":26824,"trial_type":"polygon-arrow-question","trial_index":0,"trial_index_global":60,"time_elapsed":618748,"internal_chunk_id":"0-0.12-0"},{"nsides":9,"question":"Is 2 a generator under <img src=./images/nonagon_symbol.png style=width:14px;height:14px>? Please explain in words how you got you r answer .","response_type":"multi","response_choices":["Yes","No"],"correct_response":"Yes","response":"No","explain":true,"explanation":"No way to get to every number","explanation_history":["No way to get to every number"],"orientation_history":[[0]],"response_history":["No"],"rt":21418,"trial_type":"polygon-arrow-question","trial_index":0,"trial_index_global":61,"time_elapsed":640166,"internal_chunk_id":"0-0.12-0"},{"nsides":9,"question":"Is 3 a generator under <img src=./images/nonagon_symbol.png style=width:14px;height:14px>? Please explain in words how you got your answer.","response_type":"multi","response_choices":["Yes","No"],"correct_response":"No","response":"Yes","explain":true,"explanation":"You can get to every number","explanation_history":["Yo ","You can get to every number"],"orientation_history":[[0]],"response_history":["Yes"],"rt":19792,"trial_type":"polygon-arrow-question","trial_index":0,"trial_index_global":62,"time_elapsed":659959,"internal_chunk_id":"0-0.12- 0"},{"nsides":9,"question":"Is 5 a generator under <img src=./images/nonagon_symbol.png style=width:14px;height:14px>? Please explain in words how you got your answer.","response_type":"multi","response_choices":["Yes","No"],"correct_response":"Yes","response":"No","explain":true,"explanation":"No way to get to every number","explanation_history":["No way to get to every number"],"orientation_history":[[0]],"response_history":["No"],"rt":10120,"trial_type":"polygon-arrow-question","trial_index":0,"trial_index_global":63,"time_elapsed":670079,"internal_chunk_id":"0-0.12-0"},{"nsides":9,"question":"Is 6 a generator under <img src=./images/nonagon_symbol.png style=width:14px;height:14px>? Please explain in words how you got your answer.","response_type":"multi","response_choices":["Yes","No"],"correct_response":"No","response":"No","explain":true,"explanation":"No way to get to every number","explanation_history":["No way to get to every number"],"orientation_history":[[0]],"response_history":["No"],"rt":14223,"trial_type":"polygon-arrow-question","trial_index":0,"trial_index_global":64,"time_elapsed":684302,"internal_chunk_id":"0-0.12-0"},{"nsides":"n","instructions":"Now we'd like to ask you some questions about <img src=./images/ngon_symbol.png style=width:14px;height:14px>, where n could be any positive counting number. For example, n could be 3, and the polygon a triangle, or n could be any other counting number you can think of. If you need to write the operation, you can use (n), and your answers can include n to stand in for the arbitrary value if necessary. (You can use the polygon at the right to think, but it doesn't necessarily correspond to the real polygon, which is why we've left most of it dashed.)","orientation_history":[0],"rt":25634,"trial_type":"polygon-arrow-instructions","trial_index":0,"trial_index_global":65,"time_elapsed":709937,"internal_chunk_id":"0-0"},{"nsides":"n","question":"What is the formula fo r the in verse of 1 under <img src=./images/ngon_symbol.png style=width:14px;height:14px>?","response_type":"free","response_choices":[],"correct_response":"n-1","response":"n-1","explain":false,"explanation":"","explanation_history":[],"orientation_history":[[0]],"response_history":["1 plus","1 plu","1 pl","1 p","1 ","1","n-1"],"rt":66603,"trial_type":"polygon-arrow-question","trial_index":0,"trial_index_global":66,"time_elapsed":776540,"internal_chunk_id":"0-0.14-0"},{"nsides":"n","question":"What is the formula for the inverse of an element x under <img src=./images/ngon_symbol.png style=width:14px;height:14px>? Please explain in words why your answer is correct.","response_type":"free","response_choices":[],"correct_response":"n-x","response":"n-x","explain":true,"explanation":"That should get you to 0","explanation_history":["That should get you to 0"],"orientation_history":[[0]],"response_history":["n-x"],"rt":31048,"trial_type":"polygon-arrow-question","trial_index":0,"trial_index_global":67,"time_elapsed":807588,"internal_chunk_id":"0-0.14-0"},{"nsides":"n","question":"Is there a pattern to which elements are generators? How can you know if an element x is a generator under <img src=./images/ngon_symbol.png style=width:14px;height:14px> without seeing whether it can make all the elements?.","response_type":"free","response_choices":[],"correct_response":"","response":"If it is divisable","explain":false,"explanation":"","explanation_history":[],"orientation_history":[[0]],"response_history":["If it is divisable"],"rt":25065,"trial_type":"polygon-arrow-question","trial_index":0,"trial_index_global":68,"time_elapsed":832654,"internal_chunk_id":"0-0.14-0"},{"nsides":"n","question":"True or false: If x is an odd number, it must be a generator under <img src=./images/ngon_symbol.png style=width:14px;height:14px>.","response_type":"multi","response_choices":["True","False"],"correct_response":"False","response":"False","explain":false,"explanation":"","explanation_history":[],"orientation_history":[[0]],"response_history":["False"],"rt":8295,"trial_type":"polygon-arrow-question","trial_index":0,"trial_index_global":69,"time_elapsed":840949,"internal_chunk_id":"0-0.14-0"},{"nsides":"n","question":"True or false: If x is an even number, it must not be a generator under <img src=./images/ngon_symbol.png style=width:14px;height:14px>.","response_type":"multi","response_choices":["True","False"],"correct_response":"False","response":"False","explain":false,"explanation":"","explanation_history":[],"orientation_history":[[0]],"response_history":["False"],"rt":3728,"trial_type":"polygon-arrow-question","trial_index":0,"trial_index_global":70,"time_elapsed":844678,"internal_chunk_id":"0-0.14-0"},{"nsides":"n","question":"True or false: If x is not a generator under <img src=./images/ngon_symbol.png style=width:14px;height:14px>, x must be a divisor of n, that is, x must divide n evenly, with no re mainder. ","response_type":"multi","response_choices":["True","False"],"correct_response":"False","response":"False","explain":false,"explanation":"","explanation_history":[],"orientation_history":[[0]],"response_history":["False"],"rt":13527,"trial_type":"polygon-arrow-question","trial_index":0,"trial_index_global":71,"time_elapsed":858205,"internal_chunk_id":"0-0.14-0"},{"nsides":"n","question":"True or false: If x is not a generator under <img src=./images/ngon_symbol.png style=width:14px;height:14px>, x must be a multiple of a divisor of n. Please explain in words how you got your answer.","response_type":"multi","response_choices":["True","False"],"correct_response":"True","response":"False","explain":true,"explanation":"It must be divisible by n","explanation_history":["It must be divisable by n","It must be divisible by n"],"orientation_history":[[0]],"response_history":["False"],"rt":40619,"trial_type":"polygon-arrow-question","trial_index":0,"trial_index_global":72,"time_elapsed":898825,"internal_chunk_id":"0-0.14-0"},{"nsides":"n","question":"If an element x is a generator under <img src=./images/ngon_symbol.png style=width:14px;height:14px>, is its inverse a generator under <img src=./images/ngon_symbol.png style=width:14px;height:14px> always, sometimes, or never?","response_type":"multi","response_choices":["Always","Sometimes","Never"],"correct_response":"Always","response":"Sometimes","explain":false,"explanation":"","explanation_history":[],"orientation_history":[[0]],"response_history":["Sometimes"],"rt":22543,"trial_type":"polygon-arrow-question","trial_index":0,"trial_index_global":73,"time_elapsed":921369,"internal_chunk_id":"0-0.14-0"},{"nsides":"n","question":"If an element x is a generator under <img src=./images/ngon_symbol.png style=width:14px;height:14px>, is x <img src=./images/ngon_symbol.png style=width:14px;height:14px> x a generator under <img src=./images/ngon_symbol.png style=width:1 4px;heig ht:14px> always, sometimes, or never? Please explain in words how you got your answer.","response_type":"multi","response_choices":["Always","Sometimes","Never"],"correct_response":"Sometimes","response":"Sometimes","explain":true,"explanation":"I am just guessing on this.","explanation_history":["I am just guessing on this."],"orientation_history":[[0]],"response_history":["Sometimes"],"rt":19986,"trial_type":"polygon-arrow-question","trial_index":0,"trial_index_global":74,"time_elapsed":941355,"internal_chunk_id":"0-0.14-0"},{"nsides":"n","question":"If an element x is not a generator under <img src=./images/ngon_symbol.png style=width:14px;height:14px>, is x <img src=./images/ngon_symbol.png style=width:14px;height:14px> x a generator under <img src=./images/ngon_symbol.png style=width:14px;height:14px> always, sometimes, or never?","response_type":"multi","response_choices":["Always","Sometimes","Never"],"correct_response":"Never","response":"So metimes","explain":false,"explanation":"","explanation_history":[],"orientation_history":[[0]],"response_history":["Sometimes"],"rt":11920,"trial_type":"polygon-arrow-question","trial_index":0,"trial_index_global":75,"time_elapsed":953275,"internal_chunk_id":"0-0.14-0"},{"instructions":"We would like to ask you some questions about your background. Please press Continue to continue.","rt":1839,"trial_type":"instructions","trial_index":0,"trial_index_global":76,"time_elapsed":955115,"internal_chunk_id":"0-0.15-0"},{"question":"What is your age?","response_type":"free","response_choices":[],"correct_response":"","response":"40","explain":false,"explanation":"","explanation_history":[],"response_history":["40"],"rt":2832,"trial_type":"question","trial_index":0,"trial_index_global":77,"time_elapsed":957947,"internal_chunk_id":"0-0.15-0"},{"question":"What is your level of education?","response_type":"multi","response_choices":["Did not graduate high school","High school diploma","So me colle ge, no degree","Associates Degree","Bachelors Degree","Some graduate school, no degree","Masters Degree","Doctorate, M.D., etc."],"correct_response":"","response":"Associates Degree","explain":false,"explanation":"","explanation_history":[],"response_history":["Associates Degree"],"rt":16768,"trial_type":"question","trial_index":0,"trial_index_global":78,"time_elapsed":974715,"internal_chunk_id":"0-0.15-0"},{"question":"What is the most advanced math class you've completed? If you have multiple classes and you're not sure which one is most advanced, please list them.","response_type":"free","response_choices":[],"correct_response":"","response":"Algebra.","explain":false,"explanation":"","explanation_history":[],"response_history":["Algebra."],"rt":9895,"trial_type":"question","trial_index":0,"trial_index_global":79,"time_elapsed":984611,"internal_chunk_id":"0-0.15-0"},{"question":"How familiar are you with the concept of modular arithmetic?","response_type":"multi","response_choices":["1 - never heard of it","2 - heard of it but didn't know what it was","3 - seen it used or explained","4 - used it but not often or recently","5 - used it, remember and understand it"],"correct_response":"1","response":"1 - never heard of it","explain":false,"explanation":"","explanation_history":[],"response_history":["1 - never heard of it"],"rt":4600,"trial_type":"question","trial_index":0,"trial_index_global":80,"time_elapsed":989211,"internal_chunk_id":"0-0.15-0"},{"question":"How familiar are you with the concept of a mathematical group?","response_type":"multi","response_choices":["1 - never heard of it","2 - heard of it but didn't know what it was","3 - seen it used or explained","4 - used it but not often or recently","5 - used it, remember and understand it"],"correct_response":"1","response":"1 - never heard of it","explain":false,"explanation":"","explanation_history":[],"response_history":["1 - never heard of it"],"rt":3603,"trial_type":"question","trial_index":0,"trial_index_global":81,"time_elapsed":992814,"internal_chunk_id":"0-0.15-0"},{"question":"Do you feel you learned something from this HIT?","response_type":"multi","response_choices":["1 - not at all","2 - somewhat","3 - definitely"],"correct_response":"1","response":"2 - somewhat","explain":false,"explanation":"","explanation_history":[],"response_history":["2 - somewhat"],"rt":3246,"trial_type":"question","trial_index":0,"trial_index_global":82,"time_elapsed":996061,"internal_chunk_id":"0-0.15-0"},{"question":"Do you feel you understood the concepts in this HIT?","response_type":"multi","response_choices":["1 - not at all","2 - somewhat","3 - definitely"],"correct_response":"1","response":"2 - somewhat","explain":false,"explanation":"","explanation_history":[],"response_history":["2 - somewhat"],"rt":2911,"trial_type":"question","trial_index":0,"trial_index_global":83,"time_elapsed":998973,"internal_chunk_id":"0-0.15-0"},{"question":"Did you enjoy this HIT?","response_type":"multi","response_choices":["1 - not at all","2 - somewhat","3 - definitely"],"correct_response":"1","response":"3 - definitely","explain":false,"explanation":"","explanation_history":[],"response_history":["3 - definitely"],"rt":2408,"trial_type":"question","trial_index":0,"trial_index_global":84,"time_elapsed":1001382,"internal_chunk_id":"0-0.15-0"},{"question":"What is your gender?","response_type":"multi","response_choices":["Female","Male","Other"],"correct_response":"","response":"Male","explain":false,"explanation":"","explanation_history":[],"response_history":["Male"],"rt":1984,"trial_type":"question","trial_index":0,"trial_index_global":85,"time_elapsed":1003366,"internal_chunk_id":"0-0.15-0"},{"question":"What is/are your native language(s)? (The languages spoken in your household when you were a child.)","response_type":"free","response_choices":[],"correct_response":"","response":"English","explain":false,"explanation":"","explanation_history":[],"response_history":["E nglish"],"rt":5959,"trial_type":"question","trial_index":0,"trial_index_global":86,"time_elapsed":1009326,"internal_chunk_id":"0-0.15-0"},{"question":"Did you use pen and paper at any point on this HIT?","response_type":"free","response_choices":[],"correct_response":"","response":"no","explain":false,"explanation":"","explanation_history":[],"response_history":["no"],"rt":3488,"trial_type":"question","trial_index":0,"trial_index_global":87,"time_elapsed":1012814,"internal_chunk_id":"0-0.15-0"},{"question":"Do you have any comments on this HIT?","response_type":"free","response_choices":[],"correct_response":"","response":"","explain":false,"explanation":"","explanation_history":[],"response_history":[],"rt":1511,"trial_type":"question","trial_index":0,"trial_index_global":88,"time_elapsed":1014325,"internal_chunk_id":"0-0.15-0"}]