[{"nsides":6,"instructions":"Let's define a new operation <img src=./images/hexagon_symbol.png style=width:14px;height:14px>. This operation will give us a way of combining two of the numbers 0, 1, 2, 3, 4, 5 to get another one of them back. To perform <img src=./images/hexagon_symbol.png style=width:14px;height:14px>, you can either use a method based on the hexagon at right, or a method based on arithmetic.<br /><b>Hexagon method:</b> you can use the interactive diagram on the right, or perform the operation in your mind. Point the arrow at the first number on the hexagon by clicking, then click (or click and drag) to move the arrow the second number of points clockwise around the hexagon. The number the arrow arrives at is your result. (The operation is called <img src=./images/hexagon_symbol.png style=width:14px;height:14px> because it uses the hexagon, which has 6 sides.) <br ><b>Arithmetic method:</b> you start with the first number, and then add  the sec ond one to it. If the sum is smaller than 6, that's your result. If the sum is 6 or bigger, you subtract 6 to get your result. <br /><br />For example, 3 <img src=./images/hexagon_symbol.png style=width:14px;height:14px> 5 = 2, because 5 steps clockwise from 3 on the hexagon brings us to 2. Equivalently, 3 + 5 = 8, and 8 is bigger than 6, so we subtract 6, and 8 - 6 = 2. So 3 <img src=./images/hexagon_symbol.png style=width:14px;height:14px> 5 = 2.<br /><br />Similarly, 1 <img src=./images/hexagon_symbol.png style=width:14px;height:14px> 4 = 5, because 1 + 4 = 5, and 5 is less than 6 so we leave it alone. Equivalently, 4 steps clockwise from 1 on the hexagon brings us to 5. <br /><br />Click Continue when you're ready to move on.","orientation_history":[0,[4.785786306286301,4.785786306286301,4.785786306286301,4.785786306286301,4.785786306286301,4.785786306286301,4.785786306286301,4.785786306286301,4.785786306286301,5.235987755982988],[5.245623764847303,5.27034922594212,5.369161432236464,5.531086625114049,5.760436952960126,5.963494400684587,-0.049841750556530506,0.17439300055256557,0.3334423971891549,0.4725616811599982,0.4725616811599982,0.5168874669669759,0.538160852991037,0.538160852991037,0.538160852991037,0.538160852991037,0.538160852991037,0.538160852991037,0.538160852991037,0.538160852991037,0.538160852991037,0.5207410124392591,0.4708866408505401,0.40197209134112466,0.3105162199682625,0.24559908658718954,0.19172395653879537,0.13638108985461095,0.09408369883168577,0.06395025658717746,0.04982690193463135,0.04982690193463135,0.04982690193463135,0.04982690193463135,0.04982690193463135,0.04982690193463135,0.04982690193463135,0.04982690193463135,0.04982690193463135,0.04982690193463135,0.04982690193463135,0.04982690193463135,0.04982690193463135,0.04982690193463135,0.04982690193463135,0.04982690193463135,0.04982690193463135,0.04982690193463135,0.04982690193463135,0.04982690193463135,0.04982690193463135,0.04982690193463135,0.04982690193463135,0.04982690193463135,0.04982690193463135,0.04982690193463135,0.03566354312167408,0]],"rt":71699,"trial_type":"polygon-arrow-instructions","trial_index":0,"trial_index_global":1,"time_elapsed":204643,"internal_chunk_id":"0-0"},{"nsides":6,"instructions":"Do you see how the different ways of performing <img src=./images/hexagon_symbol.png style=width:14px;height:14px> give the same result? By labeling the points of the hexagon with the numbers from 0 to 5, we ensure that when we combine two numbers using the hexagon, we only produce numbers between 0 and 5. When we use the arithmetic strategy, adding the second number to the first mimics counting around the hexagon, and subtracting 6 each time we get above 5 makes sure the results correspond to the numbers on the points of the hexagon. <br /><br />Click Continue when you're ready to move on.","orientation_history":[0],"rt":10358,"trial_type":"polygon-arrow-instructions","trial_index":0,"trial_index_global":2,"time_elapsed":215002,"internal_chunk_id":"0-0"},{"nsides":6,"question":"Now try one on your own! What is 4 <img src=./images/hexagon_symbol.png style=width:14px;height:14px> 5? <br /><br /> (Remember, to perform <img src=./images/hexagon_symbol.png style=width:14px;height:14px>, you can either use a method based on the hexagon at right, or a method based on arithmetic.<br /><br /><b>Hexagon method:</b> you can use the interactive diagram on the right, or perform the operation in your mind. Point the arrow at the first number, then move the arrow the second number of points clockwise around the hexagon. The number the arrow arrives at is your result. <br /><br /><b>Arithmetic method:</b> you start with the first number, and then add the second one to it. If the sum is smaller than 6, that's your result. If the sum is 6 or bigger, you subtract 6 to get your result.)","response_type":"free","response_choices":[],"correct_response":"3","response":"3","explain":false,"explanation":"","explanation_history":[],"orientation_history":[[0],[0,0,-0.01366474427424258,-0.04174280627986526,-0.11744859987251566,-0.2201463312547638,-0.442896292222148,-0.442896292222148,-0.6736932736702475,-1.0785850599553308,-1.5065335562768132,-1.7690315170100224,-1.863983223352779,-1.9295262721622137,-1.9851578560644594,-2.020954512951903,-2.064066948770547,-2.0771877427422334,-2.104154231212952,-2.130235272503704,-2.149677266943785,-2.1659343851830286,-2.1739233032951066,-2.1739233032951066,-2.1739233032951066,-2.1739233032951066,-2.1739233032951066,-2.1818199034094707,-2.1818199034094707,-2.1818199034094707,-2.1818199034094707,-2.189624808696066,-2.1838032782171366,-2.1838032782171366,-2.1838032782171366,-2.1838032782171366,-2.1838032782171366,-2.1780710924798825,-2.1624821549389583,-2.146538175822366,-2.1329452929696355,-2.1247857351694917,-2.1247857351694917,-2.1247857351694917,-2.1247857351694917,-2.1247857351694917,-2.1247857351694917,-2.1247857351694917,-2.1247857351694917,-2.1247857351694917,-2.1247857351694917,-2.1247857351694917,-2.1247857351694917,-2.1247857351694917,-2.1247857351694917,-2.1247857351694917,-2.116537499130839,-2.116537499130839,-2.116537499130839,-2.116537499130839,-2.116537499130839,-2.116537499130839,-2.116537499130839,-2.116537499130839,-2.116537499130839,-2.116537499130839,-2.116537499130839,-2.116537499130839,-2.116537499130839,-2.116537499130839,-2.116537499130839,-2.116537499130839,-2.116537499130839,-2.116537499130839,-2.116537499130839,-2.116537499130839,-2.116537499130839,-2.116537499130839,-2.116537499130839,-2.116537499130839,-2.116537499130839,-2.116537499130839,-2.116537499130839,-2.116537499130839,-2.116537499130839,-2.116537499130839,-2.116537499130839,-2.116537499130839,-2.116537499130839,-2.116537499130839,-2.116537499130839,-2.116537499130839,-2.116537499130839,-2.116537499130839,-2.116537499130839,-2.116537499130839,-2.116537499130839,-2.116537499130839,-2.116537499130839,-2.116537499130839,-2.116537499130839,-2.116537499130839,-2.116537499130839,-2.116537499130839,-2.116537499130839,-2.116537499130839,-2.116537499130839,-2.116537499130839,-2.116537499130839,-2.116537499130839,-2.116537499130839,-2.116537499130839,4.1887902047863905],[4.1887902047863905,4.1887902047863905,4.195592820941199,4.229583887654256,4.288458857277552,4.400341833119123,4.496569612388875,4.639105270493051,4.729209705056975,4.823586419203378,4.891669413750857,4.959483545805988,5.013878704680749,5.055856847087009,5.081785155148363,5.101523345395265,5.101523345395265,5.130438504061823,5.139890448973073,5.149248615290567,5.158512777083538,5.158512777083538,5.158512777083538,5.158512777083538,5.158512777083538,5.158512777083538,5.158512777083538,5.158512777083538,5.158512777083538,5.158512777083538,5.158512777083538,5.158512777083538,5.158512777083538,5.158512777083538,5.158512777083538,5.158512777083538,5.158512777083538,5.158512777083538,5.158512777083538,5.158512777083538,5.158512777083538,5.158512777083538,5.158512777083538,5.158512777083538,5.158512777083538,5.158512777083538,5.158512777083538,5.235987755982988]],"response_history":["3"],"rt":48422,"trial_type":"polygon-arrow-question","trial_index":0,"trial_index_global":3,"time_elapsed":263426,"internal_chunk_id":"0-0.3-0"},{"nsides":6,"feedback":"Correct! 4 <img src=./images/hexagon_symbol.png style=width:14px;height:14px> 5 = 3 because 5 steps clockwise on the hexagon from 4 brings us to 3. Equivalently, 4 + 5 = 9 and 9 - 6 = 3.","orientation_history":[0],"rt":16654,"trial_type":"polygon-arrow-feedback","trial_index":0,"trial_index_global":4,"time_elapsed":280081,"internal_chunk_id":"0-0.3-0"},{"nsides":6,"question":"What is 3 <img src=./images/hexagon_symbol.png style=width:14px;height:14px> 2? Try to solve this problem using the hexagon. <br /><br /> (Remember, to perform <img src=./images/hexagon_symbol.png style=width:14px;height:14px> on the hexagon, you can use the interactive diagram on the right, or pe rform th e operation in your mind. Point the arrow at the first number on the hexagon, and then move the arrow the second number of points clockwise around the hexagon.)","response_type":"free","response_choices":[],"correct_response":"5","response":"5","explain":false,"explanation":"","explanation_history":[],"orientation_history":[[0]],"response_history":["5"],"rt":29987,"trial_type":"polygon-arrow-question","trial_index":0,"trial_index_global":5,"time_elapsed":310069,"internal_chunk_id":"0-0.3-0"},{"nsides":6,"feedback":"Correct! 3 <img src=./images/hexagon_symbol.png style=width:14px;height:14px> 2 = 5 because 2 steps clockwise on the hexagon from 3 brings us to 5. Equivalently, 3 + 2 = 5 and 5 is less than 6.","orientation_history":[0],"rt":1404,"trial_type":"polygon-arrow-feedback","trial_index":0,"trial_index_global":6,"time_elapsed":311473,"internal_chunk_id":"0-0.3-0"},{"nsides":6,"question":"What is 1 <img src=./images/hexagon_symbol.png style=width:14px;heigh t:14px > 5? Try to solve this probem using the arithmetic technique. <br /><br /> (Remember, to perform <img src=./images/hexagon_symbol.png style=width:14px;height:14px> by arithmetic, you start with the first number, and then add the second one to it. If the sum is smaller than 6, that's your result. If the sum is 6 or bigger, you subtract 6 to get your result.)","response_type":"free","response_choices":[],"correct_response":"0","response":"0","explain":false,"explanation":"","explanation_history":[],"orientation_history":[[0]],"response_history":["6","0"],"rt":8247,"trial_type":"polygon-arrow-question","trial_index":0,"trial_index_global":7,"time_elapsed":319720,"internal_chunk_id":"0-0.3-0"},{"nsides":6,"feedback":"Correct! 1 <img src=./images/hexagon_symbol.png style=width:14px;height:14px> 5 = 0 because 1 + 5 = 6 and 6 - 6 = 0.  Equivalently, 5 steps clockwise on the hexagon from 1 brings us to 0.","orientation_history":[0],"rt":1207,"trial_type":"polygon-arr ow-feedb ack","trial_index":0,"trial_index_global":8,"time_elapsed":320928,"internal_chunk_id":"0-0.3-0"},{"nsides":6,"question":"What is 1 <img src=./images/hexagon_symbol.png style=width:14px;height:14px> 1? Try to solve this problem using the hexagon. <br /><br /> (Remember, to perform <img src=./images/hexagon_symbol.png style=width:14px;height:14px> on the hexagon, you can use the interactive diagram on the right, or perform the operation in your mind. Point the arrow at the first number on the hexagon, and then move the arrow the second number of points clockwise around the hexagon.)","response_type":"free","response_choices":[],"correct_response":"2","response":"2","explain":false,"explanation":"","explanation_history":[],"orientation_history":[[0]],"response_history":["6","2"],"rt":14371,"trial_type":"polygon-arrow-question","trial_index":0,"trial_index_global":9,"time_elapsed":335300,"internal_chunk_id":"0-0.3-0"},{"nsides":6,"feedback":"Correct! 1 <img src=./image s/hexagon_symbol.png style=width:14px;height:14px> 1 = 2 because 1 step clockwise on the hexagon from 1 brings us to 2. Equivalently, 1 + 1 = 2 and 2 is less than 6.","orientation_history":[0],"rt":312332,"trial_type":"polygon-arrow-feedback","trial_index":0,"trial_index_global":10,"time_elapsed":647633,"internal_chunk_id":"0-0.3-0"},{"nsides":6,"question":"What is 3 <img src=./images/hexagon_symbol.png style=width:14px;height:14px> 0? Try to solve this problem using the arithmetic technique. <br /><br /> (Remember, to perform <img src=./images/hexagon_symbol.png style=width:14px;height:14px> using arithmetic, you start with the first number, and then add the second one to it. If the sum is smaller than 6, that's your result. If the sum is 6 or bigger, you subtract 6 to get your result.)","response_type":"free","response_choices":[],"correct_response":"3","response":"3","explain":false,"explanation":"","explanation_history":[],"orientation_history":[[0]],"response_history":["3"],"rt":4339,"trial_type":"polygon-arrow-question","trial_index":0,"trial_index_global":11,"time_elapsed":651973,"internal_chunk_id":"0-0.3-0"},{"nsides":6,"feedback":"Correct! 3 <img src=./images/hexagon_symbol.png style=width:14px;height:14px> 0 = 3 because 3 + 0 = 3 and 3 - 6 = 3.  Equivalently, 0 steps clockwise on the hexagon from 3 brings us to 3.","orientation_history":[0],"rt":844,"trial_type":"polygon-arrow-feedback","trial_index":0,"trial_index_global":12,"time_elapsed":652817,"internal_chunk_id":"0-0.3-0"},{"nsides":6,"question":"What is 4 <img src=./images/hexagon_symbol.png style=width:14px;height:14px> 4? Try to solve this problem using the hexagon. <br /><br /> (Remember, to perform <img src=./images/hexagon_symbol.png style=width:14px;height:14px> on the hexagon, you can use the interactive diagram on the right, or perform the operation in your mind. Point the arrow at the first number on the hexagon, and then move the  arrow th e second number of points clockwise around the hexagon.)","response_type":"free","response_choices":[],"correct_response":"2","response":"2","explain":false,"explanation":"","explanation_history":[],"orientation_history":[[0]],"response_history":["2"],"rt":12634,"trial_type":"polygon-arrow-question","trial_index":0,"trial_index_global":13,"time_elapsed":665452,"internal_chunk_id":"0-0.3-0"},{"nsides":6,"feedback":"Correct! 4 <img src=./images/hexagon_symbol.png style=width:14px;height:14px> 4 = 2 because 4 steps clockwise on the hexagon from 4 brings us to 2. Equivalently, 4 + 4 = 8 and 8 - 6 = 2.","orientation_history":[0],"rt":173720,"trial_type":"polygon-arrow-feedback","trial_index":0,"trial_index_global":14,"time_elapsed":839172,"internal_chunk_id":"0-0.3-0"},{"nsides":6,"question":"What is 1 <img src=./images/hexagon_symbol.png style=width:14px;height:14px> 3? Try to solve this problem using the arithmetic technique. <br /><br /> (Remember, to perform < img src= ./images/hexagon_symbol.png style=width:14px;height:14px> by arithmetic, you start with the first number, and then add the second one to it. If the sum is smaller than 6, that's your result. If the sum is 6 or bigger, you subtract 6 to get your result.)","response_type":"free","response_choices":[],"correct_response":"4","response":"4","explain":false,"explanation":"","explanation_history":[],"orientation_history":[[0]],"response_history":["4"],"rt":5255,"trial_type":"polygon-arrow-question","trial_index":0,"trial_index_global":15,"time_elapsed":844428,"internal_chunk_id":"0-0.3-0"},{"nsides":6,"feedback":"Correct! 1 <img src=./images/hexagon_symbol.png style=width:14px;height:14px> 3 = 4 because 1 + 3 = 4 and 4 - 6 = 4.  Equivalently, 3 steps clockwise on the hexagon from 1 brings us to 4.","orientation_history":[0],"rt":1054,"trial_type":"polygon-arrow-feedback","trial_index":0,"trial_index_global":16,"time_elapsed":845483,"internal_chunk_id":"0-0.3-0"},{"nsides":6,"question":"What is 4 <img src=./images/hexagon_symbol.png style=width:14px;height:14px> 3? <br /><br /> (Remember, to perform <img src=./images/hexagon_symbol.png style=width:14px;height:14px>, you can either use a method based on the hexagon at right, or a method based on arithmetic.<br /><br /><b>Hexagon method:</b> you can use the interactive diagram on the right, or perform the operation in your mind. Point the arrow at the first number, then move the arrow the second number of points clockwise around the hexagon. The number the arrow arrives at is your result. <br /><br /><b>Arithmetic method:</b> you start with the first number, and then add the second one to it. If the sum is smaller than 6, that's your result. If the sum is 6 or bigger, you subtract 6 to get your result.)","response_type":"free","response_choices":[],"correct_response":"1","response":"1","explain":false,"explanation":"","explanation_history":[],"orientation_history":[[0]],"response_history":["1"],"rt":6599,"trial_type":"polygon-arrow-question","trial_index":0,"trial_index_global":17,"time_elapsed":852083,"internal_chunk_id":"0-0.3-0"},{"nsides":6,"feedback":"Correct! 4 <img src=./images/hexagon_symbol.png style=width:14px;height:14px> 3 = 1 because 3 steps clockwise on the hexagon from 4 brings us to 1. Equivalently, 4 + 3 = 7 and 7 - 6 = 1.","orientation_history":[0],"rt":903,"trial_type":"polygon-arrow-feedback","trial_index":0,"trial_index_global":18,"time_elapsed":852987,"internal_chunk_id":"0-0.3-0"},{"nsides":6,"question":"What is 0 <img src=./images/hexagon_symbol.png style=width:14px;height:14px> 5? <br /><br /> (Remember, to perform <img src=./images/hexagon_symbol.png style=width:14px;height:14px>, you can either use a method based on the hexagon at right, or a method based on arithmetic.<br /><br /><b>Hexagon method:</b> you can use the interactive diagram on the right, or perform the operation in your mind. Point the arrow a t the fi rst number, then move the arrow the second number of points clockwise around the hexagon. The number the arrow arrives at is your result. <br /><br /><b>Arithmetic method:</b> you start with the first number, and then add the second one to it. If the sum is smaller than 6, that's your result. If the sum is 6 or bigger, you subtract 6 to get your result.)","response_type":"free","response_choices":[],"correct_response":"5","response":"5","explain":false,"explanation":"","explanation_history":[],"orientation_history":[[0]],"response_history":["5"],"rt":7267,"trial_type":"polygon-arrow-question","trial_index":0,"trial_index_global":19,"time_elapsed":860255,"internal_chunk_id":"0-0.3-0"},{"nsides":6,"feedback":"Correct! 0 <img src=./images/hexagon_symbol.png style=width:14px;height:14px> 5 = 5 because 5 steps clockwise on the hexagon from 0 brings us to 5. Equivalently, 0 + 5 = 5 and 5 is less than 6.","orientation_history":[0],"rt":6279,"trial_type":"polygon-arrow-feedb ack","trial_index":0,"trial_index_global":20,"time_elapsed":866535,"internal_chunk_id":"0-0.3-0"},{"nsides":6,"question":"What is 2 <img src=./images/hexagon_symbol.png style=width:14px;height:14px> 5? <br /><br /> (Remember, to perform <img src=./images/hexagon_symbol.png style=width:14px;height:14px>, you can either use a method based on the hexagon at right, or a method based on arithmetic.<br /><br /><b>Hexagon method:</b> you can use the interactive diagram on the right, or perform the operation in your mind. Point the arrow at the first number, then move the arrow the second number of points clockwise around the hexagon. The number the arrow arrives at is your result. <br /><br /><b>Arithmetic method:</b> you start with the first number, and then add the second one to it. If the sum is smaller than 6, that's your result. If the sum is 6 or bigger, you subtract 6 to get your result.)","response_type":"free","response_choices":[],"correct_response":"1","response":"1","explain":false,"explanation":"","explanation_history":[],"orientation_history":[[0]],"response_history":["1","1"],"rt":22696,"trial_type":"polygon-arrow-question","trial_index":0,"trial_index_global":21,"time_elapsed":889231,"internal_chunk_id":"0-0.3-0"},{"nsides":6,"feedback":"Correct! 2 <img src=./images/hexagon_symbol.png style=width:14px;height:14px> 5 = 1 because 5 steps clockwise on the hexagon from 2 brings us to 1. Equivalently, 2 + 5 = 7 and 7 - 6 = 1.","orientation_history":[0],"rt":998,"trial_type":"polygon-arrow-feedback","trial_index":0,"trial_index_global":22,"time_elapsed":890230,"internal_chunk_id":"0-0.3-0"},{"nsides":6,"instructions":"Now we're going to discuss a couple special properties of this new operation, <img src=./images/hexagon_symbol.png style=width:14px;height:14px> that we've learned. First, notice that the number 0 behaves in a special way under <img src=./images/hexagon_symbol.png style=width:14px;height:14px>. Whenever  we combi ne 0 with anything else, we get that same thing back. We'll say that 0 is the <i>identity</i> under <img src=./images/hexagon_symbol.png style=width:14px;height:14px>, because when you combine it with something it gives you that identical thing back.","orientation_history":[0],"rt":8152,"trial_type":"polygon-arrow-instructions","trial_index":0,"trial_index_global":23,"time_elapsed":898386,"internal_chunk_id":"0-0"},{"nsides":6,"instructions":"Now that we know 0 is the identity under <img src=./images/hexagon_symbol.png style=width:14px;height:14px>, we're going to make a new definition. We'll say that the <i>inverse</i> of a number is the element that you combine with it to produce the identity. For example, 5 <img src=./images/hexagon_symbol.png style=width:14px;height:14px> 1 = 0, so we say 1 is the inverse of 5 under <img src=./images/hexagon_symbol.png style=width:14px;height:14px>, (remember 0 is the identity under <img src=./images/hex agon_sym bol.png style=width:14px;height:14px>). Similarly, 3 is its own inverse under <img src=./images/hexagon_symbol.png style=width:14px;height:14px>, because 3 <img src=./images/hexagon_symbol.png style=width:14px;height:14px> 3 = 0.","orientation_history":[0],"rt":17271,"trial_type":"polygon-arrow-instructions","trial_index":0,"trial_index_global":24,"time_elapsed":915658,"internal_chunk_id":"0-0"},{"nsides":6,"question":"Now you try! What is the inverse of 4 under <img src=./images/hexagon_symbol.png style=width:14px;height:14px>? <br /><br /> (Remember, the inverse of an element is the thing which you combine with it to produce the identity.)","response_type":"free","response_choices":[],"correct_response":"2","response":"1","explain":false,"explanation":"","explanation_history":[],"orientation_history":[[0]],"response_history":["1"],"rt":14604,"trial_type":"polygon-arrow-question","trial_index":0,"trial_index_global":25,"time_elapsed":930262,"internal_chunk_id":"0-0.7-0"},{"nsides":6,"feedback":"Sorry, that was incorrect. The inverse of 4 under <img src=./images/hexagon_symbol.png style=width:14px;height:14px> is 2 because 4 <img src=./images/hexagon_symbol.png style=width:14px;height:14px> 2 = 0, and 0 is the identity under <img src=./images/hexagon_symbol.png style=width:14px;height:14px>.","orientation_history":[0],"rt":4559,"trial_type":"polygon-arrow-feedback","trial_index":0,"trial_index_global":26,"time_elapsed":934821,"internal_chunk_id":"0-0.7-0"},{"nsides":6,"question":"What is the inverse of 1 under <img src=./images/hexagon_symbol.png style=width:14px;height:14px>? <br /><br /> (Remember, the inverse of an element is the thing which you combine with it to produce the identity.)","response_type":"free","response_choices":[],"correct_response":"5","response":"5","explain":false,"explanation":"","explanation_history":[],"orientation_history":[[0]],"response_history":["5"],"rt":10956,"trial_type":"polygon-arrow-question","trial_index":0,"trial_index_global":27,"time_elapsed":945778,"internal_chunk_id":"0-0.7-0"},{"nsides":6,"feedback":"Correct! The inverse of 1 under <img src=./images/hexagon_symbol.png style=width:14px;height:14px> is 5 because 1 <img src=./images/hexagon_symbol.png style=width:14px;height:14px> 5 = 0, and 0 is the identity under <img src=./images/hexagon_symbol.png style=width:14px;height:14px>.","orientation_history":[0],"rt":715,"trial_type":"polygon-arrow-feedback","trial_index":0,"trial_index_global":28,"time_elapsed":946494,"internal_chunk_id":"0-0.7-0"},{"nsides":6,"question":"What is the inverse of 3 under <img src=./images/hexagon_symbol.png style=width:14px;height:14px>? <br /><br /> (Remember, the inverse of an element is the thing which you combine with it to produce the identity.)","response_type":"free","response_choices":[],"correct_response":"3","response":"3","explain":false,"explanation":"","explanation_history":[],"orientation_history":[[0]],"response_history":["3"],"rt":2392,"trial_type":"polygon-arrow-question","trial_index":0,"trial_index_global":29,"time_elapsed":948886,"internal_chunk_id":"0-0.7-0"},{"nsides":6,"feedback":"Correct! The inverse of 3 under <img src=./images/hexagon_symbol.png style=width:14px;height:14px> is 3 because 3 <img src=./images/hexagon_symbol.png style=width:14px;height:14px> 3 = 0, and 0 is the identity under <img src=./images/hexagon_symbol.png style=width:14px;height:14px>.","orientation_history":[0],"rt":695,"trial_type":"polygon-arrow-feedback","trial_index":0,"trial_index_global":30,"time_elapsed":949581,"internal_chunk_id":"0-0.7-0"},{"nsides":6,"question":"What is the inverse of 2 under <img src=./images/hexagon_symbol.png style=width:14px;height:14px>? <br /><br /> (Remember, the inverse of an element is the thing which you combine with it to produce the identity.)","response_type":"free","response_choices":[],"correct_response":"4","response":"4","explain":false,"explanation":"","explanation_history":[],"orientation_history":[[0]],"response_history":["4"],"rt":2151,"trial_type":"polygon-arrow-question","trial_index":0,"trial_index_global":31,"time_elapsed":951733,"internal_chunk_id":"0-0.7-0"},{"nsides":6,"feedback":"Correct! The inverse of 2 under <img src=./images/hexagon_symbol.png style=width:14px;height:14px> is 4 because 2 <img src=./images/hexagon_symbol.png style=width:14px;height:14px> 4 = 0, and 0 is the identity under <img src=./images/hexagon_symbol.png style=width:14px;height:14px>.","orientation_history":[0],"rt":736,"trial_type":"polygon-arrow-feedback","trial_index":0,"trial_index_global":32,"time_elapsed":952469,"internal_chunk_id":"0-0.7-0"},{"nsides":6,"question":"What is the inverse of 0 under <img src=./images/hexagon_symbol.png style=width:14px;height:14px>? <br /><br /> (Remember, the inverse of an element is the thing whic h you co mbine with it to produce the identity.)","response_type":"free","response_choices":[],"correct_response":"0","response":"6","explain":false,"explanation":"","explanation_history":[],"orientation_history":[[0]],"response_history":["1","0","6"],"rt":7835,"trial_type":"polygon-arrow-question","trial_index":0,"trial_index_global":33,"time_elapsed":960304,"internal_chunk_id":"0-0.7-0"},{"nsides":6,"feedback":"Sorry, that was incorrect. The inverse of 0 under <img src=./images/hexagon_symbol.png style=width:14px;height:14px> is 0 because 0 <img src=./images/hexagon_symbol.png style=width:14px;height:14px> 0 = 0, and 0 is the identity under <img src=./images/hexagon_symbol.png style=width:14px;height:14px>.","orientation_history":[0],"rt":2295,"trial_type":"polygon-arrow-feedback","trial_index":0,"trial_index_global":34,"time_elapsed":962600,"internal_chunk_id":"0-0.7-0"},{"nsides":6,"instructions":"It is also possible to successively apply <img src=./imag es/hexag on_symbol.png style=width:14px;height:14px>, and the operation can simply be performed starting with the left-most pair. For example, 2 <img src=./images/hexagon_symbol.png style=width:14px;height:14px> 3 <img src=./images/hexagon_symbol.png style=width:14px;height:14px> 4 = 5 <img src=./images/hexagon_symbol.png style=width:14px;height:14px> 4 = 3.","orientation_history":[0],"rt":160781,"trial_type":"polygon-arrow-instructions","trial_index":0,"trial_index_global":35,"time_elapsed":1123382,"internal_chunk_id":"0-0"},{"nsides":6,"instructions":"We have one last definition to learn today, using the successive operations we just learned. Let's start with an example. Under our operation <img src=./images/hexagon_symbol.png style=width:14px;height:14px> we can make every other number using just 1: 2 = 1 <img src=./images/hexagon_symbol.png style=width:14px;height:14px> 1, 3 = 1 <img src=./images/hexagon_symbol.png style=width:1 4px;heig ht:14px> 1 <img src=./images/hexagon_symbol.png style=width:14px;height:14px> 1, 4 = 1 <img src=./images/hexagon_symbol.png style=width:14px;height:14px> 1 <img src=./images/hexagon_symbol.png style=width:14px;height:14px> 1 <img src=./images/hexagon_symbol.png style=width:14px;height:14px> 1, 5 = 1 <img src=./images/hexagon_symbol.png style=width:14px;height:14px> 1 <img src=./images/hexagon_symbol.png style=width:14px;height:14px> 1 <img src=./images/hexagon_symbol.png style=width:14px;height:14px> 1 <img src=./images/hexagon_symbol.png style=width:14px;height:14px> 1, and 0 = 1 <img src=./images/hexagon_symbol.png style=width:14px;height:14px> 1 <img src=./images/hexagon_symbol.png style=width:14px;height:14px> 1 <img src=./images/hexagon_symbol.png style=width:14px;height:14px> 1 <img src=./images/hexagon_symbol.png style=width:14px;height:14px> 1 <img src=./images/hexagon _symbol. png style=width:14px;height:14px> 1. Because 1 can make every other element under <img src=./images/hexagon_symbol.png style=width:14px;height:14px>, we say that 1 is a <i>generator</i> under <img src=./images/hexagon_symbol.png style=width:14px;height:14px>. <br /><br /> However, 2 is not a generator under <img src=./images/hexagon_symbol.png style=width:14px;height:14px>, because 4 = 2 <img src=./images/hexagon_symbol.png style=width:14px;height:14px> 2, and 0 = 2 <img src=./images/hexagon_symbol.png style=width:14px;height:14px> 2 <img src=./images/hexagon_symbol.png style=width:14px;height:14px> 2, but there is no way to make 1, 3, or 5 using just 2.","orientation_history":[0],"rt":38310,"trial_type":"polygon-arrow-instructions","trial_index":0,"trial_index_global":36,"time_elapsed":1161693,"internal_chunk_id":"0-0"},{"nsides":6,"question":"Now you try! Is 3 a generator under <img src=./images/hexagon_symbol.png s tyle=w idth:14px;height:14px>? <br /><br /> (Remember, a generator is an element which can make every other element.)","response_type":"multi","response_choices":["Yes","No"],"correct_response":"No","response":"No","explain":false,"explanation":"","explanation_history":[],"orientation_history":[[0]],"response_history":["No"],"rt":12175,"trial_type":"polygon-arrow-question","trial_index":0,"trial_index_global":37,"time_elapsed":1173869,"internal_chunk_id":"0-0.10-0"},{"nsides":6,"feedback":"Correct! 3 is not a generator under <img src=./images/hexagon_symbol.png style=width:14px;height:14px>, because 3 = 3, 0 = 3 <img src=./images/hexagon_symbol.png style=width:14px;height:14px> 3, but there is no way to make 1, 2, 4, or 5 using just 3.","orientation_history":[0],"rt":5770,"trial_type":"polygon-arrow-feedback","trial_index":0,"trial_index_global":38,"time_elapsed":1179640,"internal_chunk_id":"0-0.10-0"},{"nsides":6,"question":"Is 5 a generator under <img src=./im ages/hex agon_symbol.png style=width:14px;height:14px>? <br /><br /> (Remember, a generator is an element which can make every other element.)","response_type":"multi","response_choices":["Yes","No"],"correct_response":"Yes","response":"No","explain":false,"explanation":"","explanation_history":[],"orientation_history":[[0]],"response_history":["No"],"rt":4891,"trial_type":"polygon-arrow-question","trial_index":0,"trial_index_global":39,"time_elapsed":1184532,"internal_chunk_id":"0-0.10-0"},{"nsides":6,"feedback":"Sorry, that's incorrect. 5 is a generator under <img src=./images/hexagon_symbol.png style=width:14px;height:14px>, because 5 = 5, 4 = 5 <img src=./images/hexagon_symbol.png style=width:14px;height:14px> 5, 3 = 5 <img src=./images/hexagon_symbol.png style=width:14px;height:14px> 5 <img src=./images/hexagon_symbol.png style=width:14px;height:14px> 5, 2 = 5 <img src=./images/hexagon_symbol.png style=width:14px;height:14px> 5 <img  src=./ images/hexagon_symbol.png style=width:14px;height:14px> 5 <img src=./images/hexagon_symbol.png style=width:14px;height:14px> 5, 1 = 5 <img src=./images/hexagon_symbol.png style=width:14px;height:14px> 5 <img src=./images/hexagon_symbol.png style=width:14px;height:14px> 5 <img src=./images/hexagon_symbol.png style=width:14px;height:14px> 5 <img src=./images/hexagon_symbol.png style=width:14px;height:14px> 5, and 0 = 5 <img src=./images/hexagon_symbol.png style=width:14px;height:14px> 5 <img src=./images/hexagon_symbol.png style=width:14px;height:14px> 5 <img src=./images/hexagon_symbol.png style=width:14px;height:14px> 5 <img src=./images/hexagon_symbol.png style=width:14px;height:14px> 5 <img src=./images/hexagon_symbol.png style=width:14px;height:14px> 5, so you can make all of the numbers under <img src=./images/hexagon_symbol.png style=width:14px;height:14px> using 5","orientation_history":[0],"rt":12678,"trial_type":"polygon-arrow-feedback","trial_index":0,"trial_index_global":40,"time_elapsed":1197211,"internal_chunk_id":"0-0.10-0"},{"nsides":6,"question":"Is 4 a generator under <img src=./images/hexagon_symbol.png style=width:14px;height:14px>? <br /><br /> (Remember, a generator is an element which can make every other element.)","response_type":"multi","response_choices":["Yes","No"],"correct_response":"No","response":"No","explain":false,"explanation":"","explanation_history":[],"orientation_history":[[0]],"response_history":["No"],"rt":3465,"trial_type":"polygon-arrow-question","trial_index":0,"trial_index_global":41,"time_elapsed":1200677,"internal_chunk_id":"0-0.10-0"},{"nsides":6,"feedback":"Correct! 4 is not a generator under <img src=./images/hexagon_symbol.png style=width:14px;height:14px>, because 4 = 4, 2 = 4 <img src=./images/hexagon_symbol.png style=width:14px;height:14px> 4, and 0 = 4 <img src=./images/hexagon_sym bol.png style=width:14px;height:14px> 4 <img src=./images/hexagon_symbol.png style=width:14px;height:14px> 4, but there is no way to make 1, 3, or 5 using just 4.","orientation_history":[0],"rt":2444,"trial_type":"polygon-arrow-feedback","trial_index":0,"trial_index_global":42,"time_elapsed":1203121,"internal_chunk_id":"0-0.10-0"},{"nsides":6,"question":"Is 0 a generator under <img src=./images/hexagon_symbol.png style=width:14px;height:14px>? <br /><br /> (Remember, a generator is an element which can make every other element.)","response_type":"multi","response_choices":["Yes","No"],"correct_response":"No","response":"No","explain":false,"explanation":"","explanation_history":[],"orientation_history":[[0]],"response_history":["No"],"rt":2551,"trial_type":"polygon-arrow-question","trial_index":0,"trial_index_global":43,"time_elapsed":1205673,"internal_chunk_id":"0-0.10-0"},{"nsides":6,"feedback":"Correct! 0 is not a generator under <img src=./images/hexagon_ symbol.p ng style=width:14px;height:14px>, because 0 = 0, but there is no way to make 1, 2, 3, 4, or 5 using just 0.","orientation_history":[0],"rt":1964,"trial_type":"polygon-arrow-feedback","trial_index":0,"trial_index_global":44,"time_elapsed":1207637,"internal_chunk_id":"0-0.10-0"},{"nsides":9,"instructions":"Now we are going to ask you some questions about a new operation, <img src=./images/nonagon_symbol.png style=width:14px;height:14px>, on the numbers 0, 1, 2, 3, 4, 5, 6, 7, 8. It works exactly like <img src=./images/hexagon_symbol.png style=width:14px;height:14px>, except now you use the nonagon shown at the right. Equivalently, after adding the two numbers you subtract 9 if your result is 9 or greater.<br /><br />Do you see how the different ways of performing <img src=./images/nonagon_symbol.png style=width:14px;height:14px> give the same result, just like with <img src=./images/hexagon_symbol.png style=width:14px;height:14px>? By labe ling the  points of the nonagon with the numbers from 0 to 8, we ensure that when we combine two numbers under <img src=./images/nonagon_symbol.png style=width:14px;height:14px>, we only produce numbers between 0 and 8. When we use the arithmetic strategy, adding the second number to the first mimics counting around the nonagon, and subtracting 9 each time we get above 8 makes sure the results correspond to the numbers on the points of the nonagon.<br /><br />We'll give you one practice question with feedback to make sure you understand the new operation. After that, try to complete the remaining questions as accurately as possible.","orientation_history":[0],"rt":12611,"trial_type":"polygon-arrow-instructions","trial_index":0,"trial_index_global":45,"time_elapsed":1220249,"internal_chunk_id":"0-0"},{"nsides":9,"question":"Practice: What is 5 <img src=./images/nonagon_symbol.png style=width:14px;height:14px> 5?","response_type":"free","response_choices":[],"correct_response":"1","response":"1","explain":false,"explanation":"","explanation_history":[],"orientation_history":[[0]],"response_history":["1"],"rt":10635,"trial_type":"polygon-arrow-question","trial_index":0,"trial_index_global":46,"time_elapsed":1230884,"internal_chunk_id":"0-0.12-0"},{"nsides":9,"feedback":"Correct! 5 <img src=./images/nonagon_symbol.png style=width:14px;height:14px> 5 = 1 because 5 steps clockwise on the nonagon from 5 brings us to 1. Equivalently, 5 + 5 = 10 and 10 - 9 = 1.","orientation_history":[0],"rt":727,"trial_type":"polygon-arrow-feedback","trial_index":0,"trial_index_global":47,"time_elapsed":1231612,"internal_chunk_id":"0-0.12-0"},{"nsides":9,"question":"What is 3 <img src=./images/nonagon_symbol.png style=width:14px;height:14px> 3?","response_type":"free","response_choices":[],"correct_response":"6","response":"6","explain":false,"explanation":"","explanation_history":[],"orientation_history":[[0]],"response_history":["6"],"rt":4811,"trial_type":"po lygon-arrow-question","trial_index":0,"trial_index_global":48,"time_elapsed":1236424,"internal_chunk_id":"0-0.12-0"},{"nsides":9,"question":"What is 7 <img src=./images/nonagon_symbol.png style=width:14px;height:14px> 4?","response_type":"free","response_choices":[],"correct_response":"2","response":"3","explain":false,"explanation":"","explanation_history":[],"orientation_history":[[0]],"response_history":["3"],"rt":3811,"trial_type":"polygon-arrow-question","trial_index":0,"trial_index_global":49,"time_elapsed":1240236,"internal_chunk_id":"0-0.12-0"},{"nsides":9,"question":"What is 1 <img src=./images/nonagon_symbol.png style=width:14px;height:14px> 8?","response_type":"free","response_choices":[],"correct_response":"0","response":"9","explain":false,"explanation":"","explanation_history":[],"orientation_history":[[0]],"response_history":["9"],"rt":13463,"trial_type":"polygon-arrow-question","trial_index":0,"trial_index_global":50,"time_elapsed":1253700,"internal_chunk_id":"0-0.12-0"},{"nsides":9,"question":"What is 5 <img src=./images/nonagon_symbol.png style=width:14px;height:14px> 4?","response_type":"free","response_choices":[],"correct_response":"0","response":"9","explain":false,"explanation":"","explanation_history":[],"orientation_history":[[0]],"response_history":["9"],"rt":3348,"trial_type":"polygon-arrow-question","trial_index":0,"trial_index_global":51,"time_elapsed":1257048,"internal_chunk_id":"0-0.12-0"},{"nsides":9,"question":"What is 6 <img src=./images/nonagon_symbol.png style=width:14px;height:14px> 6?","response_type":"free","response_choices":[],"correct_response":"3","response":"3","explain":false,"explanation":"","explanation_history":[],"orientation_history":[[0]],"response_history":["3"],"rt":3048,"trial_type":"polygon-arrow-question","trial_index":0,"trial_index_global":52,"time_elapsed":1260096,"internal_chunk_id":"0-0.12-0"},{"nsides":9,"instructions":"On the following question, and several o thers la ter in the HIT, we will ask you to explain how you got your answer. On these questions, you will be given one box for your answer to the question, and a second for your explanation. Please explain your thought process in as much detail as possible (at least one sentence, and more if you can).","orientation_history":[0],"rt":4794,"trial_type":"polygon-arrow-instructions","trial_index":0,"trial_index_global":53,"time_elapsed":1264892,"internal_chunk_id":"0-0.12-0"},{"nsides":9,"question":"What is 4 <img src=./images/nonagon_symbol.png style=width:14px;height:14px> 1? Please explain in words how you got your answer.","response_type":"free","response_choices":[],"correct_response":"5","response":"5","explain":true,"explanation":"Usiing arithmetic, 4+1=5 and it is less than 9 so it stays as is.","explanation_history":["Usiing arithmetic, 4+1= ","Usiing arithmetic, 4+1=5 and it is less than 9 so it stays asi","Usiing arithmetic, 4+1=5 and it is less than 9 so it stays as i s."],"orientation_history":[[0]],"response_history":["5"],"rt":35106,"trial_type":"polygon-arrow-question","trial_index":0,"trial_index_global":54,"time_elapsed":1299998,"internal_chunk_id":"0-0.12-0"},{"nsides":9,"question":"What is 8 <img src=./images/nonagon_symbol.png style=width:14px;height:14px> 4? Please explain in words how you got your answer.","response_type":"free","response_choices":[],"correct_response":"3","response":"3","explain":true,"explanation":"Using arithmetic, 8+4=12, which is more than 9 so we subtract 9 and get 3.","explanation_history":["Using arithmetic, 8 = 4","Using arithmetic, 8 = ","Using arithmetic, 8 == 4","Using arithmetic, 8 == ","Using arithmetic, 8 ==","Using arithmetic, 8 =","Using arithmetic, 8 = +4","Using arithmetic, 8 =+4","Using arithmetic, 8 +4","Using arithmetic, 8+4=12, which is more than 9 so we subtract 9 and get 3."],"orientation_history":[[0]],"response_history":["3"],"rt":79361,"trial_type":"polygon-arrow-question","trial_index":0,"trial_index_global":55,"time_elapsed":1379360,"internal_chunk_id":"0-0.12-0"},{"nsides":9,"question":"What is the identity under <img src=./images/nonagon_symbol.png style=width:14px;height:14px>? Please explain in words how you got your answer.","response_type":"free","response_choices":[],"correct_response":"0","response":"0","explain":true,"explanation":"The identity under 9 is still zero, under the same rules as before.","explanation_history":["The identity under 9 is still zero, under the same rules as before."],"orientation_history":[[0]],"response_history":["The identity under 9 is still zero.","The identity under 9 is still zero, under the same run","The identity under 9 is still zero, under the same rules as before.","0"],"rt":691712,"trial_type":"polygon-arrow-question","trial_index":0,"trial_index_global":56,"time_elapsed":2071073,"internal_chunk_id":"0-0.12-0"},{"nsides":9,"question":"What is the inverse of 5 under <img src=./images/nonagon_symbol.png  style= width:14px;height:14px>?","response_type":"free","response_choices":[],"correct_response":"4","response":"1","explain":false,"explanation":"","explanation_history":[],"orientation_history":[[0]],"response_history":["1"],"rt":111985,"trial_type":"polygon-arrow-question","trial_index":0,"trial_index_global":57,"time_elapsed":2183060,"internal_chunk_id":"0-0.12-0"},{"nsides":9,"question":"What is the inverse of 2 under <img src=./images/nonagon_symbol.png style=width:14px;height:14px>?","response_type":"free","response_choices":[],"correct_response":"7","response":"6","explain":false,"explanation":"","explanation_history":[],"orientation_history":[[0]],"response_history":["6"],"rt":10078,"trial_type":"polygon-arrow-question","trial_index":0,"trial_index_global":58,"time_elapsed":2193139,"internal_chunk_id":"0-0.12-0"},{"nsides":9,"question":"What is the inverse of 0 under <img src=./images/nonagon_symbol.png style=width:14px;height:14px>?","response_type":"fre e","response_choices":[],"correct_response":"0","response":"9","explain":false,"explanation":"","explanation_history":[],"orientation_history":[[0]],"response_history":["9"],"rt":35986,"trial_type":"polygon-arrow-question","trial_index":0,"trial_index_global":59,"time_elapsed":2229126,"internal_chunk_id":"0-0.12-0"},{"nsides":9,"question":"What is the inverse of 3 under <img src=./images/nonagon_symbol.png style=width:14px;height:14px>? Please explain in words how you got your answer.","response_type":"free","response_choices":[],"correct_response":"6","response":"5","explain":true,"explanation":"Because 3+6 =9 and  6+3 = 9.","explanation_history":["Because 3+5 = 8 andf","Because 3+5 = 8 and ","Because 3+6 = 8 and ","Because 3+6 =9 and  6+3 = 9.","Because 3+6 =9 and  6+3 = 9."],"orientation_history":[[0]],"response_history":["5"],"rt":387083,"trial_type":"polygon-arrow-question","trial_index":0,"trial_index_global":60,"time_elapsed":2616209,"internal_chunk_id":"0-0.12-0"},{"nsides":9,"question":"Is 2 a generator under <img src=./images/nonagon_symbol.png style=width:14px;height:14px>? Please explain in words how you got your answer.","response_type":"multi","response_choices":["Yes","No"],"correct_response":"Yes","response":"No","explain":true,"explanation":"Because you cannot make all of the numbers using it.\n","explanation_history":["Because you cannot make all of the numbers using it.\n"],"orientation_history":[[0]],"response_history":["No"],"rt":225765,"trial_type":"polygon-arrow-question","trial_index":0,"trial_index_global":61,"time_elapsed":2841974,"internal_chunk_id":"0-0.12-0"},{"nsides":9,"question":"Is 3 a generator under <img src=./images/nonagon_symbol.png style=width:14px;height:14px>? Please explain in words how you got your answer.","response_type":"multi","response_choices":["Yes","No"],"correct_response":"No","response":"No","explain":true,"explanation":"I am just guessing at this point.  Without access to the instruc tions, I  cannot learn something like this with just one read through.","explanation_history":["I am just guessing at this point.  Withpout","I am just guessing at this point.  Withpou","I am just guessing at this point.  Withpo","I am just guessing at this point.  Withp","I am just guessing at this point.  Without access to the instructions, I cannot learn somt","I am just guessing at this point.  Without access to the instructions, I cannot learn something like this with just one read through."],"orientation_history":[[0]],"response_history":["No"],"rt":53398,"trial_type":"polygon-arrow-question","trial_index":0,"trial_index_global":62,"time_elapsed":2895372,"internal_chunk_id":"0-0.12-0"},{"nsides":9,"question":"Is 5 a generator under <img src=./images/nonagon_symbol.png style=width:14px;height:14px>? Please explain in words how you got your answer.","response_type":"multi","response_choices":["Yes","No"],"correct_response":"Yes","response":"No","explain":true,"explanation":"Again , I am just guessing.  I am having trouble with the 9's.","explanation_history":["Again, I am just guessing.  I am having trouble with the 9's."],"orientation_history":[[0]],"response_history":["No"],"rt":27166,"trial_type":"polygon-arrow-question","trial_index":0,"trial_index_global":63,"time_elapsed":2922538,"internal_chunk_id":"0-0.12-0"},{"nsides":9,"question":"Is 6 a generator under <img src=./images/nonagon_symbol.png style=width:14px;height:14px>? Please explain in words how you got your answer.","response_type":"multi","response_choices":["Yes","No"],"correct_response":"No","response":"No","explain":true,"explanation":"Just a wild guess.  I do not understand the operations once we got to the nonagon.","explanation_history":["Just a wild guess.  I do not understand the p","Just a wild guess.  I do not understand the operations once we to","Just a wild guess.  I do not understand the operations once we t","Just a wild guess.  I do not understand the operations  once we  got to the nonagon."],"orientation_history":[[0]],"response_history":["No"],"rt":24442,"trial_type":"polygon-arrow-question","trial_index":0,"trial_index_global":64,"time_elapsed":2946981,"internal_chunk_id":"0-0.12-0"},{"nsides":"n","instructions":"Now we'd like to ask you some questions about <img src=./images/ngon_symbol.png style=width:14px;height:14px>, where n could be any postive counting number. For example, n could be 3, and the polygon a triangle, or n could be any other counting number you can think of, in which case the corresponding polygon would have n sides. Just as before, you can use either the polygon or arithmetic methods. If you need to write the operation, you can use (n), and your answers can include n to stand in for the arbitrary value if necessary. (You can use the polygon at the right to think, but it doesn't necessarily correspond to the real polygon, which is why we've left most of it dashed.)","orientation_history":[0],"rt":18877,"trial_type":"polygon-arrow-instructions","trial_index":0,"trial_index_global":65,"time_elapsed":2965860,"internal_chunk_id":"0-0"},{"nsides":"n","question":"What is the formula for the inverse of 1 under <img src=./images/ngon_symbol.png style=width:14px;height:14px>?","response_type":"free","response_choices":[],"correct_response":"n-1","response":"1 n = 1+2 - n","explain":false,"explanation":"","explanation_history":[],"orientation_history":[[0]],"response_history":["1 n = 1+2 =","1 n = 1+2 - n"],"rt":97535,"trial_type":"polygon-arrow-question","trial_index":0,"trial_index_global":66,"time_elapsed":3063396,"internal_chunk_id":"0-0.14-0"},{"nsides":"n","question":"What is the formula for the inverse of an element x under <img src=./images/ngon_symbol.png style=width:14px;height:14px>? Please explain in words how you got your answer.","response_type":"free","response_choices":[],"correct_response":"n-x","response":"x + n = x + x - n","explain":true,"explanation":"I cann ot expla in this in words, it's just based on my limited understanding of this concept.","explanation_history":["I cannot explain this in words, it's just based on mu ","I cannot explain this in words, it's just based on mu","I cannot explain this in words, it's just based on my l","I cannot explain this in words, it's just based on my limited understanding of this concept."],"orientation_history":[[0]],"response_history":["x + ","x +","x +n","x + n = X","x + n = x = x","x + n = x = ","x + n = x =","x + n = x _","x + n = x + x - n"],"rt":59618,"trial_type":"polygon-arrow-question","trial_index":0,"trial_index_global":67,"time_elapsed":3123015,"internal_chunk_id":"0-0.14-0"},{"nsides":"n","question":"Is there a pattern to which elements are generators? How can you know if an element x is a generator under <img src=./images/ngon_symbol.png style=width:14px;height:14px> without seeing whether it can make all the elements?.","response_type":"free","response_choices":[],"correct_response":"","response":"THere is no pattern that I have been able to make out.","explain":false,"explanation":"","explanation_history":[],"orientation_history":[[0]],"response_history":["THere is no pattern that I have been abot ","THere is no pattern that I have been abot","THere is no pattern that I have been abo","THere is no pattern that I have been able to make out."],"rt":14318,"trial_type":"polygon-arrow-question","trial_index":0,"trial_index_global":68,"time_elapsed":3137335,"internal_chunk_id":"0-0.14-0"},{"nsides":"n","question":"True or false: If x is an odd number, it must be a generator under <img src=./images/ngon_symbol.png style=width:14px;height:14px>.","response_type":"multi","response_choices":["True","False"],"correct_response":"False","response":"False","explain":false,"explanation":"","explanation_history":[],"orientation_history":[[0]],"response_history":["False"],"rt":4014,"trial_type":"polygon-arrow-question","trial_index":0,"trial_index_global":69,"time_elapsed":3141350,"internal_chunk_id":"0-0.14-0"},{"nsides":"n","question":"True or false: If x is an even number, it must not be a generator under <img src=./images/ngon_symbol.png style=width:14px;height:14px>.","response_type":"multi","response_choices":["True","False"],"correct_response":"False","response":"False","explain":false,"explanation":"","explanation_history":[],"orientation_history":[[0]],"response_history":["False"],"rt":3309,"trial_type":"polygon-arrow-question","trial_index":0,"trial_index_global":70,"time_elapsed":3144659,"internal_chunk_id":"0-0.14-0"},{"nsides":"n","question":"True or false: If x is not a generator under <img src=./images/ngon_symbol.png style=width:14px;height:14px>, x must be a divisor of n, that is, x must divide n evenly, with no remainder.","response_type":"multi","response_choices":["True","False"],"correct_response":"False","response":"False","explain":false,"explanation":"","explanation_history":[],"orientation_history":[[0]],"response_history":["False"],"rt":6790,"trial_type":"polygon-arrow-question","trial_index":0,"trial_index_global":71,"time_elapsed":3151451,"internal_chunk_id":"0-0.14-0"},{"nsides":"n","question":"True or false: If x is not a generator under <img src=./images/ngon_symbol.png style=width:14px;height:14px>, x must be a multiple of a divisor of n. Please explain in words how you got your answer.","response_type":"multi","response_choices":["True","False"],"correct_response":"True","response":"False","explain":true,"explanation":"Because there is no rigid pattern.","explanation_history":["Because there is no rigid pattern."],"orientation_history":[[0]],"response_history":["False"],"rt":13314,"trial_type":"polygon-arrow-question","trial_index":0,"trial_index_global":72,"time_elapsed":3164766,"internal_chunk_id":"0-0.14-0"},{"nsides":"n","question":"If an element x is a generator under <img src=./images/ngon_symbol.png style=width:14px;height:14px>, is its inverse  a gener ator under <img src=./images/ngon_symbol.png style=width:14px;height:14px> always, sometimes, or never?","response_type":"multi","response_choices":["Always","Sometimes","Never"],"correct_response":"Always","response":"Sometimes","explain":false,"explanation":"","explanation_history":[],"orientation_history":[[0]],"response_history":["Sometimes"],"rt":4388,"trial_type":"polygon-arrow-question","trial_index":0,"trial_index_global":73,"time_elapsed":3169155,"internal_chunk_id":"0-0.14-0"},{"nsides":"n","question":"if an element x is a generator under <img src=./images/ngon_symbol.png style=width:14px;height:14px>, is x <img src=./images/ngon_symbol.png style=width:14px;height:14px> x a generator under <img src=./images/ngon_symbol.png style=width:14px;height:14px> always, sometimes, or never? Please explain in words how you got your answer.","response_type":"multi","response_choices":["Always","Sometimes","Never"],"correct_response":"Sometimes","response":"Sometimes","explain":true,"explanation":"Depending on the number that is represented by x, the answer could be either.","explanation_history":["Depending on the number that is reper","Depending on the number that is repe","Depending on the number that is represented by x, the answer could be with","Depending on the number that is represented by x, the answer could be wit","Depending on the number that is represented by x, the answer could be wi","Depending on the number that is represented by x, the answer could be w","Depending on the number that is represented by x, the answer could be either."],"orientation_history":[[0]],"response_history":["Sometimes"],"rt":34123,"trial_type":"polygon-arrow-question","trial_index":0,"trial_index_global":74,"time_elapsed":3203278,"internal_chunk_id":"0-0.14-0"},{"nsides":"n","question":"If an element x is not a generator under <img src=./images/ngon_symbol.png style=width:14px;height:14px>, is x <img s rc=./i mages/ngon_symbol.png style=width:14px;height:14px> x a generator under <img src=./images/ngon_symbol.png style=width:14px;height:14px> always, sometimes, or never?","response_type":"multi","response_choices":["Always","Sometimes","Never"],"correct_response":"Never","response":"Sometimes","explain":false,"explanation":"","explanation_history":[],"orientation_history":[[0]],"response_history":["Sometimes"],"rt":8435,"trial_type":"polygon-arrow-question","trial_index":0,"trial_index_global":75,"time_elapsed":3211713,"internal_chunk_id":"0-0.14-0"},{"instructions":"Now we'd like you to do a few of the questions and tell us how much you're using the arithmetic and polygon methods to solve them. We'll give you a demonstration of the response screen first.<br /><br />Press continue when you're ready to begin.","rt":3972,"trial_type":"instructions","trial_index":0,"trial_index_global":76,"time_elapsed":3215686,"internal_chunk_id":"0-0.15-0"},{"nsides":9,"added_prompt":"<i>Thi s is a demo response screen. You can respond independently to both questions, so it's okay to say you used both methods.</i><br /><br />","polygon_response":"2","modular_response":"2","rt":9289,"trial_type":"polygon-arrow-which-representation","trial_index":0,"trial_index_global":77,"time_elapsed":3224978,"internal_chunk_id":"0-0.15-0"},{"question":"<i>This is a demo response screen.</i><br /><br />Please describe in as much detail as possible how you used the arithmetic method, polygon method, or both for the problem.","response_type":"free","response_choices":[],"correct_response":"","response":"I prefer using the arithmetic version so I primarily used that.","explain":false,"explanation":"","explanation_history":[],"response_history":["I pore","I por","I po","I prefer using the arithmatic","I prefer using the arithmati","I prefer using the arithmat","I prefer using the arithma","I prefer using the arithmetic verso","I prefer using the arithmetic version so I primarril","I  prefer  using the arithmetic version so I primarri","I prefer using the arithmetic version so I primarr","I prefer using the arithmetic version so I primar","I prefer using the arithmetic version so I primaally","I prefer using the arithmetic version so I primaall","I prefer using the arithmetic version so I primaal","I prefer using the arithmetic version so I primaa","I prefer using the arithmetic version so I primally ","I prefer using the arithmetic version so I primally","I prefer using the arithmetic version so I primall","I prefer using the arithmetic version so I primal","I prefer using the arithmetic version so I primarially ","I prefer using the arithmetic version so I primarially","I prefer using the arithmetic version so I primariall","I prefer using the arithmetic version so I primarial","I prefer using the arithmetic version so I primaria","I prefer using the arithmetic version so I primarilly ","I prefer using the arithmetic version so I primarilly","I prefer using the  arithme tic version so I primarill","I prefer using the arithmetic version so I primaril","I prefer using the arithmetic version so I primarily used that."],"rt":32274,"trial_type":"question","trial_index":0,"trial_index_global":78,"time_elapsed":3257254,"internal_chunk_id":"0-0.15-0"},{"instructions":"Great! Now we have a few questions for you to do (some of which you may have seen earlier), and after each question you will tell us how much you used the polygon and arithmetic methods.<br /><br />Press continue when you're ready to begin.","rt":3361,"trial_type":"instructions","trial_index":0,"trial_index_global":79,"time_elapsed":3260617,"internal_chunk_id":"0-0.15-0"},{"nsides":9,"question":"Please answer the following question:<br /><br />What is the inverse of 4 under <img src=./images/nonagon_symbol.png style=width:14px;height:14px>?","response_type":"free","response_choices":[],"correct_response":"5","response":"8","explain":false,"explanation":"","explanation_history":[],"orientation_history":[[0]],"response_history":["8"],"rt":186746,"trial_type":"polygon-arrow-question","trial_index":0,"trial_index_global":80,"time_elapsed":3447363,"internal_chunk_id":"0-0.15-0"},{"nsides":9,"question":"Please answer the following question:<br /><br />What is the inverse of 4 under <img src=./images/nonagon_symbol.png style=width:14px;height:14px>?","added_prompt":"","polygon_response":"0","modular_response":"4","rt":5663,"trial_type":"polygon-arrow-which-representation","trial_index":0,"trial_index_global":81,"time_elapsed":3453027,"internal_chunk_id":"0-0.15-0"},{"question":"Please describe in as much detail as possible how you used the arithmetic method, polygon method, or both for the problem.","response_type":"free","response_choices":[],"correct_response":"","response":"The arithmetic method, as it's the one I am more comfortable with.","explain":false,"explanation":"","explanation_history":[],"response_history":["The are","The arist","The aris","The ari thmetic pro","The arithmetic pr","The arithmetic pm","The arithmetic p","The arithmetic mow","The arithmetic mo","The arithmetic method, as it's the one I am more compr","The arithmetic method, as it's the one I am more comp","The arithmetic method, as it's the one I am more comfr","The arithmetic method, as it's the one I am more comfpor","The arithmetic method, as it's the one I am more comfpo","The arithmetic method, as it's the one I am more comfp","The arithmetic method, as it's the one I am more comfortable with."],"rt":25342,"trial_type":"question","trial_index":0,"trial_index_global":82,"time_elapsed":3478371,"internal_chunk_id":"0-0.15-0"},{"nsides":9,"question":"Please answer the following question:<br /><br />What is the inverse of 0 under <img src=./images/nonagon_symbol.png style=width:14px;height:14px>?","response_type":"free","response_choices":[],"correct_response":"0","response":"9","explain":false,"explanation":"","explanation_history":[],"orientation_history":[[0]],"response_history":["9"],"rt":11122,"trial_type":"polygon-arrow-question","trial_index":0,"trial_index_global":83,"time_elapsed":3489494,"internal_chunk_id":"0-0.15-0"},{"nsides":9,"question":"Please answer the following question:<br /><br />What is the inverse of 0 under <img src=./images/nonagon_symbol.png style=width:14px;height:14px>?","added_prompt":"","polygon_response":"0","modular_response":"4","rt":3828,"trial_type":"polygon-arrow-which-representation","trial_index":0,"trial_index_global":84,"time_elapsed":3493322,"internal_chunk_id":"0-0.15-0"},{"question":"Please describe in as much detail as possible how you used the arithmetic method, polygon method, or both for the problem.","response_type":"free","response_choices":[],"correct_response":"","response":"The arithmetic method, as it's the one I am more comfortable with.","explain":false,"explanation":"","explanation_history":[],"response_history":["The arithmetic method, as it's the one I am mor e comfor table with."],"rt":1631,"trial_type":"question","trial_index":0,"trial_index_global":85,"time_elapsed":3494954,"internal_chunk_id":"0-0.15-0"},{"nsides":9,"question":"Please answer the following question:<br /><br />Is 4 a generator under <img src=./images/nonagon_symbol.png style=width:14px;height:14px>?","response_type":"Multi","response_choices":["Yes","No"],"correct_response":"Yes","response":"No","explain":false,"explanation":"","explanation_history":[],"orientation_history":[[0]],"response_history":["No"],"rt":4987,"trial_type":"polygon-arrow-question","trial_index":0,"trial_index_global":86,"time_elapsed":3499942,"internal_chunk_id":"0-0.15-0"},{"nsides":9,"question":"Please answer the following question:<br /><br />Is 4 a generator under <img src=./images/nonagon_symbol.png style=width:14px;height:14px>?","added_prompt":"","polygon_response":"0","modular_response":"4","rt":3044,"trial_type":"polygon-arrow-which-representation","trial_index":0,"trial_index_global":87,"time_elapsed":3502986,"internal_chunk_id":"0-0.15-0"},{"question":"Please describe in as much detail as possible how you used the arithmetic method, polygon method, or both for the problem.","response_type":"free","response_choices":[],"correct_response":"","response":"The arithmetic method, as it's the one I am more comfortable with.","explain":false,"explanation":"","explanation_history":[],"response_history":["The arithmetic method, as it's the one I am more comfortable with."],"rt":1626,"trial_type":"question","trial_index":0,"trial_index_global":88,"time_elapsed":3504612,"internal_chunk_id":"0-0.15-0"},{"nsides":"n","question":"Please answer the following question:<br /><br />True or false: If x divides n, it must not be a generator under <img src=./images/ngon_symbol.png style=width:14px;height:14px>.","response_type":"multi","response_choices":["True","False"],"correct_response":"True","response":"False","explain":false,"explanation":"","explanation_history":[],"orientation_history":[[0]],"response_history":["False"],"rt":4744,"trial_type":"polygon-arrow-question","trial_index":0,"trial_index_global":89,"time_elapsed":3509356,"internal_chunk_id":"0-0.15-0"},{"nsides":"n","question":"Please answer the following question:<br /><br />True or false: If x divides n, it must not be a generator under <img src=./images/ngon_symbol.png style=width:14px;height:14px>.","added_prompt":"","polygon_response":"0","modular_response":"4","rt":3416,"trial_type":"polygon-arrow-which-representation","trial_index":0,"trial_index_global":90,"time_elapsed":3512772,"internal_chunk_id":"0-0.15-0"},{"question":"Please describe in as much detail as possible how you used the arithmetic method, polygon method, or both for the problem.","response_type":"free","response_choices":[],"correct_response":"","response":"I don't believe there is a pattern to this, using either method.","explain":false,"explanation":"","explanation_history":[],"response_history":["T here cannot be","I don't believe there is a pett","I don't believe there is a pet","I don't believe there is a pe","I don't believe there is a pattern to ths","I don't believe there is a pattern to th","I don't believe there is a pattern to tis","I don't believe there is a pattern to ti","I don't believe there is a pattern to this, uis","I don't believe there is a pattern to this, ui","I don't believe there is a pattern to this, using either method."],"rt":22088,"trial_type":"question","trial_index":0,"trial_index_global":91,"time_elapsed":3534861,"internal_chunk_id":"0-0.15-0"},{"instructions":"We would like to ask you some questions about your background. Please press Continue to continue.","rt":1870,"trial_type":"instructions","trial_index":0,"trial_index_global":92,"time_elapsed":3536731,"internal_chunk_id":"0-0.16-0"},{"question":"What is your age?","response_type":"free","response_choices":[],"correct_response":"","response":"40","explain":false,"explanation":"","explanation_history":[],"response_history":["40"],"rt":2332,"trial_type":"question","trial_index":0,"trial_index_global":93,"time_elapsed":3539063,"internal_chunk_id":"0-0.16-0"},{"question":"What is your level of education?","response_type":"multi","response_choices":["Did not graduate high school","High school diploma","Some college, no degree","Associates Degree","Bachelors Degree","Some graduate school, no degree","Masters Degree","Doctorate, M.D., etc."],"correct_response":"","response":"Associates Degree","explain":false,"explanation":"","explanation_history":[],"response_history":["Associates Degree"],"rt":2560,"trial_type":"question","trial_index":0,"trial_index_global":94,"time_elapsed":3541623,"internal_chunk_id":"0-0.16-0"},{"question":"What is the most advanced math class you've completed? If you have multiple classes and you're not sure which one is most advanced, please list them.","response_type":"free","response_choices":[],"correct_response":"","response":"Algebra II ","explain":false,"explanation":"","explanation_history":[],"response_history":["Algebra II"],"rt":10815,"trial_type":"question","trial_index":0,"trial_index_global":95,"time_elapsed":3552439,"internal_chunk_id":"0-0.16-0"},{"question":"How familiar are you with the concept of modular arithmetic?","response_type":"multi","response_choices":["1 - never heard of it","2 - heard of it but didn't know what it was","3 - seen it used or explained","4 - used it but not often or recently","5 - used it, remember and understand it"],"correct_response":"1","response":"1 - never heard of it","explain":false,"explanation":"","explanation_history":[],"response_history":["1 - never heard of it"],"rt":3644,"trial_type":"question","trial_index":0,"trial_index_global":96,"time_elapsed":3556083,"internal_chunk_id":"0-0.16-0"},{"question":"How familiar are you with the concept of a mathematical group?","response_type":"multi","response_choices":["1 - never heard of it","2 - heard of it but didn't know w hat it w as","3 - seen it used or explained","4 - used it but not often or recently","5 - used it, remember and understand it"],"correct_response":"1","response":"1 - never heard of it","explain":false,"explanation":"","explanation_history":[],"response_history":["1 - never heard of it"],"rt":2496,"trial_type":"question","trial_index":0,"trial_index_global":97,"time_elapsed":3558579,"internal_chunk_id":"0-0.16-0"},{"question":"Do you feel you learned something from this HIT?","response_type":"multi","response_choices":["1 - not at all","2 - somewhat","3 - definitely"],"correct_response":"1","response":"2 - somewhat","explain":false,"explanation":"","explanation_history":[],"response_history":["2 - somewhat"],"rt":4143,"trial_type":"question","trial_index":0,"trial_index_global":98,"time_elapsed":3562723,"internal_chunk_id":"0-0.16-0"},{"question":"Do you feel you understood the concepts in this HIT?","response_type":"multi","response_choices":["1 - not at all","2 - somewhat","3 - def initely"],"correct_response":"1","response":"1 - not at all","explain":false,"explanation":"","explanation_history":[],"response_history":["1 - not at all"],"rt":6875,"trial_type":"question","trial_index":0,"trial_index_global":99,"time_elapsed":3569599,"internal_chunk_id":"0-0.16-0"},{"question":"Did you enjoy this HIT?","response_type":"multi","response_choices":["1 - not at all","2 - somewhat","3 - definitely"],"correct_response":"1","response":"1 - not at all","explain":false,"explanation":"","explanation_history":[],"response_history":["1 - not at all"],"rt":2608,"trial_type":"question","trial_index":0,"trial_index_global":100,"time_elapsed":3572207,"internal_chunk_id":"0-0.16-0"},{"question":"What is your gender?","response_type":"multi","response_choices":["Female","Male","Other"],"correct_response":"","response":"Male","explain":false,"explanation":"","explanation_history":[],"response_history":["Male"],"rt":2307,"trial_type":"question","trial_index":0,"trial_index_global":101,"time_elapsed":3574514,"internal_chunk_id":"0-0.16-0"},{"question":"What is/are your native language(s)? (The languages spoken in your household when you were a child.)","response_type":"free","response_choices":[],"correct_response":"","response":"English","explain":false,"explanation":"","explanation_history":[],"response_history":["English"],"rt":4220,"trial_type":"question","trial_index":0,"trial_index_global":102,"time_elapsed":3578735,"internal_chunk_id":"0-0.16-0"},{"question":"Did you use pen and paper at any point on this HIT?","response_type":"free","response_choices":[],"correct_response":"","response":"no","explain":false,"explanation":"","explanation_history":[],"response_history":["no"],"rt":2812,"trial_type":"question","trial_index":0,"trial_index_global":103,"time_elapsed":3581547,"internal_chunk_id":"0-0.16-0"},{"question":"Do you have any comments on this HIT?","response_type":"free","response_choices":[],"correct_response":"","response":"There really ought to b e a way  to refer back to the instructions while doing this HIT.  Just one readthrough is not enough for someone of my limited math skills and comments I have seen from others who have also done it are the same.  Also, the pay was abysmal for the effort involved.","explain":false,"explanation":"","explanation_history":[],"response_history":["There really oiu","There really oi","There really ought to be a way to refer back to the instructions whild","There really ought to be a way to refer back to the instructions while doing this HIT.  Just one read ","There really ought to be a way to refer back to the instructions while doing this HIT.  Just one readthrough is not on","There really ought to be a way to refer back to the instructions while doing this HIT.  Just one readthrough is not o","There really ought to be a way to refer back to the instructions while doing this HIT.  Just one readthrough is not enough for one","There really ought to be a way to refer back to the instructions  while do ing this HIT.  Just one readthrough is not enough for on","There really ought to be a way to refer back to the instructions while doing this HIT.  Just one readthrough is not enough for o","There really ought to be a way to refer back to the instructions while doing this HIT.  Just one readthrough is not enough for somone","There really ought to be a way to refer back to the instructions while doing this HIT.  Just one readthrough is not enough for somon","There really ought to be a way to refer back to the instructions while doing this HIT.  Just one readthrough is not enough for somo","There really ought to be a way to refer back to the instructions while doing this HIT.  Just one readthrough is not enough for someone oi","There really ought to be a way to refer back to the instructions while doing this HIT.  Just one readthrough is not enough for someone of my limity","There really ought to be a way to refer back to the instructions while doing this HIT.  Just one readthr ough is  not enough for someone of my limited math t","There really ought to be a way to refer back to the instructions while doing this HIT.  Just one readthrough is not enough for someone of my limited math skills. ","There really ought to be a way to refer back to the instructions while doing this HIT.  Just one readthrough is not enough for someone of my limited math skills.","There really ought to be a way to refer back to the instructions while doing this HIT.  Just one readthrough is not enough for someone of my limited math skills and comments I have seen from others who had","There really ought to be a way to refer back to the instructions while doing this HIT.  Just one readthrough is not enough for someone of my limited math skills and comments I have seen from others who havce","There really ought to be a way to refer back to the instructions while doing this HIT.  Just one readthrough is not enough for someone of my limited math skills and comments I have seen from other s who ha vc","There really ought to be a way to refer back to the instructions while doing this HIT.  Just one readthrough is not enough for someone of my limited math skills and comments I have seen from others who have also done it are the same.  Also, the pay was abysmal for the effor i","There really ought to be a way to refer back to the instructions while doing this HIT.  Just one readthrough is not enough for someone of my limited math skills and comments I have seen from others who have also done it are the same.  Also, the pay was abysmal for the effor ","There really ought to be a way to refer back to the instructions while doing this HIT.  Just one readthrough is not enough for someone of my limited math skills and comments I have seen from others who have also done it are the same.  Also, the pay was abysmal for the effort involced","There really ought to be a way to refer back to the instructions while doing this HIT.  Just one readthrough is not enough for someone of my  limited  math skills and comments I have seen from others who have also done it are the same.  Also, the pay was abysmal for the effort involce","There really ought to be a way to refer back to the instructions while doing this HIT.  Just one readthrough is not enough for someone of my limited math skills and comments I have seen from others who have also done it are the same.  Also, the pay was abysmal for the effort involc","There really ought to be a way to refer back to the instructions while doing this HIT.  Just one readthrough is not enough for someone of my limited math skills and comments I have seen from others who have also done it are the same.  Also, the pay was abysmal for the effort involved."],"rt":104240,"trial_type":"question","trial_index":0,"trial_index_global":104,"time_elapsed":3685788,"internal_chunk_id":"0-0.16-0"}]