[{"nsides":6,"instructions":"Let's define a new operation <img src=./images/hexagon_symbol.png style=width:14px;height:14px>. This operation will give us a way of combining two of the numbers 0, 1, 2, 3, 4, 5 to get another one of them back. Consider the hexagon at the right, where I've labeled each point with one of the numbers. To perform <img src=./images/hexagon_symbol.png style=width:14px;height:14px>, you can use the interactive diagram on the right, or perform the operation in your mind. Point the arrow at the first number on the hexagon by clicking, then click (or click and drag) to move the arrow the second number of points clockwise around the hexagon. The number the arrow arrives at is your result. (The operation is called <img src=./images/hexagon_symbol.png style=width:14px;height:14px> because it uses the hexagon, which has 6 sides.) <br /><br />For example, 3 <img src=./images/hexagon_symbol.png style=width:14px;height:14px> 5 =  2, becau se 5 steps clockwise from 3 on the hexagon brings us to 2. So 3 <img src=./images/hexagon_symbol.png style=width:14px;height:14px> 5 = 2.<br /><br />Similarly, 1 <img src=./images/hexagon_symbol.png style=width:14px;height:14px> 4 = 5, because 4 steps clockwise from 1 brings us to 5. <br /><br />Click Continue when you're ready to move on.","orientation_history":[0],"rt":10202,"trial_type":"polygon-arrow-instructions","trial_index":0,"trial_index_global":1,"time_elapsed":14317,"internal_chunk_id":"0-0"},{"nsides":6,"instructions":"Do you see how <img src=./images/hexagon_symbol.png style=width:14px;height:14px> works? By labeling the points of the hexagon with the numbers from 0 to 5, we ensure that when we combine two numbers under <img src=./images/hexagon_symbol.png style=width:14px;height:14px>, we only produce numbers between 0 and 5.<br /><br />Click Continue when you are ready to move on.","orientation_history":[0],"rt":2009,"trial_type":"polygon-arrow-instructions","trial_index":0,"trial_index_global":2,"time_elapsed":16329,"internal_chunk_id":"0-0"},{"nsides":6,"question":"Now try one on your own! What is 4 <img src=./images/hexagon_symbol.png style=width:14px;height:14px> 5? <br /><br /> (Remember, to perform <img src=./images/hexagon_symbol.png style=width:14px;height:14px>, you can use the interactive diagram on the right, or perform the operation in your mind. Point the arrow at the first number on the hexagon, then move the arrow the second number of points clockwise around the hexagon. The number the arrow arrives at is your result.)","response_type":"free","response_choices":[],"correct_response":"3","response":"3\n","explain":false,"explanation":"","explanation_history":[],"orientation_history":[[0]],"response_history":["3\n"],"rt":7200,"trial_type":"polygon-arrow-question","trial_index":0,"trial_index_global":3,"time_elapsed":23534,"internal_chunk_id":"0-0.3-0"},{"nsides":6,"feedback":"S orry, that was incorrect. 4 <img src=./images/hexagon_symbol.png style=width:14px;height:14px> 5 = 3 because 5 steps clockwise on the hexagon from 4 brings us to 3","orientation_history":[0],"rt":2852,"trial_type":"polygon-arrow-feedback","trial_index":0,"trial_index_global":4,"time_elapsed":26392,"internal_chunk_id":"0-0.3-0"},{"nsides":6,"question":"What is 3 <img src=./images/hexagon_symbol.png style=width:14px;height:14px> 2? <br /><br /> (Remember, to perform <img src=./images/hexagon_symbol.png style=width:14px;height:14px>, you can use the interactive diagram on the right, or perform the operation in your mind. Point the arrow at the first number on the hexagon, then move the arrow the second number of points clockwise around the hexagon. The number the arrow arrives at is your result.)","response_type":"free","response_choices":[],"correct_response":"5","response":"5\n","explain":false,"explanation":"","explanation_history":[],"orientation_history":[[0]],"response_history":["5\n"],"rt":8331,"trial_type":"polygon-arrow-question","trial_index":0,"trial_index_global":5,"time_elapsed":34725,"internal_chunk_id":"0-0.3-0"},{"nsides":6,"feedback":"Sorry, that was incorrect. 3 <img src=./images/hexagon_symbol.png style=width:14px;height:14px> 2 = 5 because 2 steps clockwise on the hexagon from 3 brings us to 5","orientation_history":[0],"rt":2346,"trial_type":"polygon-arrow-feedback","trial_index":0,"trial_index_global":6,"time_elapsed":37074,"internal_chunk_id":"0-0.3-0"},{"nsides":6,"question":"What is 1 <img src=./images/hexagon_symbol.png style=width:14px;height:14px> 5? <br /><br /> (Remember, to perform <img src=./images/hexagon_symbol.png style=width:14px;height:14px>, you can use the interactive diagram on the right, or perform the operation in your mind. Point the arrow at the first number on the hexagon, then move the arrow the second number of points clockwise around the hexagon. The number the  arrow a rrives at is your result.)","response_type":"free","response_choices":[],"correct_response":"0","response":"0","explain":false,"explanation":"","explanation_history":[],"orientation_history":[[0]],"response_history":["0"],"rt":5474,"trial_type":"polygon-arrow-question","trial_index":0,"trial_index_global":7,"time_elapsed":42550,"internal_chunk_id":"0-0.3-0"},{"nsides":6,"feedback":"Correct! 1 <img src=./images/hexagon_symbol.png style=width:14px;height:14px> 5 = 0 because 5 steps clockwise on the hexagon from 1 brings us to 0","orientation_history":[0],"rt":1292,"trial_type":"polygon-arrow-feedback","trial_index":0,"trial_index_global":8,"time_elapsed":43843,"internal_chunk_id":"0-0.3-0"},{"nsides":6,"question":"What is 1 <img src=./images/hexagon_symbol.png style=width:14px;height:14px> 1? <br /><br /> (Remember, to perform <img src=./images/hexagon_symbol.png style=width:14px;height:14px>, you can use the interactive diagram on the right, or perform  the ope ration in your mind. Point the arrow at the first number on the hexagon, then move the arrow the second number of points clockwise around the hexagon. The number the arrow arrives at is your result.)","response_type":"free","response_choices":[],"correct_response":"2","response":"2","explain":false,"explanation":"","explanation_history":[],"orientation_history":[[0]],"response_history":["2"],"rt":3319,"trial_type":"polygon-arrow-question","trial_index":0,"trial_index_global":9,"time_elapsed":47163,"internal_chunk_id":"0-0.3-0"},{"nsides":6,"feedback":"Correct! 1 <img src=./images/hexagon_symbol.png style=width:14px;height:14px> 1 = 2 because 1 step clockwise on the hexagon from 1 brings us to 2","orientation_history":[0],"rt":1051,"trial_type":"polygon-arrow-feedback","trial_index":0,"trial_index_global":10,"time_elapsed":48216,"internal_chunk_id":"0-0.3-0"},{"nsides":6,"question":"What is 3 <img src=./images/hexagon_symbol.png style=width:14px;height:14px> 0 ? <br /> <br /> (Remember, to perform <img src=./images/hexagon_symbol.png style=width:14px;height:14px>, you can use the interactive diagram on the right, or perform the operation in your mind. Point the arrow at the first number on the hexagon, then move the arrow the second number of points clockwise around the hexagon. The number the arrow arrives at is your result.)","response_type":"free","response_choices":[],"correct_response":"3","response":"3","explain":false,"explanation":"","explanation_history":[],"orientation_history":[[0]],"response_history":["3"],"rt":4671,"trial_type":"polygon-arrow-question","trial_index":0,"trial_index_global":11,"time_elapsed":52888,"internal_chunk_id":"0-0.3-0"},{"nsides":6,"feedback":"Correct! 3 <img src=./images/hexagon_symbol.png style=width:14px;height:14px> 0 = 3 because 0 steps clockwise on the hexagon from 3 brings us to 3","orientation_history":[0],"rt":1172,"trial_type":"polygon-arrow-feedback","trial_index":0,"trial_index_global":12,"time_elapsed":54062,"internal_chunk_id":"0-0.3-0"},{"nsides":6,"question":"What is 4 <img src=./images/hexagon_symbol.png style=width:14px;height:14px> 4? <br /><br /> (Remember, to perform <img src=./images/hexagon_symbol.png style=width:14px;height:14px>, you can use the interactive diagram on the right, or perform the operation in your mind. Point the arrow at the first number on the hexagon, then move the arrow the second number of points clockwise around the hexagon. The number the arrow arrives at is your result.)","response_type":"free","response_choices":[],"correct_response":"2","response":"2","explain":false,"explanation":"","explanation_history":[],"orientation_history":[[0]],"response_history":["4","2"],"rt":4682,"trial_type":"polygon-arrow-question","trial_index":0,"trial_index_global":13,"time_elapsed":58746,"internal_chunk_id":"0-0.3-0"},{"nsides":6,"feedback":"Correct! 4 <img src=./images/hexagon_symbol.png style=width:14px;height: 14px>  4 = 2 because 4 steps clockwise on the hexagon from 4 brings us to 2","orientation_history":[0],"rt":1329,"trial_type":"polygon-arrow-feedback","trial_index":0,"trial_index_global":14,"time_elapsed":60079,"internal_chunk_id":"0-0.3-0"},{"nsides":6,"question":"What is 1 <img src=./images/hexagon_symbol.png style=width:14px;height:14px> 3? <br /><br /> (Remember, to perform <img src=./images/hexagon_symbol.png style=width:14px;height:14px>, you can use the interactive diagram on the right, or perform the operation in your mind. Point the arrow at the first number on the hexagon, then move the arrow the second number of points clockwise around the hexagon. The number the arrow arrives at is your result.)","response_type":"free","response_choices":[],"correct_response":"4","response":"4","explain":false,"explanation":"","explanation_history":[],"orientation_history":[[0]],"response_history":["4"],"rt":4112,"trial_type":"polygon-arrow-question","trial_index":0,"trial_index_global":15,"time_elapsed":64192,"internal_chunk_id":"0-0.3-0"},{"nsides":6,"feedback":"Correct! 1 <img src=./images/hexagon_symbol.png style=width:14px;height:14px> 3 = 4 because 3 steps clockwise on the hexagon from 1 brings us to 4","orientation_history":[0],"rt":2074,"trial_type":"polygon-arrow-feedback","trial_index":0,"trial_index_global":16,"time_elapsed":66268,"internal_chunk_id":"0-0.3-0"},{"nsides":6,"question":"What is 4 <img src=./images/hexagon_symbol.png style=width:14px;height:14px> 3? <br /><br /> (Remember, to perform <img src=./images/hexagon_symbol.png style=width:14px;height:14px>, you can use the interactive diagram on the right, or perform the operation in your mind. Point the arrow at the first number on the hexagon, then move the arrow the second number of points clockwise around the hexagon. The number the arrow arrives at is your result.)","response_type":"free","response_choices":[],"correct_response":"1","response":"1","explain":false,"explanation":"","explanation_history":[],"orientation_history":[[0]],"response_history":["1"],"rt":3830,"trial_type":"polygon-arrow-question","trial_index":0,"trial_index_global":17,"time_elapsed":70099,"internal_chunk_id":"0-0.3-0"},{"nsides":6,"feedback":"Correct! 4 <img src=./images/hexagon_symbol.png style=width:14px;height:14px> 3 = 1 because 3 steps clockwise on the hexagon from 4 brings us to 1","orientation_history":[0],"rt":1121,"trial_type":"polygon-arrow-feedback","trial_index":0,"trial_index_global":18,"time_elapsed":71221,"internal_chunk_id":"0-0.3-0"},{"nsides":6,"question":"What is 0 <img src=./images/hexagon_symbol.png style=width:14px;height:14px> 5? <br /><br /> (Remember, to perform <img src=./images/hexagon_symbol.png style=width:14px;height:14px>, you can use the interactive diagram on the right, or perform the operation in your mind. Point the arrow at the first number on the hexagon, then move the arrow the second number o f points  clockwise around the hexagon. The number the arrow arrives at is your result.)","response_type":"free","response_choices":[],"correct_response":"5","response":"5","explain":false,"explanation":"","explanation_history":[],"orientation_history":[[0]],"response_history":["5"],"rt":5535,"trial_type":"polygon-arrow-question","trial_index":0,"trial_index_global":19,"time_elapsed":76757,"internal_chunk_id":"0-0.3-0"},{"nsides":6,"feedback":"Correct! 0 <img src=./images/hexagon_symbol.png style=width:14px;height:14px> 5 = 5 because 5 steps clockwise on the hexagon from 0 brings us to 5","orientation_history":[0],"rt":1275,"trial_type":"polygon-arrow-feedback","trial_index":0,"trial_index_global":20,"time_elapsed":78033,"internal_chunk_id":"0-0.3-0"},{"nsides":6,"question":"What is 2 <img src=./images/hexagon_symbol.png style=width:14px;height:14px> 5? <br /><br /> (Remember, to perform <img src=./images/hexagon_symbol.png style=width:14px;height:14px>, you c an use t he interactive diagram on the right, or perform the operation in your mind. Point the arrow at the first number on the hexagon, then move the arrow the second number of points clockwise around the hexagon. The number the arrow arrives at is your result.)","response_type":"free","response_choices":[],"correct_response":"1","response":"1","explain":false,"explanation":"","explanation_history":[],"orientation_history":[[0]],"response_history":["1"],"rt":4420,"trial_type":"polygon-arrow-question","trial_index":0,"trial_index_global":21,"time_elapsed":82454,"internal_chunk_id":"0-0.3-0"},{"nsides":6,"feedback":"Correct! 2 <img src=./images/hexagon_symbol.png style=width:14px;height:14px> 5 = 1 because 5 steps clockwise on the hexagon from 2 brings us to 1","orientation_history":[0],"rt":1214,"trial_type":"polygon-arrow-feedback","trial_index":0,"trial_index_global":22,"time_elapsed":83669,"internal_chunk_id":"0-0.3-0"},{"nsides":6,"question":"What is 3 <img src=./images /hexagon _symbol.png style=width:14px;height:14px> 3? <br /><br /> (Remember, to perform <img src=./images/hexagon_symbol.png style=width:14px;height:14px>, you can use the interactive diagram on the right, or perform the operation in your mind. Point the arrow at the first number on the hexagon, then move the arrow the second number of points clockwise around the hexagon. The number the arrow arrives at is your result.)","response_type":"free","response_choices":[],"correct_response":"0","response":"0","explain":false,"explanation":"","explanation_history":[],"orientation_history":[[0]],"response_history":["0"],"rt":3611,"trial_type":"polygon-arrow-question","trial_index":0,"trial_index_global":23,"time_elapsed":87288,"internal_chunk_id":"0-0.4-0"},{"nsides":6,"feedback":"Correct! 3 <img src=./images/hexagon_symbol.png style=width:14px;height:14px> 3 = 0 because 3 steps clockwise on the hexagon from 3 brings us to 0","orientation_history":[0],"rt":1042,"trial_type":"po lygon-arrow-feedback","trial_index":0,"trial_index_global":24,"time_elapsed":88331,"internal_chunk_id":"0-0.4-0"},{"nsides":6,"question":"What is 1 <img src=./images/hexagon_symbol.png style=width:14px;height:14px> 2? <br /><br /> (Remember, to perform <img src=./images/hexagon_symbol.png style=width:14px;height:14px>, you can use the interactive diagram on the right, or perform the operation in your mind. Point the arrow at the first number on the hexagon, then move the arrow the second number of points clockwise around the hexagon. The number the arrow arrives at is your result.)","response_type":"free","response_choices":[],"correct_response":"3","response":"3","explain":false,"explanation":"","explanation_history":[],"orientation_history":[[0]],"response_history":["3"],"rt":4019,"trial_type":"polygon-arrow-question","trial_index":0,"trial_index_global":25,"time_elapsed":92352,"internal_chunk_id":"0-0.4-0"},{"nsides":6,"feedback":"Correct! 1 <img src=./i mages/he xagon_symbol.png style=width:14px;height:14px> 2 = 3 because 2 steps clockwise on the hexagon from 1 brings us to 3","orientation_history":[0],"rt":1172,"trial_type":"polygon-arrow-feedback","trial_index":0,"trial_index_global":26,"time_elapsed":93526,"internal_chunk_id":"0-0.4-0"},{"nsides":6,"question":"What is 5 <img src=./images/hexagon_symbol.png style=width:14px;height:14px> 5? <br /><br /> (Remember, to perform <img src=./images/hexagon_symbol.png style=width:14px;height:14px>, you can use the interactive diagram on the right, or perform the operation in your mind. Point the arrow at the first number on the hexagon, then move the arrow the second number of points clockwise around the hexagon. The number the arrow arrives at is your result.)","response_type":"free","response_choices":[],"correct_response":"4","response":"4","explain":false,"explanation":"","explanation_history":[],"orientation_history":[[0]],"response_history":["4"],"rt":4912,"trial_type":"polygon-arrow-question","trial_index":0,"trial_index_global":27,"time_elapsed":98439,"internal_chunk_id":"0-0.4-0"},{"nsides":6,"feedback":"Correct! 5 <img src=./images/hexagon_symbol.png style=width:14px;height:14px> 5 = 4 because 5 steps clockwise on the hexagon from 5 brings us to 4","orientation_history":[0],"rt":1073,"trial_type":"polygon-arrow-feedback","trial_index":0,"trial_index_global":28,"time_elapsed":99513,"internal_chunk_id":"0-0.4-0"},{"nsides":6,"question":"What is 4 <img src=./images/hexagon_symbol.png style=width:14px;height:14px> 2? <br /><br /> (Remember, to perform <img src=./images/hexagon_symbol.png style=width:14px;height:14px>, you can use the interactive diagram on the right, or perform the operation in your mind. Point the arrow at the first number on the hexagon, then move the arrow the second number of points clockwise around the hexagon. The number the arrow arrives at is your result.)","response_type":"free","response_choices":[],"correct_response":"0","response":"0","explain":false,"explanation":"","explanation_history":[],"orientation_history":[[0]],"response_history":["0"],"rt":3358,"trial_type":"polygon-arrow-question","trial_index":0,"trial_index_global":29,"time_elapsed":102872,"internal_chunk_id":"0-0.4-0"},{"nsides":6,"feedback":"Correct! 4 <img src=./images/hexagon_symbol.png style=width:14px;height:14px> 2 = 0 because 2 steps clockwise on the hexagon from 4 brings us to 0","orientation_history":[0],"rt":1063,"trial_type":"polygon-arrow-feedback","trial_index":0,"trial_index_global":30,"time_elapsed":103936,"internal_chunk_id":"0-0.4-0"},{"nsides":6,"question":"What is 0 <img src=./images/hexagon_symbol.png style=width:14px;height:14px> 2? <br /><br /> (Remember, to perform <img src=./images/hexagon_symbol.png style=width:14px;height:14px>, you can use the interactive diagram on the right, or perform the operation in your mind. Point the arrow at the first number  on the h exagon, then move the arrow the second number of points clockwise around the hexagon. The number the arrow arrives at is your result.)","response_type":"free","response_choices":[],"correct_response":"2","response":"2","explain":false,"explanation":"","explanation_history":[],"orientation_history":[[0]],"response_history":["2"],"rt":3148,"trial_type":"polygon-arrow-question","trial_index":0,"trial_index_global":31,"time_elapsed":107085,"internal_chunk_id":"0-0.4-0"},{"nsides":6,"feedback":"Correct! 0 <img src=./images/hexagon_symbol.png style=width:14px;height:14px> 2 = 2 because 2 steps clockwise on the hexagon from 0 brings us to 2","orientation_history":[0],"rt":1161,"trial_type":"polygon-arrow-feedback","trial_index":0,"trial_index_global":32,"time_elapsed":108248,"internal_chunk_id":"0-0.4-0"},{"nsides":6,"question":"What is 3 <img src=./images/hexagon_symbol.png style=width:14px;height:14px> 5? <br /><br /> (Remember, to perform <img src=./images/hexa gon_symb ol.png style=width:14px;height:14px>, you can use the interactive diagram on the right, or perform the operation in your mind. Point the arrow at the first number on the hexagon, then move the arrow the second number of points clockwise around the hexagon. The number the arrow arrives at is your result.)","response_type":"free","response_choices":[],"correct_response":"2","response":"2","explain":false,"explanation":"","explanation_history":[],"orientation_history":[[0]],"response_history":["2"],"rt":6216,"trial_type":"polygon-arrow-question","trial_index":0,"trial_index_global":33,"time_elapsed":114466,"internal_chunk_id":"0-0.4-0"},{"nsides":6,"feedback":"Correct! 3 <img src=./images/hexagon_symbol.png style=width:14px;height:14px> 5 = 2 because 5 steps clockwise on the hexagon from 3 brings us to 2","orientation_history":[0],"rt":1181,"trial_type":"polygon-arrow-feedback","trial_index":0,"trial_index_global":34,"time_elapsed":115649,"internal_chunk_id":"0-0. 4-0"},{"nsides":6,"question":"What is 1 <img src=./images/hexagon_symbol.png style=width:14px;height:14px> 4? <br /><br /> (Remember, to perform <img src=./images/hexagon_symbol.png style=width:14px;height:14px>, you can use the interactive diagram on the right, or perform the operation in your mind. Point the arrow at the first number on the hexagon, then move the arrow the second number of points clockwise around the hexagon. The number the arrow arrives at is your result.)","response_type":"free","response_choices":[],"correct_response":"5","response":"5","explain":false,"explanation":"","explanation_history":[],"orientation_history":[[0]],"response_history":["5"],"rt":4502,"trial_type":"polygon-arrow-question","trial_index":0,"trial_index_global":35,"time_elapsed":120153,"internal_chunk_id":"0-0.4-0"},{"nsides":6,"feedback":"Correct! 1 <img src=./images/hexagon_symbol.png style=width:14px;height:14px> 4 = 5 because 4 steps clockwise on the hexagon from 1  brings u s to 5","orientation_history":[0],"rt":1021,"trial_type":"polygon-arrow-feedback","trial_index":0,"trial_index_global":36,"time_elapsed":121175,"internal_chunk_id":"0-0.4-0"},{"nsides":6,"question":"What is 5 <img src=./images/hexagon_symbol.png style=width:14px;height:14px> 1? <br /><br /> (Remember, to perform <img src=./images/hexagon_symbol.png style=width:14px;height:14px>, you can use the interactive diagram on the right, or perform the operation in your mind. Point the arrow at the first number on the hexagon, then move the arrow the second number of points clockwise around the hexagon. The number the arrow arrives at is your result.)","response_type":"free","response_choices":[],"correct_response":"0","response":"0","explain":false,"explanation":"","explanation_history":[],"orientation_history":[[0]],"response_history":["0"],"rt":3158,"trial_type":"polygon-arrow-question","trial_index":0,"trial_index_global":37,"time_elapsed":124334,"internal_chunk_id":"0-0.4 -0"},{"nsides":6,"feedback":"Correct! 5 <img src=./images/hexagon_symbol.png style=width:14px;height:14px> 1 = 0 because 1 step clockwise on the hexagon from 5 brings us to 0","orientation_history":[0],"rt":1012,"trial_type":"polygon-arrow-feedback","trial_index":0,"trial_index_global":38,"time_elapsed":125347,"internal_chunk_id":"0-0.4-0"},{"nsides":6,"question":"What is 1 <img src=./images/hexagon_symbol.png style=width:14px;height:14px> 0? <br /><br /> (Remember, to perform <img src=./images/hexagon_symbol.png style=width:14px;height:14px>, you can use the interactive diagram on the right, or perform the operation in your mind. Point the arrow at the first number on the hexagon, then move the arrow the second number of points clockwise around the hexagon. The number the arrow arrives at is your result.)","response_type":"free","response_choices":[],"correct_response":"1","response":"1","explain":false,"explanation":"","explanation_history":[],"orientation_history":[[0]],"response_history":["1"],"rt":3048,"trial_type":"polygon-arrow-question","trial_index":0,"trial_index_global":39,"time_elapsed":128396,"internal_chunk_id":"0-0.4-0"},{"nsides":6,"feedback":"Correct! 1 <img src=./images/hexagon_symbol.png style=width:14px;height:14px> 0 = 1 because 0 steps clockwise on the hexagon from 1 brings us to 1","orientation_history":[0],"rt":1733,"trial_type":"polygon-arrow-feedback","trial_index":0,"trial_index_global":40,"time_elapsed":130130,"internal_chunk_id":"0-0.4-0"},{"nsides":6,"question":"What is 5 <img src=./images/hexagon_symbol.png style=width:14px;height:14px> 2? <br /><br /> (Remember, to perform <img src=./images/hexagon_symbol.png style=width:14px;height:14px>, you can use the interactive diagram on the right, or perform the operation in your mind. Point the arrow at the first number on the hexagon, then move the arrow the second number of points clockwise around the hexagon. The number the arro w arrive s at is your result.)","response_type":"free","response_choices":[],"correct_response":"1","response":"1","explain":false,"explanation":"","explanation_history":[],"orientation_history":[[0]],"response_history":["1"],"rt":3207,"trial_type":"polygon-arrow-question","trial_index":0,"trial_index_global":41,"time_elapsed":133341,"internal_chunk_id":"0-0.4-0"},{"nsides":6,"feedback":"Correct! 5 <img src=./images/hexagon_symbol.png style=width:14px;height:14px> 2 = 1 because 2 steps clockwise on the hexagon from 5 brings us to 1","orientation_history":[0],"rt":1622,"trial_type":"polygon-arrow-feedback","trial_index":0,"trial_index_global":42,"time_elapsed":134964,"internal_chunk_id":"0-0.4-0"},{"nsides":6,"instructions":"Now we're going to discuss a couple special properties of this new operation, <img src=./images/hexagon_symbol.png style=width:14px;height:14px> that we've learned. First, notice that the number 0 behaves in a special way under <img src=./images/ hexagon_ symbol.png style=width:14px;height:14px>. Whenever we combine 0 with anything else, we get that same thing back. We'll say that 0 is the <i>identity</i> under <img src=./images/hexagon_symbol.png style=width:14px;height:14px>, because when you combine it with something it gives you that identical thing back.","orientation_history":[0],"rt":5575,"trial_type":"polygon-arrow-instructions","trial_index":0,"trial_index_global":43,"time_elapsed":140543,"internal_chunk_id":"0-0"},{"nsides":6,"instructions":"Now that we know 0 is the identity under <img src=./images/hexagon_symbol.png style=width:14px;height:14px>, we're going to make a new definition. We'll say that the <i>inverse</i> of a number is the element that you combine with it to produce the identity under our operation. For example, 5 <img src=./images/hexagon_symbol.png style=width:14px;height:14px> 1 = 0, so we say 1 is the inverse of 5 under <img src=./images/hexagon_symbol.png style=width:1 4px;height:14px>, (remember 0 is the identity under <img src=./images/hexagon_symbol.png style=width:14px;height:14px>). Similarly, 3 is its own inverse under <img src=./images/hexagon_symbol.png style=width:14px;height:14px>, because 3 <img src=./images/hexagon_symbol.png style=width:14px;height:14px> 3 = 0.","orientation_history":[0],"rt":26,"trial_type":"polygon-arrow-instructions","trial_index":0,"trial_index_global":44,"time_elapsed":140571,"internal_chunk_id":"0-0"},{"nsides":6,"question":"Now you try! What is the inverse of 4 under <img src=./images/hexagon_symbol.png style=width:14px;height:14px>? <br /><br /> (Remember, the inverse of an element is the thing which you combine with it to produce the identity.)","response_type":"free","response_choices":[],"correct_response":"2","response":"2","explain":false,"explanation":"","explanation_history":[],"orientation_history":[[0]],"response_history":["2"],"rt":10495,"trial_type":"polygon -arrow-q uestion","trial_index":0,"trial_index_global":45,"time_elapsed":151069,"internal_chunk_id":"0-0.7-0"},{"nsides":6,"feedback":"Correct! The inverse of 4 under <img src=./images/hexagon_symbol.png style=width:14px;height:14px> is 2 because 4 <img src=./images/hexagon_symbol.png style=width:14px;height:14px> 2 = 0, and 0 is the identity under <img src=./images/hexagon_symbol.png style=width:14px;height:14px>.","orientation_history":[0],"rt":1203,"trial_type":"polygon-arrow-feedback","trial_index":0,"trial_index_global":46,"time_elapsed":152273,"internal_chunk_id":"0-0.7-0"},{"nsides":6,"question":"What is the inverse of 1 under <img src=./images/hexagon_symbol.png style=width:14px;height:14px>? <br /><br /> (Remember, the inverse of an element is the thing which you combine with it to produce the identity.)","response_type":"free","response_choices":[],"correct_response":"5","response":"5","explain":false,"explanation":"","explanation_history":[],"orientation_history":[[0]],"response_history":["5"],"rt":8974,"trial_type":"polygon-arrow-question","trial_index":0,"trial_index_global":47,"time_elapsed":161249,"internal_chunk_id":"0-0.7-0"},{"nsides":6,"feedback":"Correct! The inverse of 1 under <img src=./images/hexagon_symbol.png style=width:14px;height:14px> is 5 because 1 <img src=./images/hexagon_symbol.png style=width:14px;height:14px> 5 = 0, and 0 is the identity under <img src=./images/hexagon_symbol.png style=width:14px;height:14px>.","orientation_history":[0],"rt":1220,"trial_type":"polygon-arrow-feedback","trial_index":0,"trial_index_global":48,"time_elapsed":162471,"internal_chunk_id":"0-0.7-0"},{"nsides":6,"question":"What is the inverse of 3 under <img src=./images/hexagon_symbol.png style=width:14px;height:14px>? <br /><br /> (Remember, the inverse of an element is the thing which you combine with it to produce the identity.)","response_type":"free","response_choices":[],"correct_response":"3","response":"3","explain":false,"explanation":"","explanation_history":[],"orientation_history":[[0]],"response_history":["3"],"rt":3235,"trial_type":"polygon-arrow-question","trial_index":0,"trial_index_global":49,"time_elapsed":165709,"internal_chunk_id":"0-0.7-0"},{"nsides":6,"feedback":"Correct! The inverse of 3 under <img src=./images/hexagon_symbol.png style=width:14px;height:14px> is 3 because 3 <img src=./images/hexagon_symbol.png style=width:14px;height:14px> 3 = 0, and 0 is the identity under <img src=./images/hexagon_symbol.png style=width:14px;height:14px>.","orientation_history":[0],"rt":1954,"trial_type":"polygon-arrow-feedback","trial_index":0,"trial_index_global":50,"time_elapsed":167667,"internal_chunk_id":"0-0.7-0"},{"nsides":6,"question":"What is the inverse of 2 under <img src=./images/hexagon_symbol.png style=width:14px;height:14px>? <br /><br /> (Remember, the inverse of an element is the thing which you combine with  it to pr oduce the identity.)","response_type":"free","response_choices":[],"correct_response":"4","response":"4","explain":false,"explanation":"","explanation_history":[],"orientation_history":[[0]],"response_history":["4"],"rt":7258,"trial_type":"polygon-arrow-question","trial_index":0,"trial_index_global":51,"time_elapsed":174926,"internal_chunk_id":"0-0.7-0"},{"nsides":6,"feedback":"Correct! The inverse of 2 under <img src=./images/hexagon_symbol.png style=width:14px;height:14px> is 4 because 2 <img src=./images/hexagon_symbol.png style=width:14px;height:14px> 4 = 0, and 0 is the identity under <img src=./images/hexagon_symbol.png style=width:14px;height:14px>.","orientation_history":[0],"rt":781,"trial_type":"polygon-arrow-feedback","trial_index":0,"trial_index_global":52,"time_elapsed":175708,"internal_chunk_id":"0-0.7-0"},{"nsides":6,"question":"What is the inverse of 0 under <img src=./images/hexagon_symbol.png style=width:14px;height:14px>? <b r /><br  /> (Remember, the inverse of an element is the thing which you combine with it to produce the identity.)","response_type":"free","response_choices":[],"correct_response":"0","response":"0","explain":false,"explanation":"","explanation_history":[],"orientation_history":[[0]],"response_history":["0"],"rt":3499,"trial_type":"polygon-arrow-question","trial_index":0,"trial_index_global":53,"time_elapsed":179208,"internal_chunk_id":"0-0.7-0"},{"nsides":6,"feedback":"Correct! The inverse of 0 under <img src=./images/hexagon_symbol.png style=width:14px;height:14px> is 0 because 0 <img src=./images/hexagon_symbol.png style=width:14px;height:14px> 0 = 0, and 0 is the identity under <img src=./images/hexagon_symbol.png style=width:14px;height:14px>.","orientation_history":[0],"rt":823,"trial_type":"polygon-arrow-feedback","trial_index":0,"trial_index_global":54,"time_elapsed":180032,"internal_chunk_id":"0-0.7-0"},{"instructions":"It is also possible to successiv ely appl y <img src=./images/hexagon_symbol.png style=width:14px;height:14px>, and the operation can simply be performed starting with the left-most pair. For example, 2 <img src=./images/hexagon_symbol.png style=width:14px;height:14px> 3 <img src=./images/hexagon_symbol.png style=width:14px;height:14px> 4 = 5 <img src=./images/hexagon_symbol.png style=width:14px;height:14px> 4 = 3.","rt":17693,"trial_type":"instructions","trial_index":0,"trial_index_global":55,"time_elapsed":197726,"internal_chunk_id":"0-0"},{"nsides":6,"instructions":"We have one last definition to learn today, using the successive operations we just learned. Let's start with an example. Under our operation <img src=./images/hexagon_symbol.png style=width:14px;height:14px> we can make every other number using just 1: 2 = 1 <img src=./images/hexagon_symbol.png style=width:14px;height:14px> 1, 3 = 1 <img src=./images/hexagon_symbol.png style=width:14px;height:14px > 1 <i mg src=./images/hexagon_symbol.png style=width:14px;height:14px> 1, 4 = 1 <img src=./images/hexagon_symbol.png style=width:14px;height:14px> 1 <img src=./images/hexagon_symbol.png style=width:14px;height:14px> 1 <img src=./images/hexagon_symbol.png style=width:14px;height:14px> 1, 5 = 1 <img src=./images/hexagon_symbol.png style=width:14px;height:14px> 1 <img src=./images/hexagon_symbol.png style=width:14px;height:14px> 1 <img src=./images/hexagon_symbol.png style=width:14px;height:14px> 1 <img src=./images/hexagon_symbol.png style=width:14px;height:14px> 1, and 0 = 1 <img src=./images/hexagon_symbol.png style=width:14px;height:14px> 1 <img src=./images/hexagon_symbol.png style=width:14px;height:14px> 1 <img src=./images/hexagon_symbol.png style=width:14px;height:14px> 1 <img src=./images/hexagon_symbol.png style=width:14px;height:14px> 1 <img src=./images/hexagon_symbol.png s tyle=w idth:14px;height:14px> 1. Because 1 can make every other element under <img src=./images/hexagon_symbol.png style=width:14px;height:14px>, we say that 1 is a <i>generator</i> under <img src=./images/hexagon_symbol.png style=width:14px;height:14px>. <br /><br /> However, 2 is not a generator under <img src=./images/hexagon_symbol.png style=width:14px;height:14px>, because 4 = 2 <img src=./images/hexagon_symbol.png style=width:14px;height:14px> 2, and 0 = 2 <img src=./images/hexagon_symbol.png style=width:14px;height:14px> 2 <img src=./images/hexagon_symbol.png style=width:14px;height:14px> 2, but there is no way to make 1, 3, or 5 using just 2.","orientation_history":[0],"rt":10689,"trial_type":"polygon-arrow-instructions","trial_index":0,"trial_index_global":56,"time_elapsed":208418,"internal_chunk_id":"0-0"},{"nsides":6,"question":"Now you try! Is 3 a generator under <img src=./images/hexagon_symbol.png style=width:14p x;height :14px>? <br /><br /> (Remember, a generator is an element which can make every other element.)","response_type":"multi","response_choices":["Yes","No"],"correct_response":"No","response":"No","explain":false,"explanation":"","explanation_history":[],"orientation_history":[[0]],"response_history":["No"],"rt":4228,"trial_type":"polygon-arrow-question","trial_index":0,"trial_index_global":57,"time_elapsed":212650,"internal_chunk_id":"0-0.10-0"},{"nsides":6,"feedback":"Correct! 3 is not a generator under <img src=./images/hexagon_symbol.png style=width:14px;height:14px>, because 3 = 3, 0 = 3 <img src=./images/hexagon_symbol.png style=width:14px;height:14px> 3, but there is no way to make 1, 2, 4, or 5 using just 3.","orientation_history":[0],"rt":1112,"trial_type":"polygon-arrow-feedback","trial_index":0,"trial_index_global":58,"time_elapsed":213763,"internal_chunk_id":"0-0.10-0"},{"nsides":6,"question":"Is 5 a generator under <img src=./images/hexagon_symbol .png s tyle=width:14px;height:14px>? <br /><br /> (Remember, a generator is an element which can make every other element.)","response_type":"multi","response_choices":["Yes","No"],"correct_response":"Yes","response":"No","explain":false,"explanation":"","explanation_history":[],"orientation_history":[[0]],"response_history":["No"],"rt":6617,"trial_type":"polygon-arrow-question","trial_index":0,"trial_index_global":59,"time_elapsed":220382,"internal_chunk_id":"0-0.10-0"},{"nsides":6,"feedback":"Sorry, that's incorrect. 5 is a generator under <img src=./images/hexagon_symbol.png style=width:14px;height:14px>, because 5 = 5, 4 = 5 <img src=./images/hexagon_symbol.png style=width:14px;height:14px> 5, 3 = 5 <img src=./images/hexagon_symbol.png style=width:14px;height:14px> 5 <img src=./images/hexagon_symbol.png style=width:14px;height:14px> 5, 2 = 5 <img src=./images/hexagon_symbol.png style=width:14px;height:14px> 5 <img src=./images/hexag on_symbo l.png style=width:14px;height:14px> 5 <img src=./images/hexagon_symbol.png style=width:14px;height:14px> 5, 1 = 5 <img src=./images/hexagon_symbol.png style=width:14px;height:14px> 5 <img src=./images/hexagon_symbol.png style=width:14px;height:14px> 5 <img src=./images/hexagon_symbol.png style=width:14px;height:14px> 5 <img src=./images/hexagon_symbol.png style=width:14px;height:14px> 5, and 0 = 5 <img src=./images/hexagon_symbol.png style=width:14px;height:14px> 5 <img src=./images/hexagon_symbol.png style=width:14px;height:14px> 5 <img src=./images/hexagon_symbol.png style=width:14px;height:14px> 5 <img src=./images/hexagon_symbol.png style=width:14px;height:14px> 5 <img src=./images/hexagon_symbol.png style=width:14px;height:14px> 5, so you can make all of the numbers under <img src=./images/hexagon_symbol.png style=width:14px;height:14px> using 5","orientation_history":[0],"rt":24475,"trial_type":"polygon-arrow-feedback","trial_index":0,"trial_index_global":60,"time_elapsed":244859,"internal_chunk_id":"0-0.10-0"},{"nsides":6,"question":"Is 4 a generator under <img src=./images/hexagon_symbol.png style=width:14px;height:14px>? <br /><br /> (Remember, a generator is an element which can make every other element.)","response_type":"multi","response_choices":["Yes","No"],"correct_response":"No","response":"Yes","explain":false,"explanation":"","explanation_history":[],"orientation_history":[[0]],"response_history":["Yes"],"rt":14187,"trial_type":"polygon-arrow-question","trial_index":0,"trial_index_global":61,"time_elapsed":259048,"internal_chunk_id":"0-0.10-0"},{"nsides":6,"feedback":"Sorry, that's incorrect. 4 is not a generator under <img src=./images/hexagon_symbol.png style=width:14px;height:14px>, because 4 = 4, 2 = 4 <img src=./images/hexagon_symbol.png style=width:14px;height:14px> 4, and 0 = 4 <img src=./images/hexagon_symbol .png s tyle=width:14px;height:14px> 4 <img src=./images/hexagon_symbol.png style=width:14px;height:14px> 4, but there is no way to make 1, 3, or 5 using just 4.","orientation_history":[0],"rt":4620,"trial_type":"polygon-arrow-feedback","trial_index":0,"trial_index_global":62,"time_elapsed":263670,"internal_chunk_id":"0-0.10-0"},{"nsides":6,"question":"Is 0 a generator under <img src=./images/hexagon_symbol.png style=width:14px;height:14px>? <br /><br /> (Remember, a generator is an element which can make every other element.)","response_type":"multi","response_choices":["Yes","No"],"correct_response":"No","response":"Yes","explain":false,"explanation":"","explanation_history":[],"orientation_history":[[0]],"response_history":["Yes"],"rt":3869,"trial_type":"polygon-arrow-question","trial_index":0,"trial_index_global":63,"time_elapsed":267541,"internal_chunk_id":"0-0.10-0"},{"nsides":6,"feedback":"Sorry, that's incorrect. 0 is not a generator under <img src=./im ages/hex agon_symbol.png style=width:14px;height:14px>, because 0 = 0, but there is no way to make 1, 2, 3, 4, or 5 using just 0.","orientation_history":[0],"rt":2807,"trial_type":"polygon-arrow-feedback","trial_index":0,"trial_index_global":64,"time_elapsed":270349,"internal_chunk_id":"0-0.10-0"},{"nsides":9,"instructions":"Now we are going to ask you some questions about a new operation, <img src=./images/nonagon_symbol.png style=width:14px;height:14px>, on the numbers 0, 1, 2, 3, 4, 5, 6, 7, 8. It works exactly like <img src=./images/hexagon_symbol.png style=width:14px;height:14px>, except now you use the nonagon shown at the right. <br /><br />Do you see how <img src=./images/nonagon_symbol.png style=width:14px;height:14px> works just like <img src=./images/hexagon_symbol.png style=width:14px;height:14px>? By labeling the points of the nonagon with the numbers from 0 to 8, we ensure that when we combine two numbers under <img src=./images/n onagon_s ymbol.png style=width:14px;height:14px>, we only produce numbers between 0 and 8. <br /><br />We'll give you one practice question with feedback to make sure you understand the new operation. After that, try to complete the remaining questions as accurately as possible.","orientation_history":[0],"rt":4741,"trial_type":"polygon-arrow-instructions","trial_index":0,"trial_index_global":65,"time_elapsed":275091,"internal_chunk_id":"0-0"},{"nsides":9,"question":"Practice: What is 5 <img src=./images/nonagon_symbol.png style=width:14px;height:14px> 5?","response_type":"free","response_choices":[],"correct_response":"1","response":"1","explain":false,"explanation":"","explanation_history":[],"orientation_history":[[0]],"response_history":["1"],"rt":4781,"trial_type":"polygon-arrow-question","trial_index":0,"trial_index_global":66,"time_elapsed":279874,"internal_chunk_id":"0-0.12-0"},{"nsides":9,"feedback":"Correct! 5 <img src=./images/nonagon_symbol.png style=w idth:14p x;height:14px> 5 = 1 because 5 steps clockwise on the nonagon from 5 brings us to 1","orientation_history":[0],"rt":871,"trial_type":"polygon-arrow-feedback","trial_index":0,"trial_index_global":67,"time_elapsed":280746,"internal_chunk_id":"0-0.12-0"},{"nsides":9,"question":"What is 3 <img src=./images/nonagon_symbol.png style=width:14px;height:14px> 3?","response_type":"free","response_choices":[],"correct_response":"6","response":"6","explain":false,"explanation":"","explanation_history":[],"orientation_history":[[0]],"response_history":["6"],"rt":3890,"trial_type":"polygon-arrow-question","trial_index":0,"trial_index_global":68,"time_elapsed":284637,"internal_chunk_id":"0-0.12-0"},{"nsides":9,"question":"What is 7 <img src=./images/nonagon_symbol.png style=width:14px;height:14px> 4?","response_type":"free","response_choices":[],"correct_response":"2","response":"2","explain":false,"explanation":"","explanation_history":[],"orientation_history":[[0]],"response_history":["2"],"rt":5201,"trial_type":"polygon-arrow-question","trial_index":0,"trial_index_global":69,"time_elapsed":289840,"internal_chunk_id":"0-0.12-0"},{"nsides":9,"question":"What is 1 <img src=./images/nonagon_symbol.png style=width:14px;height:14px> 8?","response_type":"free","response_choices":[],"correct_response":"0","response":"0","explain":false,"explanation":"","explanation_history":[],"orientation_history":[[0]],"response_history":["0"],"rt":7178,"trial_type":"polygon-arrow-question","trial_index":0,"trial_index_global":70,"time_elapsed":297020,"internal_chunk_id":"0-0.12-0"},{"nsides":9,"question":"What is 5 <img src=./images/nonagon_symbol.png style=width:14px;height:14px> 4?","response_type":"free","response_choices":[],"correct_response":"0","response":"0","explain":false,"explanation":"","explanation_history":[],"orientation_history":[[0]],"response_history":["0"],"rt":5482,"trial_type":"polygon-arrow-question","trial_index":0,"trial_index_global":71,"time_elapsed":302504,"internal_chunk_id":"0-0.12-0"},{"nsides":9,"question":"What is 6 <img src=./images/nonagon_symbol.png style=width:14px;height:14px> 6?","response_type":"free","response_choices":[],"correct_response":"3","response":"3","explain":false,"explanation":"","explanation_history":[],"orientation_history":[[0]],"response_history":["3"],"rt":5083,"trial_type":"polygon-arrow-question","trial_index":0,"trial_index_global":72,"time_elapsed":307590,"internal_chunk_id":"0-0.12-0"},{"nsides":9,"instructions":"On the following question, and several others later in the HIT, we will ask you to explain how you got your answer. On these questions, you will be given one box for your answer to the question, and a second for your explanation. Please explain your thought process in as much detail as possible (at least one sentence, and more if you can).","orientation_history":[0],"rt":4018,"trial_type":"polygon-arrow-instructions","trial_index":0,"trial_index_global":73,"time_elapsed":311611,"internal_chunk_id":"0-0.12-0"},{"nsides":9,"question":"What is 4 <img src=./images/nonagon_symbol.png style=width:14px;height:14px> 1? Please explain in words how you got your answer.","response_type":"free","response_choices":[],"correct_response":"5","response":"5","explain":true,"explanation":"i started at 4, then moved one notch clockwise, and landed on 4.","explanation_history":["i started a ","i started at 5","i started at 4, then moved one notch clockwise, and landed on 5.","i started at 4, then moved one notch clockwise, and landed on 54","i started at 4, then moved one notch clockwise, and landed on 5","i started at 4, then moved one notch clockwise, and landed on 4."],"orientation_history":[[0]],"response_history":["4","5"],"rt":29239,"trial_type":"polygon-arrow-question","trial_index":0,"trial_index_global":74,"time_elapsed":340851,"internal_chunk_id":"0-0.12-0"},{"nsides":9,"question":"What is 8 <img src=./images/nonagon_symbol.png  style=width:14px;height:14px> 4? Please explain in words how you got your answer.","response_type":"free","response_choices":[],"correct_response":"3","response":"3","explain":true,"explanation":"i started at 8, then moved 4 spaces clockwise and landed on 3.","explanation_history":["i startes ","i startes","i started at 8, then moved 4 no","i started at 8, then moved 4 n","i started at 8, then moved 4 spaces clockwise and landed on 3."],"orientation_history":[[0]],"response_history":["3"],"rt":22121,"trial_type":"polygon-arrow-question","trial_index":0,"trial_index_global":75,"time_elapsed":362974,"internal_chunk_id":"0-0.12-0"},{"nsides":9,"question":"What is the identity under <img src=./images/nonagon_symbol.png style=width:14px;height:14px>? Please explain in words how you got your answer.","response_type":"free","response_choices":[],"correct_response":"0","response":"0","explain":true,"explanation":"the identity under 6 was zero, so i assumed that the rules was th e same f or this, as well. ","explanation_history":["the is","the identity under 6 was zero, so i assumed thatt ","the identity under 6 was zero, so i assumed thatt","the identity under 6 was zero, so i assumed that te","the identity under 6 was zero, so i assumed that ther","the identity under 6 was zero, so i assumed that the rules wasa","the identity under 6 was zero, so i assumed that the rules was te","the identity under 6 was zero, so i assumed that the rules was the same for this, as e","the identity under 6 was zero, so i assumed that the rules was the same for this, as well. "],"orientation_history":[[0]],"response_history":["0"],"rt":29959,"trial_type":"polygon-arrow-question","trial_index":0,"trial_index_global":76,"time_elapsed":392934,"internal_chunk_id":"0-0.12-0"},{"nsides":9,"question":"What is the inverse of 5 under <img src=./images/nonagon_symbol.png style=width:14px;height:14px>?","response_type":"free","response_choices":[],"correct_response":"4","response":"4","explain":false,"explanation":"","explanation_history":[],"orientation_history":[[0]],"response_history":["4"],"rt":11366,"trial_type":"polygon-arrow-question","trial_index":0,"trial_index_global":77,"time_elapsed":404302,"internal_chunk_id":"0-0.12-0"},{"nsides":9,"question":"What is the inverse of 2 under <img src=./images/nonagon_symbol.png style=width:14px;height:14px>?","response_type":"free","response_choices":[],"correct_response":"7","response":"6","explain":false,"explanation":"","explanation_history":[],"orientation_history":[[0]],"response_history":["6"],"rt":5861,"trial_type":"polygon-arrow-question","trial_index":0,"trial_index_global":78,"time_elapsed":410165,"internal_chunk_id":"0-0.12-0"},{"nsides":9,"question":"What is the inverse of 0 under <img src=./images/nonagon_symbol.png style=width:14px;height:14px>?","response_type":"free","response_choices":[],"correct_response":"0","response":"0","explain":false,"explanation":"","explanation_history":[],"orientation_history":[[0]],"response_history":["0"],"rt":3604,"trial_type":"polygon-arrow-question","trial_index":0,"trial_index_global":79,"time_elapsed":413770,"internal_chunk_id":"0-0.12-0"},{"nsides":9,"question":"What is the inverse of 3 under <img src=./images/nonagon_symbol.png style=width:14px;height:14px>? Please explain in words how you got your answer.","response_type":"free","response_choices":[],"correct_response":"6","response":"6","explain":true,"explanation":"the inverse of the 9 is zero. the inverse of a number is how much it takes to get from that number to zero, moving clockwise. I began at three and moved clockwise 6 spaces to make it to zero.","explanation_history":["the inverse is always zero .","the inverse is always zero ","the inverse is always zero. the inverse of a number is how","the inverse ozero. the inverse of a number is how","the inverse ofzero. the inverse of a number is how","the inverse of zero. the inverse of a number is how","the i nverse o f tzero. the inverse of a number is how","the inverse of thzero. the inverse of a number is how","the inverse of thezero. the inverse of a number is how","the inverse of the zero. the inverse of a number is how","the inverse of the 9zero. the inverse of a number is how","the inverse of the 9 zero. the inverse of a number is how","the inverse of the 9 izero. the inverse of a number is how","the inverse of the 9 izzero. the inverse of a number is how","the inverse of the 9 izero. the inverse of a number is how","the inverse of the 9 iszero. the inverse of a number is how","the inverse of the 9 is zero. the inverse of a number is how many notxh","the inverse of the 9 is zero. the inverse of a number is how many notx","the inverse of the 9 is zero. the inverse of a number is how many","the inverse of the 9 is zero. the inverse of a number is how man","the inverse of the 9 is zero. the inverse of a number is how ma","the inverse of the 9 is zero. the inverse of a number is how m","the in verse of the 9 is zero. the inverse of a number is how much it takes to get ","the inverse of the 9 is zero. the inverse of a number is how much it takes to getfrim","the inverse of the 9 is zero. the inverse of a number is how much it takes to getfri","the inverse of the 9 is zero. the inverse of a number is how much it takes to getfr","the inverse of the 9 is zero. the inverse of a number is how much it takes to getf","the inverse of the 9 is zero. the inverse of a number is how much it takes to get from that number to zero, moving clockwise. I began at threee ","the inverse of the 9 is zero. the inverse of a number is how much it takes to get from that number to zero, moving clockwise. I began at threee","the inverse of the 9 is zero. the inverse of a number is how much it takes to get from that number to zero, moving clockwise. I began at three","the inverse of the 9 is zero. the inverse of a number is how much it takes to get from that number to zero, moving clockwise.  I began  at thre a","the inverse of the 9 is zero. the inverse of a number is how much it takes to get from that number to zero, moving clockwise. I began at thre ","the inverse of the 9 is zero. the inverse of a number is how much it takes to get from that number to zero, moving clockwise. I began at thre a","the inverse of the 9 is zero. the inverse of a number is how much it takes to get from that number to zero, moving clockwise. I began at thre ","the inverse of the 9 is zero. the inverse of a number is how much it takes to get from that number to zero, moving clockwise. I began at three and moved clockwise 6 spaces to make it to zero."],"orientation_history":[[0]],"response_history":["6"],"rt":69610,"trial_type":"polygon-arrow-question","trial_index":0,"trial_index_global":80,"time_elapsed":483381,"internal_chunk_id":"0-0.12-0"},{"nsides":9,"question":"Is 2 a generator under <img src=./images/nonagon_symbol.png style=width:14px;height:14px>? Please explain in words how  you got  your answer.","response_type":"multi","response_choices":["Yes","No"],"correct_response":"Yes","response":"No","explain":true,"explanation":"i. i cannot add anything to two to get 1, so it cant be a generator.","explanation_history":["i can use multiples of 2 to get all numbers to 0.","i. i cannot add an","i. i cannot add anything to two to gert ","i. i cannot add anything to two to gert","i. i cannot add anything to two to ger","i. i cannot add anything to two to get 1 or ","i. i cannot add anything to two to get 1 or","i. i cannot add anything to two to get 1 o","i. i cannot add anything to two to get 1 ","i. i cannot add anything to two to get 1. ","i. i cannot add anything to two to get 1.","i. i cannot add anything to two to get 1, so it cant be a generator."],"orientation_history":[[0]],"response_history":["Yes","No"],"rt":52520,"trial_type":"polygon-arrow-question","trial_index":0,"trial_index_global":81,"time_elapsed":535903,"internal_chunk_id":"0-0.12-0"},{"nsides":9,"question":"Is 3 a generator under <img src=./images/nonagon_symbol.png style=width:14px;height:14px>? Please explain in words how you got your answer.","response_type":"multi","response_choices":["Yes","No"],"correct_response":"No","response":"Yes","explain":true,"explanation":"yes. i can use multiples of three plus other numbers to get all other numbers on the nonogon.","explanation_history":["no ","no","n","no. i can't add ant","no. i can't add anything to 3 to get 1,so ","yes. i can used","yes. i can use multiples of three plus other numbers to get all other numbers on the nonoga","yes. i can use multiples of three plus other numbers to get all other numbers on the nonogon."],"orientation_history":[[0]],"response_history":["Yes"],"rt":49824,"trial_type":"polygon-arrow-question","trial_index":0,"trial_index_global":82,"time_elapsed":585730,"internal_chunk_id":"0-0.12-0"},{"nsides":9,"question":"Is 5 a generator under <img src=./images/nonagon_symbol.png style=widt h:14px;h eight:14px>? Please explain in words how you got your answer.","response_type":"multi","response_choices":["Yes","No"],"correct_response":"Yes","response":"No","explain":true,"explanation":"no. i can't use numbers added to five to get to all other numbers on the nonogon.","explanation_history":["no. i can't use numbers added to five to get to all other numbers on the nonogon."],"orientation_history":[[0]],"response_history":["No"],"rt":26460,"trial_type":"polygon-arrow-question","trial_index":0,"trial_index_global":83,"time_elapsed":612192,"internal_chunk_id":"0-0.12-0"},{"nsides":9,"question":"Is 6 a generator under <img src=./images/nonagon_symbol.png style=width:14px;height:14px>? Please explain in words how you got your answer.","response_type":"multi","response_choices":["Yes","No"],"correct_response":"No","response":"No","explain":true,"explanation":"i can't use 6 or 6 + other numbers to get to all other numbers on the polygon","explanation_history":["i cant  ","i can t","i can't use 6 added to othr","i can't use 6 added to oth","i can't use 6 added to ot","i can't use 6 added to o","i can't use 6 added to ea","i can't use 6 added to e","i can't use 6 added to ","i can't use 6 added to","i can't use 6 ad","i can't use 6 a","i can't use 6 or 6 + other numbers th","i can't use 6 or 6 + other numbers to get to all other numbers on the polugon","i can't use 6 or 6 + other numbers to get to all other numbers on the polugo","i can't use 6 or 6 + other numbers to get to all other numbers on the polug","i can't use 6 or 6 + other numbers to get to all other numbers on the polu","i can't use 6 or 6 + other numbers to get to all other numbers on the polygon"],"orientation_history":[[0]],"response_history":["No"],"rt":35732,"trial_type":"polygon-arrow-question","trial_index":0,"trial_index_global":84,"time_elapsed":647925,"internal_chunk_id":"0-0.12-0"},{"nsides":"n","instructions":"Now we'd like to ask you some questions about <img src=./images/n gon_symb ol.png style=width:14px;height:14px>, where n could be any positive counting number. For example, n could be 3, and the polygon a triangle, or n could be any other counting number you can think of. If you need to write the operation, you can use (n), and your answers can include n to stand in for the arbitrary value if necessary. (You can use the polygon at the right to think, but it doesn't necessarily correspond to the real polygon, which is why we've left most of it dashed.)","orientation_history":[0],"rt":45287,"trial_type":"polygon-arrow-instructions","trial_index":0,"trial_index_global":85,"time_elapsed":693214,"internal_chunk_id":"0-0"},{"nsides":"n","question":"What is the formula for the inverse of 1 under <img src=./images/ngon_symbol.png style=width:14px;height:14px>?","response_type":"free","response_choices":[],"correct_response":"n-1","response":"if it's a triangle, the inverse of 1 under n is 2. ","explain":false,"explanation":"","explanation_history":[],"orientation_history":[[0]],"response_history":["if i ","if i","if t","if ","if it 's","if it '","if it ","if it's a triangle, the inverse of 1 uner","if it's a triangle, the inverse of 1 une","if it's a triangle, the inverse of 1 undw","if it's a triangle, the inverse of 1 under n is 2. "],"rt":25877,"trial_type":"polygon-arrow-question","trial_index":0,"trial_index_global":86,"time_elapsed":719092,"internal_chunk_id":"0-0.14-0"},{"nsides":"n","question":"What is the formula for the inverse of an element x under <img src=./images/ngon_symbol.png style=width:14px;height:14px>? Please explain in words why your answer is correct.","response_type":"free","response_choices":[],"correct_response":"n-x","response":"3. ","explain":true,"explanation":"if 0 is the element x and n represents 3, then the inverse of x under n, given the polygon is a triangle, would be 3. ","explanation_history":["if 1 is the element x and n represents 3, them ","if 1 is the element x and n  represen ts 3, them","if 1 is the element x and n represents 3, then ","if  is the element x and n represents 3, then ","if 0 is the element x and n represents 3, then the inverse would ","if 0 is the element x and n represents 3, then the inverse would","if 0 is the element x and n represents 3, then the inverse woul","if 0 is the element x and n represents 3, then the inverse wou","if 0 is the element x and n represents 3, then the inverse wo","if 0 is the element x and n represents 3, then the inverse w","if 0 is the element x and n represents 3, then the inverse of x under n, given the plolygone","if 0 is the element x and n represents 3, then the inverse of x under n, given the plol","if 0 is the element x and n represents 3, then the inverse of x under n, given the plo","if 0 is the element x and n represents 3, then the inverse of x under n, given the pl","if 0 is the element x and n represents 3, then the inverse of x under n, given the polygon is a traingl, ","if 0 is the el ement x  and n represents 3, then the inverse of x under n, given the polygon is a traingl,","if 0 is the element x and n represents 3, then the inverse of x under n, given the polygon is a traingl","if 0 is the element x and n represents 3, then the inverse of x under n, given the polygon is a traing","if 0 is the element x and n represents 3, then the inverse of x under n, given the polygon is a train","if 0 is the element x and n represents 3, then the inverse of x under n, given the polygon is a trai","if 0 is the element x and n represents 3, then the inverse of x under n, given the polygon is a tra","if 0 is the element x and n represents 3, then the inverse of x under n, given the polygon is a triange, ","if 0 is the element x and n represents 3, then the inverse of x under n, given the polygon is a triange,","if 0 is the element x and n represents 3, then the inverse of x under n, given the polygon is a triange","if 0 is the element x and n represents 3, then the inverse of x  under n , given the polygon is a triangle, tge ","if 0 is the element x and n represents 3, then the inverse of x under n, given the polygon is a triangle, tge","if 0 is the element x and n represents 3, then the inverse of x under n, given the polygon is a triangle, tg","if 0 is the element x and n represents 3, then the inverse of x under n, given the polygon is a triangle, t","if 0 is the element x and n represents 3, then the inverse of x under n, given the polygon is a triangle, would be 3. "],"orientation_history":[[0]],"response_history":["if ","if","i","3. "],"rt":138053,"trial_type":"polygon-arrow-question","trial_index":0,"trial_index_global":87,"time_elapsed":857148,"internal_chunk_id":"0-0.14-0"},{"nsides":"n","question":"Is there a pattern to which elements are generators? How can you know if an element x is a generator under <img src=./images/ngon_symbol.png style=width:14px;height:14px> without seeing whether it can make all the elements?.","response_type":"fr ee","response_choices":[],"correct_response":"","response":"i do not believe that it is possible to determine a generator without knowing the polygon's shape","explain":false,"explanation":"","explanation_history":[],"orientation_history":[[0]],"response_history":["i do not beliee rh","i do not beliee rv","i do not beliee r","i do not beliee ","i do not beliee","i do not believe that thi ","i do not believe that thi","i do not believe that th","i do not believe that t","i do not believe that t","i do not believe that it is possiblr ","i do not believe that it is possiblr","i do not believe that it is possible to determine a generator without knowing the op","i do not believe that it is possible to determine a generator without knowing the o","i do not believe that it is possible to determine a generator without knowing the polygon's shapr","i do not believe that it is possible to determine a generator without knowing the polygon's shape"],"rt":43607,"trial_type":"polygon-arrow-quest ion","trial_index":0,"trial_index_global":88,"time_elapsed":900756,"internal_chunk_id":"0-0.14-0"},{"nsides":"n","question":"True or false: If x is an odd number, it must be a generator under <img src=./images/ngon_symbol.png style=width:14px;height:14px>.","response_type":"multi","response_choices":["True","False"],"correct_response":"False","response":"False","explain":false,"explanation":"","explanation_history":[],"orientation_history":[[0]],"response_history":["False"],"rt":6338,"trial_type":"polygon-arrow-question","trial_index":0,"trial_index_global":89,"time_elapsed":907095,"internal_chunk_id":"0-0.14-0"},{"nsides":"n","question":"True or false: If x is an even number, it must not be a generator under <img src=./images/ngon_symbol.png style=width:14px;height:14px>.","response_type":"multi","response_choices":["True","False"],"correct_response":"False","response":"False","explain":false,"explanation":"","explanation_history":[],"orientation_history":[[0]],"response_history":["False"],"rt":4202,"trial_type":"polygon-arrow-question","trial_index":0,"trial_index_global":90,"time_elapsed":911298,"internal_chunk_id":"0-0.14-0"},{"nsides":"n","question":"True or false: If x is not a generator under <img src=./images/ngon_symbol.png style=width:14px;height:14px>, x must be a divisor of n, that is, x must divide n evenly, with no remainder.","response_type":"multi","response_choices":["True","False"],"correct_response":"False","response":"True","explain":false,"explanation":"","explanation_history":[],"orientation_history":[[0]],"response_history":["True"],"rt":8874,"trial_type":"polygon-arrow-question","trial_index":0,"trial_index_global":91,"time_elapsed":920174,"internal_chunk_id":"0-0.14-0"},{"nsides":"n","question":"True or false: If x is not a generator under <img src=./images/ngon_symbol.png style=width:14px;height:14px>, x must be a multiple of a divisor of n. Please explain in words how you got your answer.","response_type":"mul ti","response_choices":["True","False"],"correct_response":"True","response":"True","explain":true,"explanation":"if x can't add on to anything else to make the inverse of n, then x must be able to get to the inverse by multiples of itself","explanation_history":["if x can't add on to anything else to ma","if x can't add on to anything else to make the inverse of n, then x must being ","if x can't add on to anything else to make the inverse of n, then x must being","if x can't add on to anything else to make the inverse of n, then x must bein","if x can't add on to anything else to make the inverse of n, then x must bei","if x can't add on to anything else to make the inverse of n, then x must be able to ","if x can't add on to anything else to make the inverse of n, then x must be able to","if x can't add on to anything else to make the inverse of n, then x must be able t","if x can't add on to anything else to make the inverse of n, then x must be able ","if x can't add on  to anyt hing else to make the inverse of n, then x must be able","if x can't add on to anything else to make the inverse of n, then x must be able to get to i","if x can't add on to anything else to make the inverse of n, then x must be able to get to the inverse by multiples of itseld","if x can't add on to anything else to make the inverse of n, then x must be able to get to the inverse by multiples of itself"],"orientation_history":[[0]],"response_history":["True"],"rt":60570,"trial_type":"polygon-arrow-question","trial_index":0,"trial_index_global":92,"time_elapsed":980746,"internal_chunk_id":"0-0.14-0"},{"nsides":"n","question":"If an element x is a generator under <img src=./images/ngon_symbol.png style=width:14px;height:14px>, is its inverse a generator under <img src=./images/ngon_symbol.png style=width:14px;height:14px> always, sometimes, or never?","response_type":"multi","response_choices":["Always","Sometimes","Never"],"correct_response":"Always","response":"Some times","explain":false,"explanation":"","explanation_history":[],"orientation_history":[[0]],"response_history":["Always","Sometimes"],"rt":44645,"trial_type":"polygon-arrow-question","trial_index":0,"trial_index_global":93,"time_elapsed":1025394,"internal_chunk_id":"0-0.14-0"},{"nsides":"n","question":"If an element x is a generator under <img src=./images/ngon_symbol.png style=width:14px;height:14px>, is x <img src=./images/ngon_symbol.png style=width:14px;height:14px> x a generator under <img src=./images/ngon_symbol.png style=width:14px;height:14px> always, sometimes, or never? Please explain in words how you got your answer.","response_type":"multi","response_choices":["Always","Sometimes","Never"],"correct_response":"Sometimes","response":"Sometimes","explain":true,"explanation":"depending on how close it is to the identity, x may not always be able to be a generator ","explanation_history":["depending on how close ir ","depending on how close i r","depe nding on how close it is to the inver","depending on how close it is to the inve","depending on how close it is to the inv","depending on how close it is to the in","depending on how close it is to the i","depending on how close it is to the identiy","depending on how close it is to the identity, x ay","depending on how close it is to the identity, x a","depending on how close it is to the identity, x may not alway ","depending on how close it is to the identity, x may not always be able to be a generalt ","depending on how close it is to the identity, x may not always be able to be a generalt","depending on how close it is to the identity, x may not always be able to be a general","depending on how close it is to the identity, x may not always be able to be a generator "],"orientation_history":[[0]],"response_history":["Sometimes"],"rt":35233,"trial_type":"polygon-arrow-question","trial_index":0,"trial_index_global":94,"time_elapsed":1060631,"internal_chunk_id":"0-0.14-0"},{"nsides":"n","question":"If an element x is not a generator under <img src=./images/ngon_symbol.png style=width:14px;height:14px>, is x <img src=./images/ngon_symbol.png style=width:14px;height:14px> x a generator under <img src=./images/ngon_symbol.png style=width:14px;height:14px> always, sometimes, or never?","response_type":"multi","response_choices":["Always","Sometimes","Never"],"correct_response":"Never","response":"Never","explain":false,"explanation":"","explanation_history":[],"orientation_history":[[0]],"response_history":["Sometimes","Always","Sometimes","Never"],"rt":76528,"trial_type":"polygon-arrow-question","trial_index":0,"trial_index_global":95,"time_elapsed":1137161,"internal_chunk_id":"0-0.14-0"},{"instructions":"We would like to ask you some questions about your background. Please press Continue to continue.","rt":1736,"trial_type":"instructions","trial_index":0,"trial_index_global":96,"time_elapsed":1138901,"internal_chunk_id":"0-0. 15-0"},{"question":"What is your age?","response_type":"free","response_choices":[],"correct_response":"","response":"21","explain":false,"explanation":"","explanation_history":[],"response_history":["21"],"rt":1875,"trial_type":"question","trial_index":0,"trial_index_global":97,"time_elapsed":1140778,"internal_chunk_id":"0-0.15-0"},{"question":"What is your level of education?","response_type":"multi","response_choices":["Did not graduate high school","High school diploma","Some college, no degree","Associates Degree","Bachelors Degree","Some graduate school, no degree","Masters Degree","Doctorate, M.D., etc."],"correct_response":"","response":"Some college, no degree","explain":false,"explanation":"","explanation_history":[],"response_history":["Some college, no degree"],"rt":3589,"trial_type":"question","trial_index":0,"trial_index_global":98,"time_elapsed":1144370,"internal_chunk_id":"0-0.15-0"},{"question":"What is the most advanced math class you've completed? If you have mult iple cla sses and you're not sure which one is most advanced, please list them.","response_type":"free","response_choices":[],"correct_response":"","response":"the most advanced math class i've ever taken is probability and statistics.","explain":false,"explanation":"","explanation_history":[],"response_history":["the nmost ","the nmost","the nmos","the nmo","the nm","the n","the most advanced math classi","the most advanced math class i've ever takes","the most advanced math class i've ever taken is probabiltiy a","the most advanced math class i've ever taken is probabiltiy ","the most advanced math class i've ever taken is probabiltiy","the most advanced math class i've ever taken is probabilti","the most advanced math class i've ever taken is probabilt","the most advanced math class i've ever taken is probability ad ","the most advanced math class i've ever taken is probability ad","the most advanced math class i've ever taken is probability and statistics."],"rt":24534,"trial_type":"ques tion","trial_index":0,"trial_index_global":99,"time_elapsed":1168907,"internal_chunk_id":"0-0.15-0"},{"question":"How familiar are you with the concept of modular arithmetic?","response_type":"multi","response_choices":["1 - never heard of it","2 - heard of it but didn't know what it was","3 - seen it used or explained","4 - used it but not often or recently","5 - used it, remember and understand it"],"correct_response":"1","response":"1 - never heard of it","explain":false,"explanation":"","explanation_history":[],"response_history":["1 - never heard of it"],"rt":3792,"trial_type":"question","trial_index":0,"trial_index_global":100,"time_elapsed":1172701,"internal_chunk_id":"0-0.15-0"},{"question":"How familiar are you with the concept of a mathematical group?","response_type":"multi","response_choices":["1 - never heard of it","2 - heard of it but didn't know what it was","3 - seen it used or explained","4 - used it but not often or recently","5 - used it, remember and und erstand  it"],"correct_response":"1","response":"1 - never heard of it","explain":false,"explanation":"","explanation_history":[],"response_history":["1 - never heard of it"],"rt":3569,"trial_type":"question","trial_index":0,"trial_index_global":101,"time_elapsed":1176271,"internal_chunk_id":"0-0.15-0"},{"question":"Do you feel you learned something from this HIT?","response_type":"multi","response_choices":["1 - not at all","2 - somewhat","3 - definitely"],"correct_response":"1","response":"2 - somewhat","explain":false,"explanation":"","explanation_history":[],"response_history":["2 - somewhat"],"rt":3097,"trial_type":"question","trial_index":0,"trial_index_global":102,"time_elapsed":1179371,"internal_chunk_id":"0-0.15-0"},{"question":"Do you feel you understood the concepts in this HIT?","response_type":"multi","response_choices":["1 - not at all","2 - somewhat","3 - definitely"],"correct_response":"1","response":"2 - somewhat","explain":false,"explanation":"","explanation_history":[],"response_history":["2 - somewhat"],"rt":2807,"trial_type":"question","trial_index":0,"trial_index_global":103,"time_elapsed":1182179,"internal_chunk_id":"0-0.15-0"},{"question":"Did you enjoy this HIT?","response_type":"multi","response_choices":["1 - not at all","2 - somewhat","3 - definitely"],"correct_response":"1","response":"2 - somewhat","explain":false,"explanation":"","explanation_history":[],"response_history":["2 - somewhat"],"rt":4021,"trial_type":"question","trial_index":0,"trial_index_global":104,"time_elapsed":1186202,"internal_chunk_id":"0-0.15-0"},{"question":"What is your gender?","response_type":"multi","response_choices":["Female","Male","Other"],"correct_response":"","response":"Female","explain":false,"explanation":"","explanation_history":[],"response_history":["Female"],"rt":2657,"trial_type":"question","trial_index":0,"trial_index_global":105,"time_elapsed":1188860,"internal_chunk_id":"0-0.15-0"},{"question":"What is/are your native language(s)? (The la nguages  spoken in your household when you were a child.)","response_type":"free","response_choices":[],"correct_response":"","response":"english","explain":false,"explanation":"","explanation_history":[],"response_history":["engi","english"],"rt":4905,"trial_type":"question","trial_index":0,"trial_index_global":106,"time_elapsed":1193766,"internal_chunk_id":"0-0.15-0"},{"question":"Did you use pen and paper at any point on this HIT?","response_type":"free","response_choices":[],"correct_response":"","response":"no","explain":false,"explanation":"","explanation_history":[],"response_history":["no"],"rt":3229,"trial_type":"question","trial_index":0,"trial_index_global":107,"time_elapsed":1196996,"internal_chunk_id":"0-0.15-0"},{"question":"Do you have any comments on this HIT?","response_type":"free","response_choices":[],"correct_response":"","response":"i really struggled with the generator","explain":false,"explanation":"","explanation_history":[],"response_history":["i really stru ggled wi th the generatr","i really struggled with the generator"],"rt":11914,"trial_type":"question","trial_index":0,"trial_index_global":108,"time_elapsed":1208911,"internal_chunk_id":"0-0.15-0"}]