[{"nsides":6,"instructions":"Let's define a new operation <img src=./images/hexagon_symbol.png style=width:14px;height:14px>. This operation will give us a way of combining two of the numbers 0, 1, 2, 3, 4, 5 to get another one of them back. Consider the hexagon at the right, where I've labeled each point with one of the numbers. To perform <img src=./images/hexagon_symbol.png style=width:14px;height:14px>, you can use the interactive diagram on the right, or perform the operation in your mind. Point the arrow at the first number on the hexagon by clicking, then click (or click and drag) to move the arrow the second number of points clockwise around the hexagon. The number the arrow arrives at is your result. (The operation is called <img src=./images/hexagon_symbol.png style=width:14px;height:14px> because it uses the hexagon, which has 6 sides.) <br /><br />For example, 3 <img src=./images/hexagon_symbol.png style=width:14px;height:14px> 5 =  2, becau se 5 steps clockwise from 3 on the hexagon brings us to 2. So 3 <img src=./images/hexagon_symbol.png style=width:14px;height:14px> 5 = 2.<br /><br />Similarly, 1 <img src=./images/hexagon_symbol.png style=width:14px;height:14px> 4 = 5, because 4 steps clockwise from 1 brings us to 5. <br /><br />Click Continue when you're ready to move on.","orientation_history":[0],"rt":181994,"trial_type":"polygon-arrow-instructions","trial_index":0,"trial_index_global":1,"time_elapsed":187472,"internal_chunk_id":"0-0"},{"nsides":6,"instructions":"Do you see how <img src=./images/hexagon_symbol.png style=width:14px;height:14px> works? By labeling the points of the hexagon with the numbers from 0 to 5, we ensure that when we combine two numbers under <img src=./images/hexagon_symbol.png style=width:14px;height:14px>, we only produce numbers between 0 and 5.<br /><br />Click Continue when you are ready to move on.","orientation_history":[0],"rt":5596,"trial_type":"polygon-arrow-instructions","trial_index":0,"trial_index_global":2,"time_elapsed":193071,"internal_chunk_id":"0-0"},{"nsides":6,"question":"Now try one on your own! What is 4 <img src=./images/hexagon_symbol.png style=width:14px;height:14px> 5? <br /><br /> (Remember, to perform <img src=./images/hexagon_symbol.png style=width:14px;height:14px>, you can use the interactive diagram on the right, or perform the operation in your mind. Point the arrow at the first number on the hexagon, then move the arrow the second number of points clockwise around the hexagon. The number the arrow arrives at is your result.)","response_type":"free","response_choices":[],"correct_response":"3","response":"3","explain":false,"explanation":"","explanation_history":[],"orientation_history":[[0],[4.198782975661941,4.198782975661941,4.198782975661941,4.198782975661941,4.198782975661941,4.198782975661941,4.198782975661941,4.198782975661941,4.198782975661941,4.198782975661941,4.198782975661941,4.198782975661941,4.198782975661941,4.198782975661941,4.198782975661941,4.198782975661941,4.198782975661941,4.198782975661941,4.198782975661941,4.198782975661941,4.198782975661941,4.198782975661941,4.198782975661941,4.198782975661941,4.198782975661941,4.198782975661941,4.198782975661941,4.198782975661941,4.198782975661941,4.198782975661941,4.198782975661941,4.198782975661941,4.198782975661941,4.198782975661941,4.198782975661941,4.198782975661941,4.198782975661941,4.198782975661941,4.198782975661941,4.198782975661941,4.198782975661941,4.198782975661941,4.198782975661941,4.198782975661941,4.198782975661941,4.198782975661941,4.198782975661941,4.198782975661941,4.198782975661941,4.198782975661941,4.198782975661941,4.198782975661941,4.198782975661941,4.198782975661941,4.198782975661941,4.198782975661941,4.198782975661941,4.198782975661941,4.198782975661941,4.198782975661941,4.198782975661941,4.198782975661941,4.198782975661941,4.198782975661941,4.198782975661941,4.198782975661941,4.198782975661941,4.198782975661941,4.198782975661941,4.198782975661941,4.198782975661941,4.198782975661941,4.198782975661941,4.198782975661941,4.198782975661941,4.198782975661941,4.198782975661941,4.198782975661941,4.198782975661941,4.198782975661941,4.198782975661941,4.198782975661941,4.198782975661941,4.198782975661941,4.198782975661941,4.198782975661941,4.198782975661941,4.198782975661941,4.198782975661941,4.198782975661941,4.198782975661941,4.198782975661941,4.198782975661941,4.198782975661941,4.198782975661941,4.198782975661941,4.198782975661941,4.198782975661941,4.198782975661941,4.198782975661941,4.198782975661941,4.198782975661941,4.198782975661941,4.198782975661941,4.198782975661941,4.198782975661941,4.198782975661941,4.198782975661941,4.198782975661941,4.198782975661941,4.198782975661941,4.198782975661941,4.198782975661941,4.198782975661941,4.198782975661941,4.198782975661941,4.198782975661941,4.198782975661941,4.198782975661941,4.198782975661941,4.198782975661941,4.198782975661941,4.198782975661941,4.198782975661941,4.198782975661941,4.198782975661941,4.198782975661941,4.198782975661941,4.198782975661941,4.198782975661941,4.198782975661941,4.198782975661941,4.198782975661941,4.198782975661941,4.198782975661941,4.198782975661941,4.198782975661941,4.198782975661941,4.198782975661941,4.198782975661941,4.198782975661941,4.198782975661941,4.198782975661941,4.198782975661941,4.198782975661941,4.198782975661941,4.198782975661941,4.198782975661941,4.198782975661941,4.198782975661941,4.198782975661941,4.198782975661941,4.198782975661941,4.198782975661941,4.198782975661941,4.198782975661941,4.198782975661941,4.198782975661941,4.198782975661941,4.198782975661941,4.198782975661941,4.198782975661941,4.198782975661941,4.198782975661941,4.198782975661941,4.198782975661941,4.198782975661941,4.198782975661941,4.198782975661941,4.198782975661941,4.198782975661941,4.198782975661941,4.198782975661941,4.198782975661941,4.198782975661941,4.198782975661941,4.198782975661941,4.198782975661941,4.198782975661941,4.198782975661941,4.198782975661941,4.198782975661941,4.198782975661941,4.198782975661941,4.198782975661941,4.198782975661941,4.198782975661941,4.198782975661941,4.198782975661941,4.198782975661941,4.198782975661941,4.198782975661941,4.198782975661941,4.198782975661941,4.198782975661941,4.198782975661941,4.198782975661941,4.198782975661941,4.198782975661941,4.198782975661941,4.198782975661941,4.198782975661941,4.198782975661941,4.198782975661941,4.198782975661941,4.198782975661941,4.198782975661941,4.198782975661941,4.198782975661941,4.198782975661941,4.198782975661941,4.198782975661941,4.198782975661941,4.198782975661941,4.198782975661941,4.198782975661941,4.198782975661941,4.198782975661941,4.198782975661941,4.198782975661941,4.198782975661941,4.198782975661941,4.198782975661941,4.198782975661941,4.198782975661941,4.198782975661941,4.198782975661941,4.198782975661941,4.198782975661941,4.198782975661941,4.198782975661941,4.198782975661941,4.198782975661941,4.198782975661941,4.198782975661941,4.198782975661941,4.198782975661941,4.198782975661941,4.198782975661941,4.198782975661941,4.198782975661941,4.198782975661941,4.198782975661941,4.198782975661941,4.198782975661941,4.198782975661941,4.198782975661941,4.198782975661941,4.198782975661941,4.198782975661941,4.198782975661941,4.198782975661941,4.198782975661941,4.198782975661941,4.198782975661941,4.198782975661941,4.198782975661941,4.198782975661941,4.198782975661941,4.198782975661941,4.198782975661941,4.198782975661941,4.198782975661941,4.198782975661941,4.198782975661941,4.198782975661941,4.198782975661941,4.198782975661941,4.198782975661941,4.198782975661941,4.198782975661941,4.198782975661941,4.198782975661941,4.198782975661941,4.193242866138167,4.193242866138167,4.193242866138167,4.193242866138167,4.187593208734583,4.197504203980465,4.197504203980465,4.197504203980465,4.197504203980465,4.197504203980465,4.197504203980465,4.197504203980465,4.197504203980465,4.197504203980465,4.197504203980465,4.197504203980465,4.197504203980465,4.201900658467914,4.222431654130961,4.2328696883920935,4.26486900522752,4.275761820571148,4.3091074986658535,4.331882603272325,4.366833399802978,4.402686035842233,4.464275531288013,4.54076091200381,4.592960054366351,4.645820816608866,4.6857286320100915,4.699056437090544,4.7257215236788355,4.778957144160513,4.792218966096927,4.831817906403028,4.884017048765569,4.922571567046859,4.935289212713066,4.947933961105553,4.960502429481366,5.009950705122495,5.046091156922239,5.081348526590546,5.104336505853203,5.126895854969476,5.126895854969476,5.1380114487243205,5.1380114487243205,5.1380114487243205,5.149016140198231,5.15990895554186,5.170689046776345,5.170689046776345,5.191908272377286,5.191908272377286,5.191908272377286,5.191908272377286,5.191908272377286,5.191908272377286,5.191908272377286,5.191908272377286,5.191908272377286,5.191908272377286,5.191908272377286,5.191908272377286,5.191908272377286,5.191908272377286,5.191908272377286,5.191908272377286,5.191908272377286,5.191908272377286,5.191908272377286,5.191908272377286,5.191908272377286,5.191908272377286,5.191908272377286,5.191908272377286,5.191908272377286,5.191908272377286,5.213653245256272,5.213653245256272,5.213653245256272,5.213653245256272,5.213653245256272,5.213653245256272,5.213653245256272,5.2300380897614644,5.256940688540727,5.290290917346935,5.341185266800123,5.3583470866908005,5.408737561147641,5.462088031102814,5.5067959090725545,5.552278600022869,5.588447030982882,5.659985977245521,5.698741407470235,5.727314498025429,5.756039363593176,5.78486951296928,5.80229802698425,5.859745901019867,5.921456065659654,5.945307118939308,5.989315972147119,6.004885648174475,6.0169332580286605,6.073799914226091,6.100074489917102,6.124048581380892,6.124048581380892,6.141288252575422,6.141288252575422,6.152973864215189,6.166076562612722,6.177695998654496,6.177695998654496,6.18934409455025,6.20289849189657,6.214328817878542,6.225777192542786,6.226428149357493,6.226428149357493,6.260461946337945,6.271949824921624,0,0,0,0,0,0,0.010988568682733568,0.010988568682733568,0.010988568682733568,0.010988568682733568,0.010988568682733568,0.010988568682733568,0.02197448429666249,0.043927767076889834,0.05488986259415385,0.10945094914136333,0.15602484300105135,0.22347660114063306,0.2721458905311873,0.31821700019878074,0.3468348975810076,0.391235579127174,0.48995732625372823,0.621659922283089,0.6900361164950393,0.7419472680059174,0.7503248328642229,0.7503248328642229,0.7853981633974483,0.7853981633974483,0.8110335719191257,0.8198672643969562,0.8370762478798782,0.8370762478798782,0.8621700546672263,0.8791397049416967,0.886744666663116,0.9201694478751793,0.9201694478751793,0.9367736071314745,0.960070362405688,0.9667179377989384,0.9732398738097319,0.982793723247329,1.004941999686837,1.0146300966744435,1.0303768265243125,1.0669693483536067,1.092074482799131,1.092074482799131,1.092074482799131,1.092074482799131,1.092074482799131,1.092074482799131,1.092074482799131,1.092074482799131,1.092074482799131,1.092074482799131,1.092074482799131,1.092074482799131,1.1525719972156674,1.2860658882721845,1.4769551141655601,1.6762856353199873,1.7616274295161585,1.8520285287131917,1.9025133285977458,1.9320000822885781,1.9608443990583462,1.9890206563741257,2.0032041023654346,2.0122253704689834,2.021170379111528,2.021170379111528,2.021170379111528,2.021170379111528,2.030038677948892,2.0388298725844947,2.0475436231154798,2.0647376957144776,2.0816192087527194,2.0899424410414196,2.114441622328102,2.122451309323443,2.122451309323443,2.122451309323443,2.122451309323443,2.122451309323443,2.122451309323443,2.122451309323443,2.122451309323443,2.1303828086489895,2.161330570503473,2.2310244999010083,2.3698922635652107,2.5040438554511004,2.623699671519402,2.7851557013695967,2.896613990462929,2.9516043656710775,3.0010166021802354,3.0410157361349452,3.059956311460723,3.096578037815266,3.115050215838396,3.1328209487453504,3.141592653589793,3.1502131297019296,3.1502131297019296,3.1502131297019296,3.1502131297019296,3.1502131297019296,3.1502131297019296,3.1502131297019296,3.1502131297019296,3.1502131297019296,3.1502131297019296,3.1502131297019296,3.1502131297019296,3.1502131297019296,3.1502131297019296,3.1502131297019296,3.1502131297019296,3.1502131297019296,3.1502131297019296,3.1502131297019296,3.1502131297019296,3.1502131297019296,3.1502131297019296,3.1502131297019296,3.1502131297019296,3.1502131297019296,3.1502131297019296,3.1502131297019296,3.1502131297019296,3.1502131297019296,3.1502131297019296,3.1502131297019296,3.1330458531571814,3.115957245068116,3.099600546368424,3.099600546368424,3.099600546368424,3.099600546368424,3.099600546368424,3.099600546368424,3.099600546368424,3.099600546368424,3.099600546368424,3.099600546368424,3.099600546368424,3.099600546368424,3.099600546368424,3.099600546368424,3.099600546368424,3.099600546368424,3.099600546368424,3.1079918591738,3.124787513074751,3.124787513074751,3.124787513074751,3.133189490042146,3.149925794029929,3.149925794029929,3.149925794029929,3.149925794029929,3.149925794029929,3.149925794029929,3.149925794029929,3.149925794029929,3.149925794029929,3.149925794029929,3.149925794029929,3.149925794029929,3.149925794029929,3.149925794029929,3.149925794029929,3.149925794029929,3.149925794029929,3.149925794029929,3.149925794029929,3.149925794029929,3.149925794029929,3.149925794029929,3.149925794029929,3.141592653589793]],"response_history":["3"],"rt":30867,"trial_type":"polygon-arrow-question","trial_index":0,"trial_index_global":3,"time_elapsed":223941,"internal_chunk_id":"0-0.3-0"},{"nsides":6,"feedback":"Correct! 4 <img src=./images/hexagon_symbol.png style=width:14px;height:14px> 5 = 3 because 5 steps clockwise on the hexagon from 4 brings us to 3","orientation_history":[0],"rt":11901,"trial_type":"polygon-arrow-feedback","trial_index":0,"trial_index_global":4,"time_elapsed":235844,"internal_chunk_id":"0-0.3-0"},{"nsides":6,"question":"What is 3 <img src=./ images/h exagon_symbol.png style=width:14px;height:14px> 2? <br /><br /> (Remember, to perform <img src=./images/hexagon_symbol.png style=width:14px;height:14px>, you can use the interactive diagram on the right, or perform the operation in your mind. Point the arrow at the first number on the hexagon, then move the arrow the second number of points clockwise around the hexagon. The number the arrow arrives at is your result.)","response_type":"free","response_choices":[],"correct_response":"5","response":"5","explain":false,"explanation":"","explanation_history":[],"orientation_history":[[0]],"response_history":["5"],"rt":10070,"trial_type":"polygon-arrow-question","trial_index":0,"trial_index_global":5,"time_elapsed":245916,"internal_chunk_id":"0-0.3-0"},{"nsides":6,"feedback":"Correct! 3 <img src=./images/hexagon_symbol.png style=width:14px;height:14px> 2 = 5 because 2 steps clockwise on the hexagon from 3 brings us to 5","orientation_history":[0],"rt":912,"trial_type":"polygon-arrow-feedback","trial_index":0,"trial_index_global":6,"time_elapsed":246829,"internal_chunk_id":"0-0.3-0"},{"nsides":6,"question":"What is 1 <img src=./images/hexagon_symbol.png style=width:14px;height:14px> 5? <br /><br /> (Remember, to perform <img src=./images/hexagon_symbol.png style=width:14px;height:14px>, you can use the interactive diagram on the right, or perform the operation in your mind. Point the arrow at the first number on the hexagon, then move the arrow the second number of points clockwise around the hexagon. The number the arrow arrives at is your result.)","response_type":"free","response_choices":[],"correct_response":"0","response":"5","explain":false,"explanation":"","explanation_history":[],"orientation_history":[[0]],"response_history":["5"],"rt":6766,"trial_type":"polygon-arrow-question","trial_index":0,"trial_index_global":7,"time_elapsed":253596,"internal_chunk_id":"0-0.3-0"},{"nsides":6,"feedback":"Sorry, that was inc orrect.  1 <img src=./images/hexagon_symbol.png style=width:14px;height:14px> 5 = 0 because 5 steps clockwise on the hexagon from 1 brings us to 0","orientation_history":[0],"rt":4269,"trial_type":"polygon-arrow-feedback","trial_index":0,"trial_index_global":8,"time_elapsed":257866,"internal_chunk_id":"0-0.3-0"},{"nsides":6,"question":"What is 1 <img src=./images/hexagon_symbol.png style=width:14px;height:14px> 1? <br /><br /> (Remember, to perform <img src=./images/hexagon_symbol.png style=width:14px;height:14px>, you can use the interactive diagram on the right, or perform the operation in your mind. Point the arrow at the first number on the hexagon, then move the arrow the second number of points clockwise around the hexagon. The number the arrow arrives at is your result.)","response_type":"free","response_choices":[],"correct_response":"2","response":"2","explain":false,"explanation":"","explanation_history":[],"orientation_history":[[0],[0,0,0.015578097079987696,0.015578097079987696,0.06210124407389617,0.07751428163079188,0.1260198938711754,0.1787605309200544,0.2446160815618974,0.29510911406174056,0.43099034207614517,0.45874034195823543,0.5538730703950241,0.6232813245105266,0.6977637676136133,0.7385574504814787,0.7777530524085334,0.8138863413098187,0.8674682221654701,0.9007562839448611,0.9007562839448611,0.9080856619394004,0.9325165977413717,0.9460536769166813,0.991633102646081,1.0501042773841667,1.0900022444850304,1.1133981658370764,1.1218415982271643,1.1259412982500752,1.1259412982500752,1.1259412982500752,1.1259412982500752,1.1259412982500752,1.1259412982500752,1.1259412982500752,1.1259412982500752,1.1259412982500752,1.1259412982500752,1.1259412982500752,1.1259412982500752,1.1259412982500752,1.1259412982500752,1.1259412982500752,1.1259412982500752,1.1259412982500752,1.1259412982500752,1.1259412982500752,1.1259412982500752,1.1259412982500752,1.1259412982500752,1.1259412982500752,1.1259412982500752,1.1259412982500752,1.1259412982500752,1.1259412982500752,1.1259412982500752,1.1259412982500752,1.1259412982500752,1.1259412982500752,1.1259412982500752,1.1259412982500752,1.1259412982500752,1.1259412982500752,1.1259412982500752,1.1259412982500752,1.1259412982500752,1.1259412982500752,1.1259412982500752,1.1259412982500752,1.1259412982500752,1.1259412982500752,1.1259412982500752,1.1259412982500752,1.1259412982500752,1.1259412982500752,1.1259412982500752,1.1259412982500752,1.1259412982500752,1.1259412982500752,1.1259412982500752,1.1259412982500752,1.1259412982500752,1.1259412982500752,1.1259412982500752,1.1259412982500752,1.1259412982500752,1.1259412982500752,1.1259412982500752,1.1259412982500752,1.1259412982500752,1.1259412982500752,1.1259412982500752,1.1259412982500752,1.1259412982500752,1.1259412982500752,1.1259412982500752,1.1259412982500752,1.1259412982500752,1.1259412982500752,1.1259412982500752,1.1259412982500752,1.1259412982500752,1.1259412982500752,1.1259412982500752,1.1259412982500752,1.1259412982500752,1.1259412982500752,1.1259412982500752,1.1259412982500752,1.1259412982500752,1.1259412982500752,1.1259412982500752,1.1259412982500752,1.1259412982500752,1.1259412982500752,1.1259412982500752,1.1259412982500752,1.1259412982500752,1.1259412982500752,1.1259412982500752,1.1259412982500752,1.1259412982500752,1.1259412982500752,1.1259412982500752,1.1259412982500752,1.1259412982500752,1.1259412982500752,1.139580784110135,1.1492744135961508,1.1887830467421938,1.2122381676296605,1.2687732232581086,1.3018737119734467,1.3553586742694974,1.3761062486201714,1.4416676241042452,1.4827418512206068,1.5340562804642488,1.563934301002217,1.5931518924975097,1.6128297886920349,1.6313835674835828,1.650723148980289,1.6891042912935539,1.7081194318052193,1.7270008311323921,1.7363876343876692,1.7689342770057912,1.8047933385001298,1.8047933385001298,1.8224545454651062,1.8224545454651062,1.8312144292100692,1.8312144292100692,1.8485880046780805,1.8571999149905996,1.8627499722705665,1.887934570388571,1.8898763155210143,1.9028645482606337,1.9187467335786885,1.9310597859349157,1.9464280062646424,1.9464280062646424,1.950583107005803,1.950583107005803,1.9655479761862182,1.9655479761862182,1.97295225659834,1.97295225659834,1.9839931302597333,1.9839931302597333,1.991200329667277,1.991200329667277,2.0125091038999727,2.0125091038999727,2.019507287364756,2.019507287364756,2.0333459400799354,2.0333459400799354,2.0333459400799354,2.0333459400799354,2.0333459400799354,2.0333459400799354,2.0333459400799354,2.036345074189665,2.036345074189665,2.036345074189665,2.036345074189665,2.036345074189665,2.036345074189665,2.0943951023931953]],"response_history":["2"],"rt":7790,"trial_type":"polygon-arrow-question","trial_index":0,"trial_index_global":9,"time_elapsed":265658,"internal_chunk_id":"0-0.3-0"},{"nsides":6,"feedback":"Correct! 1 <img src=./images/hexagon_symbol.png style=width:14px;height:14px> 1 = 2 because 1 step clockwise on the hexagon from 1 brings us to 2","orientation_history":[0],"rt":896,"trial_type":"polygon-arrow-feedback","trial_index":0,"trial_index_global":10,"time_elapsed":266554,"internal_chunk_id":"0-0.3-0"},{"nsides":6,"question":"What is 3 <img src=./images/hexagon_symbol.png style=width:14px;height:14px> 0? <br /><br /> (Remember, to perform <img src=./images/hexagon_symbol.png style=width:14px;height:14px>, you can use the interactive diagram on the right, or perform the operation in your mind. Point the arrow at the first number on the hexagon, then move the arrow the second number of points clockwise around the hexagon. The number the arrow arrives at is your result.)","response_type":"free","response_choices":[],"correct_response":"3","response":"3","explain":false,"explanation":"","explanation_history":[],"orientation_history":[[0]],"response_history":["3"],"rt":4713,"trial_type":"polygon-arrow-question","trial_index":0,"trial_index_global":11,"time_elapsed":271269,"internal_chunk_id":"0-0.3-0"},{"nsides":6,"feedback":"Correct! 3 <img  src=./ images/hexagon_symbol.png style=width:14px;height:14px> 0 = 3 because 0 steps clockwise on the hexagon from 3 brings us to 3","orientation_history":[0],"rt":964,"trial_type":"polygon-arrow-feedback","trial_index":0,"trial_index_global":12,"time_elapsed":272234,"internal_chunk_id":"0-0.3-0"},{"nsides":6,"question":"What is 4 <img src=./images/hexagon_symbol.png style=width:14px;height:14px> 4? <br /><br /> (Remember, to perform <img src=./images/hexagon_symbol.png style=width:14px;height:14px>, you can use the interactive diagram on the right, or perform the operation in your mind. Point the arrow at the first number on the hexagon, then move the arrow the second number of points clockwise around the hexagon. The number the arrow arrives at is your result.)","response_type":"free","response_choices":[],"correct_response":"2","response":"2","explain":false,"explanation":"","explanation_history":[],"orientation_history":[[0],[0,0,0,0,0.0012324371379091037,-0.012486608908077512,-0.06101910402513755,6.170145342814818,6.094561452174148,6.007823113498164,5.848999017951893,5.730818790556137,5.6519243480257515,5.493759547608535,5.382800394076666,5.207388489441854,5.029213466252909,4.816590657025911,4.586839243276165,4.437026786703267,4.399699734067951,4.379239955932329,4.364573190614678,4.364573190614678,4.364573190614678,4.3254916026294055,4.3254916026294055,4.3254916026294055,4.2940404079112415,4.239631226853387,4.2295305602680635,4.1789712753022545,4.1789712753022545,4.1789712753022545,4.1789712753022545,4.186902371395977,4.186902371395977,4.186902371395977,4.186902371395977,4.186902371395977,4.186902371395977,4.186902371395977,4.186902371395977,4.186902371395977,4.186902371395977,4.253915969440783,4.342965552075281,4.495326405071076,4.654419680526297,4.831817906403028,4.979977927134859,5.113941638545743,5.1894180738917335,5.271492675828831,5.296848640386299,5.3091632887767,5.3212399963117925,5.3212399963117925,5.3212399963117925,5.3212399963117925,5.3212399963117925,5.3212399963117925,5.3212399963117925,5.3212399963117925,5.3212399963117925,5.3212399963117925,5.3212399963117925,5.3212399963117925,5.3212399963117925,5.3212399963117925,5.3212399963117925,5.3212399963117925,5.366108780647362,5.430809078633329,5.520601509035263,5.686072559101522,5.883468118951402,5.970802997624233,6.063321618743879,6.120911940821838,-0.07796663383154234,-0.03851343273450292,0.011537184520068022,0.035468357975673825,0.04794599185425574,0.04794599185425574,0.04794599185425574,0.04794599185425574,0.04794599185425574,0.04794599185425574,0.04794599185425574,0.04794599185425574,0.04794599185425574,0.04794599185425574,0.060384336345582934,0.060384336345582934,0.060384336345582934,0.060384336345582934,0.07277974728887915,0.10967313797282374,0.20877877030039893,0.315901976904819,0.35360641739196286,0.4869377681992342,0.6343909642627866,0.7391669030943638,0.8078676416147568,0.8364813253001625,0.8786702656713437,0.8932334059943364,0.9134228662417374,0.9418472052897167,0.9471746384363624,0.9471746384363624,0.9471746384363624,0.9471746384363624,0.9471746384363624,0.9471746384363624,0.9471746384363624,0.9471746384363624,0.9471746384363624,0.9471746384363624,0.9471746384363624,0.9471746384363624,0.9471746384363624,0.9559189502233085,0.9975184618869339,1.0798299762426602,1.2131255404997232,1.3537337514812828,1.4243096774046589,1.4832146046636516,1.5208597329232008,1.5752116235550448,1.628357406948855,1.688492152295406,1.718982128696156,1.7523301567820433,1.7523301567820433,1.7523301567820433,1.7523301567820433,1.7501534079344427,1.7746015602367065,1.782676182874974,1.782676182874974,1.782676182874974,1.782676182874974,1.782676182874974,1.799117562300411,1.8272377991940485,1.8543602458310233,1.8987184878911674,1.9056735979059387,1.9056735979059387,1.9056735979059387,1.9056735979059387,1.9056735979059387,1.9056735979059387,1.9056735979059387,1.9056735979059387,1.9056735979059387,1.9056735979059387,1.9056735979059387,2.0943951023931953]],"response_history":["2\n","2"],"rt":8351,"trial_type":"polygon-arrow-question","trial_index":0,"trial_index_global":13,"time_elapsed":280586,"internal_chunk_id":"0-0.3-0"},{"nsides":6,"feedback":"Correct! 4 <img src=./images/hexagon_symbol.png style=width:14px;height:14px> 4 = 2 because 4 steps clockwise on the hexagon from 4 brings us to 2","orientation_history":[0],"rt":925,"trial_type":"polygon-arrow-feedback","trial_index":0,"trial_index_global":14,"time_elapsed":281512,"internal_chunk_id":"0-0.3-0"},{"nsides":6,"question":"What is 1 <img src=./images/hexagon_symbol.png style=width:14px;height:14px> 3? <br /><br /> (Remember, to perform <img src=./images/hexagon_symbol.png style=width:14px;height:14px>, you can use the interactive diagram on the right, or perform the operation in your mind. Point the arrow at the first number on the hexagon, then move the arrow the second number of points clockwise around the hexagon. The number the arrow arrives  at is y our result.)","response_type":"free","response_choices":[],"correct_response":"4","response":"4","explain":false,"explanation":"","explanation_history":[],"orientation_history":[[0],[0,0,0,0,0.0281169693008696,0.07294180474840606,0.11785069072338294,0.16348692969878487,0.22393441368018174,0.26607299812329543,0.3029345097162397,0.3168406102192127,0.3767302192971911,0.39006276259133665,0.41625764291320655,0.5396824772755475,0.6353941593896387,0.7269428364907808,0.7869308360164655,0.7869308360164655,0.7869308360164655,0.7869308360164655,0.7869308360164655,0.7869308360164655,0.8159924191252786,0.888552035392644,0.9934818571279935,1.0392353754103503,1.0512165142127772,1.0512165142127772,1.0512165142127772,1.0512165142127772,1.0512165142127772,1.0512165142127772,1.0512165142127772,1.0512165142127772,1.0512165142127772,1.0570126665095356,1.0679378767268293,1.0789871508061981,1.0789871508061981,1.0789871508061981,1.0789871508061981,1.0789871508061981,1.0789871508061981,1.0789871508061981,1.0789871508061981,1.0789871508061981,1.0789871508061981,1.0789871508061981,1.0789871508061981,1.0789871508061981,1.0789871508061981,1.0789871508061981,1.0789871508061981,1.0789871508061981,1.0789871508061981,1.0789871508061981,1.0789871508061981,1.0789871508061981,1.0789871508061981,1.0789871508061981,1.0789871508061981,1.0789871508061981,1.0789871508061981,1.0789871508061981,1.0789871508061981,1.0789871508061981,1.0789871508061981,1.0789871508061981,1.0789871508061981,1.0789871508061981,1.0789871508061981,1.0789871508061981,1.0789871508061981,1.0789871508061981,1.0789871508061981,1.0789871508061981,1.0789871508061981,1.0789871508061981,1.0789871508061981,1.0789871508061981,1.0789871508061981,1.0789871508061981,1.0789871508061981,1.0789871508061981,1.0789871508061981,1.0789871508061981,1.0789871508061981,1.0789871508061981,1.0789871508061981,1.0789871508061981,1.0789871508061981,1.0789871508061981,1.0789871508061981,1.0789871508061981,1.0789871508061981,1.0789871508061981,1.0789871508061981,1.0789871508061981,1.0789871508061981,1.0789871508061981,1.0789871508061981,1.0789871508061981,1.0789871508061981,1.0471975511965976]],"response_history":["4"],"rt":5672,"trial_type":"polygon-arrow-question","trial_index":0,"trial_index_global":15,"time_elapsed":287185,"internal_chunk_id":"0-0.3-0"},{"nsides":6,"feedback":"Correct! 1 <img src=./images/hexagon_symbol.png style=width:14px;height:14px> 3 = 4 because 3 steps clockwise on the hexagon from 1 brings us to 4","orientation_history":[0],"rt":935,"trial_type":"polygon-arrow-feedback","trial_index":0,"trial_index_global":16,"time_elapsed":288121,"internal_chunk_id":"0-0.3-0"},{"nsides":6,"question":"What is 4 <img src=./images/hexagon_symbol.png style=width:14px;height:14px> 3? <br /><br /> (Remember, to perform <img src=./images/hexagon_symbol.png style=width:14px;height:14px>, you can use the interactive diagram on the right, or perform the operation in your mind. Point the arrow at the  first n umber on the hexagon, then move the arrow the second number of points clockwise around the hexagon. The number the arrow arrives at is your result.)","response_type":"free","response_choices":[],"correct_response":"1","response":"1","explain":false,"explanation":"","explanation_history":[],"orientation_history":[[0]],"response_history":["1"],"rt":42967,"trial_type":"polygon-arrow-question","trial_index":0,"trial_index_global":17,"time_elapsed":331089,"internal_chunk_id":"0-0.3-0"},{"nsides":6,"feedback":"Correct! 4 <img src=./images/hexagon_symbol.png style=width:14px;height:14px> 3 = 1 because 3 steps clockwise on the hexagon from 4 brings us to 1","orientation_history":[0],"rt":941,"trial_type":"polygon-arrow-feedback","trial_index":0,"trial_index_global":18,"time_elapsed":332032,"internal_chunk_id":"0-0.3-0"},{"nsides":6,"question":"What is 0 <img src=./images/hexagon_symbol.png style=width:14px;height:14px> 5? <br /><br /> (Remember, to perform <img src=./image s/hexagon_symbol.png style=width:14px;height:14px>, you can use the interactive diagram on the right, or perform the operation in your mind. Point the arrow at the first number on the hexagon, then move the arrow the second number of points clockwise around the hexagon. The number the arrow arrives at is your result.)","response_type":"free","response_choices":[],"correct_response":"5","response":"5","explain":false,"explanation":"","explanation_history":[],"orientation_history":[[0]],"response_history":["5"],"rt":7095,"trial_type":"polygon-arrow-question","trial_index":0,"trial_index_global":19,"time_elapsed":339128,"internal_chunk_id":"0-0.3-0"},{"nsides":6,"feedback":"Correct! 0 <img src=./images/hexagon_symbol.png style=width:14px;height:14px> 5 = 5 because 5 steps clockwise on the hexagon from 0 brings us to 5","orientation_history":[0],"rt":1015,"trial_type":"polygon-arrow-feedback","trial_index":0,"trial_index_global":20,"time_elapsed":340145,"internal_chunk_id":"0-0.3-0"},{"nsides":6,"question":"What is 2 <img src=./images/hexagon_symbol.png style=width:14px;height:14px> 5? <br /><br /> (Remember, to perform <img src=./images/hexagon_symbol.png style=width:14px;height:14px>, you can use the interactive diagram on the right, or perform the operation in your mind. Point the arrow at the first number on the hexagon, then move the arrow the second number of points clockwise around the hexagon. The number the arrow arrives at is your result.)","response_type":"free","response_choices":[],"correct_response":"1","response":"1","explain":false,"explanation":"","explanation_history":[],"orientation_history":[[0]],"response_history":["1"],"rt":6918,"trial_type":"polygon-arrow-question","trial_index":0,"trial_index_global":21,"time_elapsed":347065,"internal_chunk_id":"0-0.3-0"},{"nsides":6,"feedback":"Correct! 2 <img src=./images/hexagon_symbol.png style=width:14px;height:14px> 5 = 1 because 5 steps clockwise on the h exagon f rom 2 brings us to 1","orientation_history":[0],"rt":808,"trial_type":"polygon-arrow-feedback","trial_index":0,"trial_index_global":22,"time_elapsed":347873,"internal_chunk_id":"0-0.3-0"},{"nsides":6,"instructions":"Now we're going to discuss a couple special properties of this new operation, <img src=./images/hexagon_symbol.png style=width:14px;height:14px> that we've learned. First, notice that the number 0 behaves in a special way under <img src=./images/hexagon_symbol.png style=width:14px;height:14px>. Whenever we combine 0 with anything else, we get that same thing back. We'll say that 0 is the <i>identity</i> under <img src=./images/hexagon_symbol.png style=width:14px;height:14px>, because when you combine it with something it gives you that identical thing back.","orientation_history":[0],"rt":35650,"trial_type":"polygon-arrow-instructions","trial_index":0,"trial_index_global":23,"time_elapsed":383528,"internal_chunk_id":"0-0"},{"nsides":6,"instructions":"Now that we know 0 is the identity under <img src=./images/hexagon_symbol.png style=width:14px;height:14px>, we're going to make a new definition. We'll say that the <i>inverse</i> of a number is the element that you combine with it to produce the identity under our operation. For example, 5 <img src=./images/hexagon_symbol.png style=width:14px;height:14px> 1 = 0, so we say 1 is the inverse of 5 under <img src=./images/hexagon_symbol.png style=width:14px;height:14px>, (remember 0 is the identity under <img src=./images/hexagon_symbol.png style=width:14px;height:14px>). Similarly, 3 is its own inverse under <img src=./images/hexagon_symbol.png style=width:14px;height:14px>, because 3 <img src=./images/hexagon_symbol.png style=width:14px;height:14px> 3 = 0.","orientation_history":[0],"rt":37945,"trial_type":"polygon-arrow-instructions","trial_index":0,"trial_index_global":24,"time_elapsed":421473,"internal_chunk_id":"0-0"},{"nsides":6,"question":"Now you try! What is the inverse of 4 under <img src=./images/hexagon_symbol.png style=width:14px;height:14px>? <br /><br /> (Remember, the inverse of an element is the thing which you combine with it to produce the identity.)","response_type":"free","response_choices":[],"correct_response":"2","response":"2","explain":false,"explanation":"","explanation_history":[],"orientation_history":[[0]],"response_history":["2"],"rt":5317,"trial_type":"polygon-arrow-question","trial_index":0,"trial_index_global":25,"time_elapsed":426792,"internal_chunk_id":"0-0.7-0"},{"nsides":6,"feedback":"Correct! The inverse of 4 under <img src=./images/hexagon_symbol.png style=width:14px;height:14px> is 2 because 4 <img src=./images/hexagon_symbol.png style=width:14px;height:14px> 2 = 0, and 0 is the identity under <img src=./images/hexagon_symbol.png style=width:14px;height:14px>.","orientation_history":[0],"rt":942,"trial_type":"polygon-arrow-feedback ","trial_index":0,"trial_index_global":26,"time_elapsed":427735,"internal_chunk_id":"0-0.7-0"},{"nsides":6,"question":"What is the inverse of 1 under <img src=./images/hexagon_symbol.png style=width:14px;height:14px>? <br /><br /> (Remember, the inverse of an element is the thing which you combine with it to produce the identity.)","response_type":"free","response_choices":[],"correct_response":"5","response":"5","explain":false,"explanation":"","explanation_history":[],"orientation_history":[[0]],"response_history":["5"],"rt":5406,"trial_type":"polygon-arrow-question","trial_index":0,"trial_index_global":27,"time_elapsed":433143,"internal_chunk_id":"0-0.7-0"},{"nsides":6,"feedback":"Correct! The inverse of 1 under <img src=./images/hexagon_symbol.png style=width:14px;height:14px> is 5 because 1 <img src=./images/hexagon_symbol.png style=width:14px;height:14px> 5 = 0, and 0 is the identity under <img src=./images/hexagon_symbol.png style=width:14px;heig ht:14px>.","orientation_history":[0],"rt":759,"trial_type":"polygon-arrow-feedback","trial_index":0,"trial_index_global":28,"time_elapsed":433903,"internal_chunk_id":"0-0.7-0"},{"nsides":6,"question":"What is the inverse of 3 under <img src=./images/hexagon_symbol.png style=width:14px;height:14px>? <br /><br /> (Remember, the inverse of an element is the thing which you combine with it to produce the identity.)","response_type":"free","response_choices":[],"correct_response":"3","response":"3","explain":false,"explanation":"","explanation_history":[],"orientation_history":[[0]],"response_history":["3"],"rt":1623,"trial_type":"polygon-arrow-question","trial_index":0,"trial_index_global":29,"time_elapsed":435527,"internal_chunk_id":"0-0.7-0"},{"nsides":6,"feedback":"Correct! The inverse of 3 under <img src=./images/hexagon_symbol.png style=width:14px;height:14px> is 3 because 3 <img src=./images/hexagon_symbol.png style=width:14px;height:14px> 3 = 0, and 0 is  the ide ntity under <img src=./images/hexagon_symbol.png style=width:14px;height:14px>.","orientation_history":[0],"rt":759,"trial_type":"polygon-arrow-feedback","trial_index":0,"trial_index_global":30,"time_elapsed":436287,"internal_chunk_id":"0-0.7-0"},{"nsides":6,"question":"What is the inverse of 2 under <img src=./images/hexagon_symbol.png style=width:14px;height:14px>? <br /><br /> (Remember, the inverse of an element is the thing which you combine with it to produce the identity.)","response_type":"free","response_choices":[],"correct_response":"4","response":"4","explain":false,"explanation":"","explanation_history":[],"orientation_history":[[0]],"response_history":["4"],"rt":4247,"trial_type":"polygon-arrow-question","trial_index":0,"trial_index_global":31,"time_elapsed":440534,"internal_chunk_id":"0-0.7-0"},{"nsides":6,"feedback":"Correct! The inverse of 2 under <img src=./images/hexagon_symbol.png style=width:14px;height:14px> is 4 because 2 <img s rc=./i mages/hexagon_symbol.png style=width:14px;height:14px> 4 = 0, and 0 is the identity under <img src=./images/hexagon_symbol.png style=width:14px;height:14px>.","orientation_history":[0],"rt":751,"trial_type":"polygon-arrow-feedback","trial_index":0,"trial_index_global":32,"time_elapsed":441286,"internal_chunk_id":"0-0.7-0"},{"nsides":6,"question":"What is the inverse of 0 under <img src=./images/hexagon_symbol.png style=width:14px;height:14px>? <br /><br /> (Remember, the inverse of an element is the thing which you combine with it to produce the identity.)","response_type":"free","response_choices":[],"correct_response":"0","response":"0","explain":false,"explanation":"","explanation_history":[],"orientation_history":[[0]],"response_history":["0"],"rt":3199,"trial_type":"polygon-arrow-question","trial_index":0,"trial_index_global":33,"time_elapsed":444486,"internal_chunk_id":"0-0.7-0"},{"nsides":6,"feedback":"Correct! The inverse of 0 under <img src=. /images/ hexagon_symbol.png style=width:14px;height:14px> is 0 because 0 <img src=./images/hexagon_symbol.png style=width:14px;height:14px> 0 = 0, and 0 is the identity under <img src=./images/hexagon_symbol.png style=width:14px;height:14px>.","orientation_history":[0],"rt":735,"trial_type":"polygon-arrow-feedback","trial_index":0,"trial_index_global":34,"time_elapsed":445222,"internal_chunk_id":"0-0.7-0"},{"instructions":"It is also possible to successively apply <img src=./images/hexagon_symbol.png style=width:14px;height:14px>, and the operation can simply be performed starting with the left-most pair. For example, 2 <img src=./images/hexagon_symbol.png style=width:14px;height:14px> 3 <img src=./images/hexagon_symbol.png style=width:14px;height:14px> 4 = 5 <img src=./images/hexagon_symbol.png style=width:14px;height:14px> 4 = 3.","rt":27558,"trial_type":"instructions","trial_index":0,"trial_index_global":35,"time_elapsed":472782,"internal_chunk_id":"0-0"},{"nsides":6,"instructions":"We have one last definition to learn today, using the successive operations we just learned. Let's start with an example. Under our operation <img src=./images/hexagon_symbol.png style=width:14px;height:14px> we can make every other number using just 1: 2 = 1 <img src=./images/hexagon_symbol.png style=width:14px;height:14px> 1, 3 = 1 <img src=./images/hexagon_symbol.png style=width:14px;height:14px> 1 <img src=./images/hexagon_symbol.png style=width:14px;height:14px> 1, 4 = 1 <img src=./images/hexagon_symbol.png style=width:14px;height:14px> 1 <img src=./images/hexagon_symbol.png style=width:14px;height:14px> 1 <img src=./images/hexagon_symbol.png style=width:14px;height:14px> 1, 5 = 1 <img src=./images/hexagon_symbol.png style=width:14px;height:14px> 1 <img src=./images/hexagon_symbol.png style=width:14px;height:14px> 1 <img src=./images/hexagon_symbol. png st yle=width:14px;height:14px> 1 <img src=./images/hexagon_symbol.png style=width:14px;height:14px> 1, and 0 = 1 <img src=./images/hexagon_symbol.png style=width:14px;height:14px> 1 <img src=./images/hexagon_symbol.png style=width:14px;height:14px> 1 <img src=./images/hexagon_symbol.png style=width:14px;height:14px> 1 <img src=./images/hexagon_symbol.png style=width:14px;height:14px> 1 <img src=./images/hexagon_symbol.png style=width:14px;height:14px> 1. Because 1 can make every other element under <img src=./images/hexagon_symbol.png style=width:14px;height:14px>, we say that 1 is a <i>generator</i> under <img src=./images/hexagon_symbol.png style=width:14px;height:14px>. <br /><br /> However, 2 is not a generator under <img src=./images/hexagon_symbol.png style=width:14px;height:14px>, because 4 = 2 <img src=./images/hexagon_symbol.png style=width:14px;height:14px> 2, and 0 = 2 <img src=./im ages/hex agon_symbol.png style=width:14px;height:14px> 2 <img src=./images/hexagon_symbol.png style=width:14px;height:14px> 2, but there is no way to make 1, 3, or 5 using just 2.","orientation_history":[0],"rt":125334,"trial_type":"polygon-arrow-instructions","trial_index":0,"trial_index_global":36,"time_elapsed":598119,"internal_chunk_id":"0-0"},{"nsides":6,"question":"Now you try! Is 3 a generator under <img src=./images/hexagon_symbol.png style=width:14px;height:14px>? <br /><br /> (Remember, a generator is an element which can make every other element.)","response_type":"multi","response_choices":["Yes","No"],"correct_response":"No","response":"No","explain":false,"explanation":"","explanation_history":[],"orientation_history":[[0]],"response_history":["No"],"rt":5293,"trial_type":"polygon-arrow-question","trial_index":0,"trial_index_global":37,"time_elapsed":603414,"internal_chunk_id":"0-0.10-0"},{"nsides":6,"feedback":"Correct! 3 is not a generator under  <img src =./images/hexagon_symbol.png style=width:14px;height:14px>, because 3 = 3, 0 = 3 <img src=./images/hexagon_symbol.png style=width:14px;height:14px> 3, but there is no way to make 1, 2, 4, or 5 using just 3.","orientation_history":[0],"rt":967,"trial_type":"polygon-arrow-feedback","trial_index":0,"trial_index_global":38,"time_elapsed":604382,"internal_chunk_id":"0-0.10-0"},{"nsides":6,"question":"Is 5 a generator under <img src=./images/hexagon_symbol.png style=width:14px;height:14px>? <br /><br /> (Remember, a generator is an element which can make every other element.)","response_type":"multi","response_choices":["Yes","No"],"correct_response":"Yes","response":"No","explain":false,"explanation":"","explanation_history":[],"orientation_history":[[0]],"response_history":["No"],"rt":2014,"trial_type":"polygon-arrow-question","trial_index":0,"trial_index_global":39,"time_elapsed":606398,"internal_chunk_id":"0-0.10-0"},{"nsides":6,"feedback":"Sorry, that' s incorr ect. 5 is a generator under <img src=./images/hexagon_symbol.png style=width:14px;height:14px>, because 5 = 5, 4 = 5 <img src=./images/hexagon_symbol.png style=width:14px;height:14px> 5, 3 = 5 <img src=./images/hexagon_symbol.png style=width:14px;height:14px> 5 <img src=./images/hexagon_symbol.png style=width:14px;height:14px> 5, 2 = 5 <img src=./images/hexagon_symbol.png style=width:14px;height:14px> 5 <img src=./images/hexagon_symbol.png style=width:14px;height:14px> 5 <img src=./images/hexagon_symbol.png style=width:14px;height:14px> 5, 1 = 5 <img src=./images/hexagon_symbol.png style=width:14px;height:14px> 5 <img src=./images/hexagon_symbol.png style=width:14px;height:14px> 5 <img src=./images/hexagon_symbol.png style=width:14px;height:14px> 5 <img src=./images/hexagon_symbol.png style=width:14px;height:14px> 5, and 0 = 5 <img src=./images/hexagon_symbol.png style=width:14px;he ight:14p x> 5 <img src=./images/hexagon_symbol.png style=width:14px;height:14px> 5 <img src=./images/hexagon_symbol.png style=width:14px;height:14px> 5 <img src=./images/hexagon_symbol.png style=width:14px;height:14px> 5 <img src=./images/hexagon_symbol.png style=width:14px;height:14px> 5, so you can make all of the numbers under <img src=./images/hexagon_symbol.png style=width:14px;height:14px> using 5","orientation_history":[0],"rt":10615,"trial_type":"polygon-arrow-feedback","trial_index":0,"trial_index_global":40,"time_elapsed":617014,"internal_chunk_id":"0-0.10-0"},{"nsides":6,"question":"Is 4 a generator under <img src=./images/hexagon_symbol.png style=width:14px;height:14px>? <br /><br /> (Remember, a generator is an element which can make every other element.)","response_type":"multi","response_choices":["Yes","No"],"correct_response":"No","response":"No","explain":false,"explanation":"","explanation_history":[],"orientation_history":[[0]],"response_history":["No"],"rt":4208,"trial_type":"polygon-arrow-question","trial_index":0,"trial_index_global":41,"time_elapsed":621223,"internal_chunk_id":"0-0.10-0"},{"nsides":6,"feedback":"Correct! 4 is not a generator under <img src=./images/hexagon_symbol.png style=width:14px;height:14px>, because 4 = 4, 2 = 4 <img src=./images/hexagon_symbol.png style=width:14px;height:14px> 4, and 0 = 4 <img src=./images/hexagon_symbol.png style=width:14px;height:14px> 4 <img src=./images/hexagon_symbol.png style=width:14px;height:14px> 4, but there is no way to make 1, 3, or 5 using just 4.","orientation_history":[0],"rt":1286,"trial_type":"polygon-arrow-feedback","trial_index":0,"trial_index_global":42,"time_elapsed":622510,"internal_chunk_id":"0-0.10-0"},{"nsides":6,"question":"Is 0 a generator under <img src=./images/hexagon_symbol.png style=width:14px;height:14px>? <br /><br /> (Remember, a generator is an element which can make every  other e lement.)","response_type":"multi","response_choices":["Yes","No"],"correct_response":"No","response":"No","explain":false,"explanation":"","explanation_history":[],"orientation_history":[[0]],"response_history":["No"],"rt":17910,"trial_type":"polygon-arrow-question","trial_index":0,"trial_index_global":43,"time_elapsed":640421,"internal_chunk_id":"0-0.10-0"},{"nsides":6,"feedback":"Correct! 0 is not a generator under <img src=./images/hexagon_symbol.png style=width:14px;height:14px>, because 0 = 0, but there is no way to make 1, 2, 3, 4, or 5 using just 0.","orientation_history":[0],"rt":920,"trial_type":"polygon-arrow-feedback","trial_index":0,"trial_index_global":44,"time_elapsed":641342,"internal_chunk_id":"0-0.10-0"},{"nsides":9,"instructions":"Now we are going to ask you some questions about a new operation, <img src=./images/nonagon_symbol.png style=width:14px;height:14px>, on the numbers 0, 1, 2, 3, 4, 5, 6, 7, 8. It works exactly like <img src=./ima ges/hexa gon_symbol.png style=width:14px;height:14px>, except now you use the nonagon shown at the right. <br /><br />Do you see how <img src=./images/nonagon_symbol.png style=width:14px;height:14px> works just like <img src=./images/hexagon_symbol.png style=width:14px;height:14px>? By labeling the points of the nonagon with the numbers from 0 to 8, we ensure that when we combine two numbers under <img src=./images/nonagon_symbol.png style=width:14px;height:14px>, we only produce numbers between 0 and 8. <br /><br />We'll give you one practice question with feedback to make sure you understand the new operation. After that, try to complete the remaining questions as accurately as possible.","orientation_history":[0],"rt":35015,"trial_type":"polygon-arrow-instructions","trial_index":0,"trial_index_global":45,"time_elapsed":676358,"internal_chunk_id":"0-0"},{"nsides":9,"question":"Practice: What is 5 <img src=./images/nonagon_symbol.png style=width:1 4px;heig ht:14px> 5?","response_type":"free","response_choices":[],"correct_response":"1","response":"1","explain":false,"explanation":"","explanation_history":[],"orientation_history":[[0],[0,0,0,0,0,0,0,0,0,0,0,-0.0005202913162152267,-0.01639197430800521,-0.01639197430800521,-0.01639197430800521,6.250921649879791,6.234018188467505,6.217652598455561,6.216834937149638,6.148701304452487,6.1466845973046675,6.129727158561393,6.110191455889566,6.086939833079103,6.035702665675684,5.957862588947839,5.925177842223773,5.813454637017018,5.792393450079674,5.7219294174200375,5.600824095492471,5.386443463131377,4.914665951950626,4.344552212073133,4.075747520093863,3.910598842679236,3.758833687351533,3.6583563847894176,3.6002114355468846,3.577979151105324,3.5625385710296715,3.552781460966415,3.552781460966415,3.543425008861017,3.543425008861017,3.499534295289372,3.4814203346779378,3.460373246418521,3.460373246418521,3.460373246418521,3.460373246418521,3.460373246418521,3.460373246418521,3.460373246418521,3.460373246418521,3.460373246418521,3.460373246418521,3.460373246418521,3.460373246418521,3.460373246418521,3.460373246418521,3.460373246418521,3.515807722979475,3.5787983753895594,3.635689001198564,3.6635751926280182,3.723169730235562,3.7539969656972207,3.788403671987881,3.813559456697237,3.848730996814856,3.892743597539684,3.928778657752215,3.946946463698257,3.983198296409731,4.019260058519824,4.019260058519824,4.019260058519824,4.019260058519824,4.019260058519824,4.019260058519824,4.019260058519824,4.019260058519824,4.019260058519824,4.019260058519824,4.019260058519824,4.019260058519824,4.019260058519824,4.019260058519824,4.080127054137158,4.209097774265415,4.332603872581454,4.488500779641482,4.568487447861446,4.645407297307299,4.708496355096045,4.769037571379803,4.82775927255461,4.893392565926565,4.965164498862384,4.9758141145999275,4.9863989486251254,4.9863989486251254,4.9863989486251254,4.9863989486251254,4.9863989486251254,4.9863989486251254,4.9863989486251254,4.9863989486251254,4.9863989486251254,4.9863989486251254,4.9863989486251254,4.9863989486251254,4.9863989486251254,4.9863989486251254,4.9863989486251254,5.017747560473326,5.078483578620617,5.126164307427451,5.245557019603064,5.364286424907268,5.423488964226025,5.4454394491535325,5.452831511635372,5.459815785907603,5.474303089799813,5.474303089799813,5.488487249148452,5.488487249148452,5.488487249148452,5.488487249148452,5.488487249148452,5.488487249148452,5.488487249148452,5.488487249148452,5.488487249148452,5.488487249148452,5.488487249148452,5.488487249148452,5.523037748572721,5.564536401362574,5.673443186714863,5.769685413421124,5.886286955759216,6.03726597862829,6.095753707402657,6.170599905312711,6.1792979920691895,6.196732750233125,6.205466821731215,6.2059987769967915,6.214666683825935,6.214666683825935,6.214666683825935,6.214666683825935,6.214666683825935,6.214666683825935,6.214666683825935,6.214666683825935,6.214666683825935,6.214666683825935,6.258097899859802,0.07034636436797981,0.1642266362762621,0.25500330649363057,0.3105668663277088,0.37777060996226886,0.4143005370785027,0.4143005370785027,0.43995649424910366,0.44357918066869106,0.4764444226855955,0.5057967268986179,0.5099041713100327,0.5169952930803996,0.5169952930803996,0.5169952930803996,0.5240275259625788,0.5240275259625788,0.5379155218935459,0.5379155218935459,0.5379155218935459,0.5671162774781016,0.5738477619727729,0.6076310786687515,0.6495772630711046,0.7016923132967379,0.7356851932111959,0.7356851932111959,0.7356851932111959,0.7356851932111959,0.7356851932111959,0.7356851932111959,0.7356851932111959,0.7356851932111959,0.7356851932111959,0.7356851932111959,0.7356851932111959,0.7356851932111959,0.7356851932111959,0.7240925936196537,0.6981317007977318]],"response_history":["1"],"rt":8395,"trial_type":"polygon-arrow-question","trial_index":0,"trial_index_global":46,"time_elapsed":684755,"internal_chunk_id":"0-0.12-0"},{"nsides":9,"feedback":"Correct! 5 <img src=./images/nonagon_symbol.png style= width: 14px;height:14px> 5 = 1 because 5 steps clockwise on the nonagon from 5 brings us to 1","orientation_history":[0],"rt":958,"trial_type":"polygon-arrow-feedback","trial_index":0,"trial_index_global":47,"time_elapsed":685714,"internal_chunk_id":"0-0.12-0"},{"nsides":9,"question":"What is 3 <img src=./images/nonagon_symbol.png style=width:14px;height:14px> 3?","response_type":"free","response_choices":[],"correct_response":"6","response":"6","explain":false,"explanation":"","explanation_history":[],"orientation_history":[[0]],"response_history":["6"],"rt":3800,"trial_type":"polygon-arrow-question","trial_index":0,"trial_index_global":48,"time_elapsed":689515,"internal_chunk_id":"0-0.12-0"},{"nsides":9,"question":"What is 7 <img src=./images/nonagon_symbol.png style=width:14px;height:14px> 4?","response_type":"free","response_choices":[],"correct_response":"2","response":"2","explain":false,"explanation":"","explanation_history":[],"orientation_history":[[0]],"response_history":["2"],"rt":5391,"trial_type":"polygon-arrow-question","trial_index":0,"trial_index_global":49,"time_elapsed":694907,"internal_chunk_id":"0-0.12-0"},{"nsides":9,"question":"What is 1 <img src=./images/nonagon_symbol.png style=width:14px;height:14px> 8?","response_type":"free","response_choices":[],"correct_response":"0","response":"0","explain":false,"explanation":"","explanation_history":[],"orientation_history":[[0]],"response_history":["0"],"rt":6631,"trial_type":"polygon-arrow-question","trial_index":0,"trial_index_global":50,"time_elapsed":701539,"internal_chunk_id":"0-0.12-0"},{"nsides":9,"question":"What is 5 <img src=./images/nonagon_symbol.png style=width:14px;height:14px> 4?","response_type":"free","response_choices":[],"correct_response":"0","response":"0","explain":false,"explanation":"","explanation_history":[],"orientation_history":[[0]],"response_history":["0"],"rt":6534,"trial_type":"polygon-arrow-question","trial_index":0,"trial_index_global":51,"time_elapsed":708075,"internal_chunk_id":"0-0.12-0"},{"nsides":9,"question":"What is 6 <img src=./images/nonagon_symbol.png style=width:14px;height:14px> 6?","response_type":"free","response_choices":[],"correct_response":"3","response":"3","explain":false,"explanation":"","explanation_history":[],"orientation_history":[[0]],"response_history":["3"],"rt":5287,"trial_type":"polygon-arrow-question","trial_index":0,"trial_index_global":52,"time_elapsed":713363,"internal_chunk_id":"0-0.12-0"},{"nsides":9,"instructions":"On the following question, and several others later in the HIT, we will ask you to explain how you got your answer. On these questions, you will be given one box for your answer to the question, and a second for your explanation. Please explain your thought process in as much detail as possible (at least one sentence, and more if you can).","orientation_history":[0],"rt":14800,"trial_type":"polygon-arrow-instructions","trial_index":0,"trial_index_global":53,"time_elapsed":728164,"internal_chunk_id":"0-0.12-0"},{"nsides":9,"question":"What is 4 <img src=./images/nonagon_symbol.png style=width:14px;height:14px> 1? Please explain in words how you got your answer.","response_type":"free","response_choices":[],"correct_response":"5","response":"5","explain":true,"explanation":"One step plus four equals five.","explanation_history":["One step + ","One step +","One step plus four equals 5.","One step plus four equals 5","One step plus four equals ","One step plus four equals five."],"orientation_history":[[0]],"response_history":["5"],"rt":48767,"trial_type":"polygon-arrow-question","trial_index":0,"trial_index_global":54,"time_elapsed":776932,"internal_chunk_id":"0-0.12-0"},{"nsides":9,"question":"What is 8 <img src=./images/nonagon_symbol.png style=width:14px;height:14px> 4? Please explain in words how you got your answer.","response_type":"free","response_choices":[],"correct_response":"3","response":"3","explain":true,"explanation":"Four steps plus eight equals three.","explanation_history":["One step plus four equals five.","4 step plus four equals five."," step plus four equals five.","F step plus four equals five.","Fou step plus four equals five.","Four step plus four equals five.","Four steps plus four equals five.","Four steps plus fou equals five.","Four steps plus fo equals five.","Four steps plus f equals five.","Four steps plus  equals five.","Four steps plus e equals five.","Four steps plus ei equals five.","Four steps plus eigh equals five.","Four steps plus eight equals five.","Four steps plus eight equals fiv.","Four steps plus eight equals fi.","Four steps plus eight equals f.","Four steps plus eight equals .","Four steps plus eight equals t.","Four steps plus eight equals th.","Four steps plus eight equals thre.","Four steps plus eight equals three."],"orientation_history":[[0]],"response_history":["3"],"rt":34532,"trial_type":"polygon-arrow-question","trial_index":0,"trial_index_global":55,"time_elapsed":811466,"internal_chunk_id":"0-0.12-0"},{"nsides":9,"question":"What is the identity under <img src=./images/nonagon_symbol.png style=width:14px;height:14px>? Please explain in words how you got your answer.","response_type":"free","response_choices":[],"correct_response":"0","response":"0","explain":true,"explanation":"Zero is the identity, because it the number that will always be the same as the number on the operation.","explanation_history":[") ",")","0 ","0","Zero is the die","Zero is the di","Zero is the d","Zero is the identity, because it the number that will h","Zero is the identity, because it the number that will always be the same as the number on the operation."],"orientation_history":[[0]],"response_history":["0"],"rt":30622,"trial_type":"polygon-arrow-question","trial_index":0,"trial_index_global":56,"time_elapsed":842089,"internal_chunk_id":"0-0.12-0"},{"nsides":9,"question":"What is the inverse of 5 under <img src=./images/no nagon_sy mbol.png style=width:14px;height:14px>?","response_type":"free","response_choices":[],"correct_response":"4","response":"4","explain":false,"explanation":"","explanation_history":[],"orientation_history":[[0]],"response_history":["4"],"rt":17160,"trial_type":"polygon-arrow-question","trial_index":0,"trial_index_global":57,"time_elapsed":859250,"internal_chunk_id":"0-0.12-0"},{"nsides":9,"question":"What is the inverse of 2 under <img src=./images/nonagon_symbol.png style=width:14px;height:14px>?","response_type":"free","response_choices":[],"correct_response":"7","response":"7","explain":false,"explanation":"","explanation_history":[],"orientation_history":[[0]],"response_history":["7"],"rt":6869,"trial_type":"polygon-arrow-question","trial_index":0,"trial_index_global":58,"time_elapsed":866120,"internal_chunk_id":"0-0.12-0"},{"nsides":9,"question":"What is the inverse of 0 under <img src=./images/nonagon_symbol.png style=width:14px;height:14px>?","response_type":"free","response_choices":[],"correct_response":"0","response":"0","explain":false,"explanation":"","explanation_history":[],"orientation_history":[[0]],"response_history":["0"],"rt":4134,"trial_type":"polygon-arrow-question","trial_index":0,"trial_index_global":59,"time_elapsed":870255,"internal_chunk_id":"0-0.12-0"},{"nsides":9,"question":"What is the inverse of 3 under <img src=./images/nonagon_symbol.png style=width:14px;height:14px>? Please explain in words how you got your answer.","response_type":"free","response_choices":[],"correct_response":"6","response":"6","explain":true,"explanation":"When you add six to three it makes it zero.","explanation_history":["3","When you add 6 to three it makes it zero.","When you add  to three it makes it zero.","When you add to three it makes it zero.","When you adds to three it makes it zero.","When you addsi to three it makes it zero.","When you addsix to three it makes it zero.","When you add six to three it makes it  zero."],"orientation_history":[[0]],"response_history":["6"],"rt":27920,"trial_type":"polygon-arrow-question","trial_index":0,"trial_index_global":60,"time_elapsed":898177,"internal_chunk_id":"0-0.12-0"},{"nsides":9,"question":"Is 2 a generator under <img src=./images/nonagon_symbol.png style=width:14px;height:14px>? Please explain in words how you got your answer.","response_type":"multi","response_choices":["Yes","No"],"correct_response":"Yes","response":"Yes","explain":true,"explanation":"Yes, because you can use two to make any other number.","explanation_history":["Ye, ","Ye,","Yes, bea","Yes, because you can use two to make any other u","Yes, because you can use two to make any other number."],"orientation_history":[[0]],"response_history":["Yes"],"rt":38261,"trial_type":"polygon-arrow-question","trial_index":0,"trial_index_global":61,"time_elapsed":936439,"internal_chunk_id":"0-0.12-0"},{"nsides":9,"question":"Is 3 a generator under <img src=./images/nonagon_symbol. png st yle=width:14px;height:14px>? Please explain in words how you got your answer.","response_type":"multi","response_choices":["Yes","No"],"correct_response":"No","response":"No","explain":true,"explanation":"It will not make every other number.","explanation_history":["It will not na","It will not n","It will not make everyo","It will not make every other number."],"orientation_history":[[0]],"response_history":["No"],"rt":9687,"trial_type":"polygon-arrow-question","trial_index":0,"trial_index_global":62,"time_elapsed":946127,"internal_chunk_id":"0-0.12-0"},{"nsides":9,"question":"Is 5 a generator under <img src=./images/nonagon_symbol.png style=width:14px;height:14px>? Please explain in words how you got your answer.","response_type":"multi","response_choices":["Yes","No"],"correct_response":"Yes","response":"Yes","explain":true,"explanation":"You can use five to make every number.","explanation_history":["You can use five to make every number."],"orientation_history":[[0]],"response_history":["Yes"],"rt":17215,"trial_type":"polygon-arrow-question","trial_index":0,"trial_index_global":63,"time_elapsed":963344,"internal_chunk_id":"0-0.12-0"},{"nsides":9,"question":"Is 6 a generator under <img src=./images/nonagon_symbol.png style=width:14px;height:14px>? Please explain in words how you got your answer.","response_type":"multi","response_choices":["Yes","No"],"correct_response":"No","response":"No","explain":true,"explanation":"Six will not generate every number.","explanation_history":["Six will not generate o","Six will not generate every number."],"orientation_history":[[0]],"response_history":["No"],"rt":8886,"trial_type":"polygon-arrow-question","trial_index":0,"trial_index_global":64,"time_elapsed":972232,"internal_chunk_id":"0-0.12-0"},{"nsides":"n","instructions":"Now we'd like to ask you some questions about <img src=./images/ngon_symbol.png style=width:14px;height:14px>, where n could be any positive counting number. F or examp le, n could be 3, and the polygon a triangle, or n could be any other counting number you can think of. If you need to write the operation, you can use (n), and your answers can include n to stand in for the arbitrary value if necessary. (You can use the polygon at the right to think, but it doesn't necessarily correspond to the real polygon, which is why we've left most of it dashed.)","orientation_history":[0],"rt":17413,"trial_type":"polygon-arrow-instructions","trial_index":0,"trial_index_global":65,"time_elapsed":989648,"internal_chunk_id":"0-0"},{"nsides":"n","question":"What is the formula for the inverse of 1 under <img src=./images/ngon_symbol.png style=width:14px;height:14px>?","response_type":"free","response_choices":[],"correct_response":"n-1","response":"1X","explain":false,"explanation":"","explanation_history":[],"orientation_history":[[0]],"response_history":["1=","1+x","1+","1X"],"rt":26199,"trial_type":"polygon-arrow-question","trial_index":0,"trial_index_global":66,"time_elapsed":1015848,"internal_chunk_id":"0-0.14-0"},{"nsides":"n","question":"What is the formula for the inverse of an element x under <img src=./images/ngon_symbol.png style=width:14px;height:14px>? Please explain in words why your answer is correct.","response_type":"free","response_choices":[],"correct_response":"n-x","response":"y","explain":true,"explanation":"I don't know","explanation_history":["I don't know"],"orientation_history":[[0]],"response_history":["x","y"],"rt":9895,"trial_type":"polygon-arrow-question","trial_index":0,"trial_index_global":67,"time_elapsed":1025744,"internal_chunk_id":"0-0.14-0"},{"nsides":"n","question":"Is there a pattern to which elements are generators? How can you know if an element x is a generator under <img src=./images/ngon_symbol.png style=width:14px;height:14px> without seeing whether it can make all the elements?.","response_type":"free","response_choices":[],"correct_response":"","response":"Ge nerators  can not fit into the numbers perfectly.","explain":false,"explanation":"","explanation_history":[],"orientation_history":[[0]],"response_history":["Generators can not fit into the m","Generators can not fit into the numbers perfectly."],"rt":14830,"trial_type":"polygon-arrow-question","trial_index":0,"trial_index_global":68,"time_elapsed":1040575,"internal_chunk_id":"0-0.14-0"},{"nsides":"n","question":"True or false: If x is an odd number, it must be a generator under <img src=./images/ngon_symbol.png style=width:14px;height:14px>.","response_type":"multi","response_choices":["True","False"],"correct_response":"False","response":"False","explain":false,"explanation":"","explanation_history":[],"orientation_history":[[0]],"response_history":["False"],"rt":5320,"trial_type":"polygon-arrow-question","trial_index":0,"trial_index_global":69,"time_elapsed":1045896,"internal_chunk_id":"0-0.14-0"},{"nsides":"n","question":"True or false: If x is an even number, it must not  be a ge nerator under <img src=./images/ngon_symbol.png style=width:14px;height:14px>.","response_type":"multi","response_choices":["True","False"],"correct_response":"False","response":"False","explain":false,"explanation":"","explanation_history":[],"orientation_history":[[0]],"response_history":["False"],"rt":6582,"trial_type":"polygon-arrow-question","trial_index":0,"trial_index_global":70,"time_elapsed":1052480,"internal_chunk_id":"0-0.14-0"},{"nsides":"n","question":"True or false: If x is not a generator under <img src=./images/ngon_symbol.png style=width:14px;height:14px>, x must be a divisor of n, that is, x must divide n evenly, with no remainder.","response_type":"multi","response_choices":["True","False"],"correct_response":"False","response":"False","explain":false,"explanation":"","explanation_history":[],"orientation_history":[[0]],"response_history":["False"],"rt":7431,"trial_type":"polygon-arrow-question","trial_index":0,"trial_index_global":71,"time_elapsed":1059912,"internal_chunk_id":"0-0.14-0"},{"nsides":"n","question":"True or false: If x is not a generator under <img src=./images/ngon_symbol.png style=width:14px;height:14px>, x must be a multiple of a divisor of n. Please explain in words how you got your answer.","response_type":"multi","response_choices":["True","False"],"correct_response":"True","response":"True","explain":true,"explanation":"It will go into n evenly, therefore not being able to get every number.","explanation_history":["It h","It will go into the di","It will go into the d","It will go into the n","It will go into the ","It will go into the","It will go into th","It will go into t","It will go into n evenly, therefore not g","It will go into n evenly, therefore not being able to get every number."],"orientation_history":[[0]],"response_history":["False","True"],"rt":32430,"trial_type":"polygon-arrow-question","trial_index":0,"trial_index_global":72,"time_elapsed":1092344,"internal_chunk_id":"0 -0.14-0"},{"nsides":"n","question":"If an element x is a generator under <img src=./images/ngon_symbol.png style=width:14px;height:14px>, is its inverse a generator under <img src=./images/ngon_symbol.png style=width:14px;height:14px> always, sometimes, or never?","response_type":"multi","response_choices":["Always","Sometimes","Never"],"correct_response":"Always","response":"Sometimes","explain":false,"explanation":"","explanation_history":[],"orientation_history":[[0]],"response_history":["Sometimes"],"rt":7815,"trial_type":"polygon-arrow-question","trial_index":0,"trial_index_global":73,"time_elapsed":1100160,"internal_chunk_id":"0-0.14-0"},{"nsides":"n","question":"If an element x is a generator under <img src=./images/ngon_symbol.png style=width:14px;height:14px>, is x <img src=./images/ngon_symbol.png style=width:14px;height:14px> x a generator under <img src=./images/ngon_symbol.png style=width:14px;height:14px> always, sometimes, or ne ver? Ple ase explain in words how you got your answer.","response_type":"multi","response_choices":["Always","Sometimes","Never"],"correct_response":"Sometimes","response":"Sometimes","explain":true,"explanation":"It might come up as a generator sometimes.","explanation_history":["It migt","It might copme","It might copm","It might cop","It might come up as a generator sometimes."],"orientation_history":[[0]],"response_history":["Sometimes"],"rt":28062,"trial_type":"polygon-arrow-question","trial_index":0,"trial_index_global":74,"time_elapsed":1128223,"internal_chunk_id":"0-0.14-0"},{"nsides":"n","question":"If an element x is not a generator under <img src=./images/ngon_symbol.png style=width:14px;height:14px>, is x <img src=./images/ngon_symbol.png style=width:14px;height:14px> x a generator under <img src=./images/ngon_symbol.png style=width:14px;height:14px> always, sometimes, or never?","response_type":"multi","response_choices":["Always","Sometimes","Nev er"],"correct_response":"Never","response":"Never","explain":false,"explanation":"","explanation_history":[],"orientation_history":[[0]],"response_history":["Never"],"rt":9263,"trial_type":"polygon-arrow-question","trial_index":0,"trial_index_global":75,"time_elapsed":1137487,"internal_chunk_id":"0-0.14-0"},{"instructions":"We would like to ask you some questions about your background. Please press Continue to continue.","rt":1239,"trial_type":"instructions","trial_index":0,"trial_index_global":76,"time_elapsed":1138727,"internal_chunk_id":"0-0.15-0"},{"question":"What is your age?","response_type":"free","response_choices":[],"correct_response":"","response":"33","explain":false,"explanation":"","explanation_history":[],"response_history":["33"],"rt":1622,"trial_type":"question","trial_index":0,"trial_index_global":77,"time_elapsed":1140352,"internal_chunk_id":"0-0.15-0"},{"question":"What is your level of education?","response_type":"multi","response_choices":["Did not graduat e high s chool","High school diploma","Some college, no degree","Associates Degree","Bachelors Degree","Some graduate school, no degree","Masters Degree","Doctorate, M.D., etc."],"correct_response":"","response":"Some college, no degree","explain":false,"explanation":"","explanation_history":[],"response_history":["Some college, no degree"],"rt":2007,"trial_type":"question","trial_index":0,"trial_index_global":78,"time_elapsed":1142360,"internal_chunk_id":"0-0.15-0"},{"question":"What is the most advanced math class you've completed? If you have multiple classes and you're not sure which one is most advanced, please list them.","response_type":"free","response_choices":[],"correct_response":"","response":"Trigonometry.","explain":false,"explanation":"","explanation_history":[],"response_history":["P","Trigonometry."],"rt":9767,"trial_type":"question","trial_index":0,"trial_index_global":79,"time_elapsed":1152128,"internal_chunk_id":"0-0.15-0"},{"question":"How familiar are you with t he conce pt of modular arithmetic?","response_type":"multi","response_choices":["1 - never heard of it","2 - heard of it but didn't know what it was","3 - seen it used or explained","4 - used it but not often or recently","5 - used it, remember and understand it"],"correct_response":"1","response":"1 - never heard of it","explain":false,"explanation":"","explanation_history":[],"response_history":["1 - never heard of it"],"rt":4766,"trial_type":"question","trial_index":0,"trial_index_global":80,"time_elapsed":1156895,"internal_chunk_id":"0-0.15-0"},{"question":"How familiar are you with the concept of a mathematical group?","response_type":"multi","response_choices":["1 - never heard of it","2 - heard of it but didn't know what it was","3 - seen it used or explained","4 - used it but not often or recently","5 - used it, remember and understand it"],"correct_response":"1","response":"1 - never heard of it","explain":false,"explanation":"","explanation_history":[],"response_history":[" 1 - neve r heard of it"],"rt":2383,"trial_type":"question","trial_index":0,"trial_index_global":81,"time_elapsed":1159279,"internal_chunk_id":"0-0.15-0"},{"question":"Do you feel you learned something from this HIT?","response_type":"multi","response_choices":["1 - not at all","2 - somewhat","3 - definitely"],"correct_response":"1","response":"2 - somewhat","explain":false,"explanation":"","explanation_history":[],"response_history":["1 - not at all","2 - somewhat"],"rt":4519,"trial_type":"question","trial_index":0,"trial_index_global":82,"time_elapsed":1163799,"internal_chunk_id":"0-0.15-0"},{"question":"Do you feel you understood the concepts in this HIT?","response_type":"multi","response_choices":["1 - not at all","2 - somewhat","3 - definitely"],"correct_response":"1","response":"2 - somewhat","explain":false,"explanation":"","explanation_history":[],"response_history":["2 - somewhat"],"rt":2319,"trial_type":"question","trial_index":0,"trial_index_global":83,"time_elapsed":1166119,"internal_chunk_id":"0-0.15-0"},{"question":"Did you enjoy this HIT?","response_type":"multi","response_choices":["1 - not at all","2 - somewhat","3 - definitely"],"correct_response":"1","response":"3 - definitely","explain":false,"explanation":"","explanation_history":[],"response_history":["3 - definitely"],"rt":2695,"trial_type":"question","trial_index":0,"trial_index_global":84,"time_elapsed":1168815,"internal_chunk_id":"0-0.15-0"},{"question":"What is your gender?","response_type":"multi","response_choices":["Female","Male","Other"],"correct_response":"","response":"Female","explain":false,"explanation":"","explanation_history":[],"response_history":["Female"],"rt":1968,"trial_type":"question","trial_index":0,"trial_index_global":85,"time_elapsed":1170783,"internal_chunk_id":"0-0.15-0"},{"question":"What is/are your native language(s)? (The languages spoken in your household when you were a child.)","response_type":"free","response_choices":[],"correct_response":"","response":"Engli sh","explain":false,"explanation":"","explanation_history":[],"response_history":["English"],"rt":2477,"trial_type":"question","trial_index":0,"trial_index_global":86,"time_elapsed":1173262,"internal_chunk_id":"0-0.15-0"},{"question":"Did you use pen and paper at any point on this HIT?","response_type":"free","response_choices":[],"correct_response":"","response":"No","explain":false,"explanation":"","explanation_history":[],"response_history":["No"],"rt":1848,"trial_type":"question","trial_index":0,"trial_index_global":87,"time_elapsed":1175111,"internal_chunk_id":"0-0.15-0"},{"question":"Do you have any comments on this HIT?","response_type":"free","response_choices":[],"correct_response":"","response":"No","explain":false,"explanation":"","explanation_history":[],"response_history":["n","No"],"rt":2407,"trial_type":"question","trial_index":0,"trial_index_global":88,"time_elapsed":1177519,"internal_chunk_id":"0-0.15-0"}]