[{"nsides":6,"instructions":"Let's define a new operation <img src=./images/hexagon_symbol.png style=width:14px;height:14px>. This operation will give us a way of combining two of the numbers 0, 1, 2, 3, 4, 5 to get another one of them back. Consider the hexagon at the right, where I've labeled each point with one of the numbers. To perform <img src=./images/hexagon_symbol.png style=width:14px;height:14px>, you can use the interactive diagram on the right, or perform the operation in your mind. Point the arrow at the first number on the hexagon by clicking, then click (or click and drag) to move the arrow the second number of points clockwise around the hexagon. The number the arrow arrives at is your result. (The operation is called <img src=./images/hexagon_symbol.png style=width:14px;height:14px> because it uses the hexagon, which has 6 sides.) <br /><br />For example, 3 <img src=./images/hexagon_symbol.png style=width:14px;height:14px> 5 =  2, becau se 5 steps clockwise from 3 on the hexagon brings us to 2. So 3 <img src=./images/hexagon_symbol.png style=width:14px;height:14px> 5 = 2.<br /><br />Similarly, 1 <img src=./images/hexagon_symbol.png style=width:14px;height:14px> 4 = 5, because 4 steps clockwise from 1 brings us to 5. <br /><br />Click Continue when you're ready to move on.","orientation_history":[0,[0.9994588469612697,0.9994588469612697,0.9994588469612697,0.9994588469612697,0.9994588469612697,0.9939977362036059,0.9939977362036059,0.9939977362036059,0.9939977362036059,0.9939977362036059,1.0471975511965976],[2.117156351243876,2.117156351243876,2.117156351243876,2.117156351243876,2.117156351243876,2.117156351243876,2.117156351243876,2.1269625569153496,2.0943951023931953],[2.930499320367047,2.930499320367047,2.9419087682146916,2.955534476440789,2.968911161971788,2.9820409326565334,2.9932648194680285,3.141592653589793],[4.268738705357034,4.268738705357034,4.268738705357034,4.268738705357034,4.268738705357034,4.268738705357034,4.268738705357034,4.268738705357034,4.1887902047863905],[5.157259453793063,5.157259453793063,5.157259453793063,5.157259453793063,5.157259453793063,5.157259453793063,5.157259453793063,5.235987755982988]],"rt":111951,"trial_type":"polygon-arrow-instructions","trial_index":0,"trial_index_global":1,"time_elapsed":142263,"internal_chunk_id":"0-0"},{"nsides":6,"instructions":"Do you see how <img src=./images/hexagon_symbol.png style=width:14px;height:14px> works? By labeling the points of the hexagon with the numbers from 0 to 5, we ensure that when we combine two numbers under <img src=./images/hexagon_symbol.png style=width:14px;height:14px>, we only produce numbers between 0 and 5.<br /><br />Click Continue when you are ready to move on.","orientation_history":[0],"rt":11450,"trial_type":"polygon-arrow-instructions","trial_index":0,"trial_index_global":2,"time_elapsed":153714,"internal_chunk_id":"0-0"},{"nsides":6,"question":"Now tr y one on  your own! What is 4 <img src=./images/hexagon_symbol.png style=width:14px;height:14px> 5? <br /><br /> (Remember, to perform <img src=./images/hexagon_symbol.png style=width:14px;height:14px>, you can use the interactive diagram on the right, or perform the operation in your mind. Point the arrow at the first number on the hexagon, then move the arrow the second number of points clockwise around the hexagon. The number the arrow arrives at is your result.)","response_type":"free","response_choices":[],"correct_response":"3","response":"3","explain":false,"explanation":"","explanation_history":[],"orientation_history":[[0]],"response_history":["3"],"rt":20684,"trial_type":"polygon-arrow-question","trial_index":0,"trial_index_global":3,"time_elapsed":174401,"internal_chunk_id":"0-0.3-0"},{"nsides":6,"feedback":"Correct! 4 <img src=./images/hexagon_symbol.png style=width:14px;height:14px> 5 = 3 because 5 steps clockwise on the hexagon from 4 brings us t o 3","orientation_history":[0],"rt":6117,"trial_type":"polygon-arrow-feedback","trial_index":0,"trial_index_global":4,"time_elapsed":180521,"internal_chunk_id":"0-0.3-0"},{"nsides":6,"question":"What is 3 <img src=./images/hexagon_symbol.png style=width:14px;height:14px> 2? <br /><br /> (Remember, to perform <img src=./images/hexagon_symbol.png style=width:14px;height:14px>, you can use the interactive diagram on the right, or perform the operation in your mind. Point the arrow at the first number on the hexagon, then move the arrow the second number of points clockwise around the hexagon. The number the arrow arrives at is your result.)","response_type":"free","response_choices":[],"correct_response":"5","response":"5","explain":false,"explanation":"","explanation_history":[],"orientation_history":[[0]],"response_history":["5"],"rt":9742,"trial_type":"polygon-arrow-question","trial_index":0,"trial_index_global":5,"time_elapsed":190264,"internal_chunk_id":"0-0.3-0"},{"nsides":6,"feedback":"Correct! 3 <img src=./images/hexagon_symbol.png style=width:14px;height:14px> 2 = 5 because 2 steps clockwise on the hexagon from 3 brings us to 5","orientation_history":[0],"rt":1181,"trial_type":"polygon-arrow-feedback","trial_index":0,"trial_index_global":6,"time_elapsed":191446,"internal_chunk_id":"0-0.3-0"},{"nsides":6,"question":"What is 1 <img src=./images/hexagon_symbol.png style=width:14px;height:14px> 5? <br /><br /> (Remember, to perform <img src=./images/hexagon_symbol.png style=width:14px;height:14px>, you can use the interactive diagram on the right, or perform the operation in your mind. Point the arrow at the first number on the hexagon, then move the arrow the second number of points clockwise around the hexagon. The number the arrow arrives at is your result.)","response_type":"free","response_choices":[],"correct_response":"0","response":"0","explain":false,"explanation":"","explanation_history":[],"orientation_history":[[0]],"response_history":["0"],"rt":6481,"trial_type":"polygon-arrow-question","trial_index":0,"trial_index_global":7,"time_elapsed":197928,"internal_chunk_id":"0-0.3-0"},{"nsides":6,"feedback":"Correct! 1 <img src=./images/hexagon_symbol.png style=width:14px;height:14px> 5 = 0 because 5 steps clockwise on the hexagon from 1 brings us to 0","orientation_history":[0],"rt":1165,"trial_type":"polygon-arrow-feedback","trial_index":0,"trial_index_global":8,"time_elapsed":199094,"internal_chunk_id":"0-0.3-0"},{"nsides":6,"question":"What is 1 <img src=./images/hexagon_symbol.png style=width:14px;height:14px> 1? <br /><br /> (Remember, to perform <img src=./images/hexagon_symbol.png style=width:14px;height:14px>, you can use the interactive diagram on the right, or perform the operation in your mind. Point the arrow at the first number on the hexagon, then move the arrow the second number of points clockwise around the hexagon. The number the arrow arrives at is  your re sult.)","response_type":"free","response_choices":[],"correct_response":"2","response":"2","explain":false,"explanation":"","explanation_history":[],"orientation_history":[[0]],"response_history":["2"],"rt":4866,"trial_type":"polygon-arrow-question","trial_index":0,"trial_index_global":9,"time_elapsed":203961,"internal_chunk_id":"0-0.3-0"},{"nsides":6,"feedback":"Correct! 1 <img src=./images/hexagon_symbol.png style=width:14px;height:14px> 1 = 2 because 1 step clockwise on the hexagon from 1 brings us to 2","orientation_history":[0],"rt":831,"trial_type":"polygon-arrow-feedback","trial_index":0,"trial_index_global":10,"time_elapsed":204793,"internal_chunk_id":"0-0.3-0"},{"nsides":6,"question":"What is 3 <img src=./images/hexagon_symbol.png style=width:14px;height:14px> 0? <br /><br /> (Remember, to perform <img src=./images/hexagon_symbol.png style=width:14px;height:14px>, you can use the interactive diagram on the right, or perform the operation in y our mind . Point the arrow at the first number on the hexagon, then move the arrow the second number of points clockwise around the hexagon. The number the arrow arrives at is your result.)","response_type":"free","response_choices":[],"correct_response":"3","response":"3","explain":false,"explanation":"","explanation_history":[],"orientation_history":[[0]],"response_history":["3"],"rt":7578,"trial_type":"polygon-arrow-question","trial_index":0,"trial_index_global":11,"time_elapsed":212372,"internal_chunk_id":"0-0.3-0"},{"nsides":6,"feedback":"Correct! 3 <img src=./images/hexagon_symbol.png style=width:14px;height:14px> 0 = 3 because 0 steps clockwise on the hexagon from 3 brings us to 3","orientation_history":[0],"rt":994,"trial_type":"polygon-arrow-feedback","trial_index":0,"trial_index_global":12,"time_elapsed":213366,"internal_chunk_id":"0-0.3-0"},{"nsides":6,"question":"What is 4 <img src=./images/hexagon_symbol.png style=width:14px;height:14px> 4? <br /><br /> ( Remember , to perform <img src=./images/hexagon_symbol.png style=width:14px;height:14px>, you can use the interactive diagram on the right, or perform the operation in your mind. Point the arrow at the first number on the hexagon, then move the arrow the second number of points clockwise around the hexagon. The number the arrow arrives at is your result.)","response_type":"free","response_choices":[],"correct_response":"2","response":"2","explain":false,"explanation":"","explanation_history":[],"orientation_history":[[0]],"response_history":["2"],"rt":4804,"trial_type":"polygon-arrow-question","trial_index":0,"trial_index_global":13,"time_elapsed":218170,"internal_chunk_id":"0-0.3-0"},{"nsides":6,"feedback":"Correct! 4 <img src=./images/hexagon_symbol.png style=width:14px;height:14px> 4 = 2 because 4 steps clockwise on the hexagon from 4 brings us to 2","orientation_history":[0],"rt":1033,"trial_type":"polygon-arrow-feedback","trial_index":0,"trial_index_global":14,"time_elapsed":219204,"internal_chunk_id":"0-0.3-0"},{"nsides":6,"question":"What is 1 <img src=./images/hexagon_symbol.png style=width:14px;height:14px> 3? <br /><br /> (Remember, to perform <img src=./images/hexagon_symbol.png style=width:14px;height:14px>, you can use the interactive diagram on the right, or perform the operation in your mind. Point the arrow at the first number on the hexagon, then move the arrow the second number of points clockwise around the hexagon. The number the arrow arrives at is your result.)","response_type":"free","response_choices":[],"correct_response":"4","response":"4","explain":false,"explanation":"","explanation_history":[],"orientation_history":[[0]],"response_history":["4"],"rt":4679,"trial_type":"polygon-arrow-question","trial_index":0,"trial_index_global":15,"time_elapsed":223883,"internal_chunk_id":"0-0.3-0"},{"nsides":6,"feedback":"Correct! 1 <img src=./images/hexagon_symbol.png style=width:14px;height:14px> 3 = 4 bec ause 3 s teps clockwise on the hexagon from 1 brings us to 4","orientation_history":[0],"rt":759,"trial_type":"polygon-arrow-feedback","trial_index":0,"trial_index_global":16,"time_elapsed":224643,"internal_chunk_id":"0-0.3-0"},{"nsides":6,"question":"What is 4 <img src=./images/hexagon_symbol.png style=width:14px;height:14px> 3? <br /><br /> (Remember, to perform <img src=./images/hexagon_symbol.png style=width:14px;height:14px>, you can use the interactive diagram on the right, or perform the operation in your mind. Point the arrow at the first number on the hexagon, then move the arrow the second number of points clockwise around the hexagon. The number the arrow arrives at is your result.)","response_type":"free","response_choices":[],"correct_response":"1","response":"1","explain":false,"explanation":"","explanation_history":[],"orientation_history":[[0]],"response_history":["1"],"rt":4444,"trial_type":"polygon-arrow-question","trial_index":0,"trial_index_global":17,"time_elapsed":229087,"internal_chunk_id":"0-0.3-0"},{"nsides":6,"feedback":"Correct! 4 <img src=./images/hexagon_symbol.png style=width:14px;height:14px> 3 = 1 because 3 steps clockwise on the hexagon from 4 brings us to 1","orientation_history":[0],"rt":807,"trial_type":"polygon-arrow-feedback","trial_index":0,"trial_index_global":18,"time_elapsed":229895,"internal_chunk_id":"0-0.3-0"},{"nsides":6,"question":"What is 0 <img src=./images/hexagon_symbol.png style=width:14px;height:14px> 5? <br /><br /> (Remember, to perform <img src=./images/hexagon_symbol.png style=width:14px;height:14px>, you can use the interactive diagram on the right, or perform the operation in your mind. Point the arrow at the first number on the hexagon, then move the arrow the second number of points clockwise around the hexagon. The number the arrow arrives at is your result.)","response_type":"free","response_choices":[],"correct_response":"5","response":"5","explain":false,"explanation":"","explanation_history":[],"orientation_history":[[0]],"response_history":["5"],"rt":5516,"trial_type":"polygon-arrow-question","trial_index":0,"trial_index_global":19,"time_elapsed":235412,"internal_chunk_id":"0-0.3-0"},{"nsides":6,"feedback":"Correct! 0 <img src=./images/hexagon_symbol.png style=width:14px;height:14px> 5 = 5 because 5 steps clockwise on the hexagon from 0 brings us to 5","orientation_history":[0],"rt":947,"trial_type":"polygon-arrow-feedback","trial_index":0,"trial_index_global":20,"time_elapsed":236360,"internal_chunk_id":"0-0.3-0"},{"nsides":6,"question":"What is 2 <img src=./images/hexagon_symbol.png style=width:14px;height:14px> 5? <br /><br /> (Remember, to perform <img src=./images/hexagon_symbol.png style=width:14px;height:14px>, you can use the interactive diagram on the right, or perform the operation in your mind. Point the arrow at the first number on the hexagon, then move the arrow the second number of points clockw ise arou nd the hexagon. The number the arrow arrives at is your result.)","response_type":"free","response_choices":[],"correct_response":"1","response":"1","explain":false,"explanation":"","explanation_history":[],"orientation_history":[[0]],"response_history":["1"],"rt":6607,"trial_type":"polygon-arrow-question","trial_index":0,"trial_index_global":21,"time_elapsed":242968,"internal_chunk_id":"0-0.3-0"},{"nsides":6,"feedback":"Correct! 2 <img src=./images/hexagon_symbol.png style=width:14px;height:14px> 5 = 1 because 5 steps clockwise on the hexagon from 2 brings us to 1","orientation_history":[0],"rt":1190,"trial_type":"polygon-arrow-feedback","trial_index":0,"trial_index_global":22,"time_elapsed":244158,"internal_chunk_id":"0-0.3-0"},{"nsides":6,"instructions":"Now we're going to discuss a couple special properties of this new operation, <img src=./images/hexagon_symbol.png style=width:14px;height:14px> that we've learned. First, notice that the number 0 behaves  in a spe cial way under <img src=./images/hexagon_symbol.png style=width:14px;height:14px>. Whenever we combine 0 with anything else, we get that same thing back. We'll say that 0 is the <i>identity</i> under <img src=./images/hexagon_symbol.png style=width:14px;height:14px>, because when you combine it with something it gives you that identical thing back.","orientation_history":[0],"rt":13006,"trial_type":"polygon-arrow-instructions","trial_index":0,"trial_index_global":23,"time_elapsed":257165,"internal_chunk_id":"0-0"},{"nsides":6,"instructions":"Now that we know 0 is the identity under <img src=./images/hexagon_symbol.png style=width:14px;height:14px>, we're going to make a new definition. We'll say that the <i>inverse</i> of a number is the element that you combine with it to produce the identity under our operation. For example, 5 <img src=./images/hexagon_symbol.png style=width:14px;height:14px> 1 = 0, so we say 1 is the inverse of 5 under <img  src=. /images/hexagon_symbol.png style=width:14px;height:14px>, (remember 0 is the identity under <img src=./images/hexagon_symbol.png style=width:14px;height:14px>). Similarly, 3 is its own inverse under <img src=./images/hexagon_symbol.png style=width:14px;height:14px>, because 3 <img src=./images/hexagon_symbol.png style=width:14px;height:14px> 3 = 0.","orientation_history":[0],"rt":38132,"trial_type":"polygon-arrow-instructions","trial_index":0,"trial_index_global":24,"time_elapsed":295297,"internal_chunk_id":"0-0"},{"nsides":6,"question":"Now you try! What is the inverse of 4 under <img src=./images/hexagon_symbol.png style=width:14px;height:14px>? <br /><br /> (Remember, the inverse of an element is the thing which you combine with it to produce the identity.)","response_type":"free","response_choices":[],"correct_response":"2","response":"2","explain":false,"explanation":"","explanation_history":[],"orientation_history":[[0]],"response_history":["2"],"rt":8455,"trial_type":"polygon-arrow-question","trial_index":0,"trial_index_global":25,"time_elapsed":303753,"internal_chunk_id":"0-0.7-0"},{"nsides":6,"feedback":"Correct! The inverse of 4 under <img src=./images/hexagon_symbol.png style=width:14px;height:14px> is 2 because 4 <img src=./images/hexagon_symbol.png style=width:14px;height:14px> 2 = 0, and 0 is the identity under <img src=./images/hexagon_symbol.png style=width:14px;height:14px>.","orientation_history":[0],"rt":1229,"trial_type":"polygon-arrow-feedback","trial_index":0,"trial_index_global":26,"time_elapsed":304983,"internal_chunk_id":"0-0.7-0"},{"nsides":6,"question":"What is the inverse of 1 under <img src=./images/hexagon_symbol.png style=width:14px;height:14px>? <br /><br /> (Remember, the inverse of an element is the thing which you combine with it to produce the identity.)","response_type":"free","response_choices":[],"correct_response":"5","response":"5","explain":false,"explanation":"","explanation_history":[],"orientation_history":[[0]],"response_history":["5"],"rt":6662,"trial_type":"polygon-arrow-question","trial_index":0,"trial_index_global":27,"time_elapsed":311647,"internal_chunk_id":"0-0.7-0"},{"nsides":6,"feedback":"Correct! The inverse of 1 under <img src=./images/hexagon_symbol.png style=width:14px;height:14px> is 5 because 1 <img src=./images/hexagon_symbol.png style=width:14px;height:14px> 5 = 0, and 0 is the identity under <img src=./images/hexagon_symbol.png style=width:14px;height:14px>.","orientation_history":[0],"rt":776,"trial_type":"polygon-arrow-feedback","trial_index":0,"trial_index_global":28,"time_elapsed":312423,"internal_chunk_id":"0-0.7-0"},{"nsides":6,"question":"What is the inverse of 3 under <img src=./images/hexagon_symbol.png style=width:14px;height:14px>? <br /><br /> (Remember, the inverse of an element is the thing which you combine with it to produce the identity.)","response_type":"f ree","response_choices":[],"correct_response":"3","response":"3","explain":false,"explanation":"","explanation_history":[],"orientation_history":[[0]],"response_history":["3"],"rt":4842,"trial_type":"polygon-arrow-question","trial_index":0,"trial_index_global":29,"time_elapsed":317265,"internal_chunk_id":"0-0.7-0"},{"nsides":6,"feedback":"Correct! The inverse of 3 under <img src=./images/hexagon_symbol.png style=width:14px;height:14px> is 3 because 3 <img src=./images/hexagon_symbol.png style=width:14px;height:14px> 3 = 0, and 0 is the identity under <img src=./images/hexagon_symbol.png style=width:14px;height:14px>.","orientation_history":[0],"rt":886,"trial_type":"polygon-arrow-feedback","trial_index":0,"trial_index_global":30,"time_elapsed":318151,"internal_chunk_id":"0-0.7-0"},{"nsides":6,"question":"What is the inverse of 2 under <img src=./images/hexagon_symbol.png style=width:14px;height:14px>? <br /><br /> (Remember, the inverse of an  element  is the thing which you combine with it to produce the identity.)","response_type":"free","response_choices":[],"correct_response":"4","response":"4","explain":false,"explanation":"","explanation_history":[],"orientation_history":[[0]],"response_history":["4"],"rt":5798,"trial_type":"polygon-arrow-question","trial_index":0,"trial_index_global":31,"time_elapsed":323949,"internal_chunk_id":"0-0.7-0"},{"nsides":6,"feedback":"Correct! The inverse of 2 under <img src=./images/hexagon_symbol.png style=width:14px;height:14px> is 4 because 2 <img src=./images/hexagon_symbol.png style=width:14px;height:14px> 4 = 0, and 0 is the identity under <img src=./images/hexagon_symbol.png style=width:14px;height:14px>.","orientation_history":[0],"rt":1279,"trial_type":"polygon-arrow-feedback","trial_index":0,"trial_index_global":32,"time_elapsed":325228,"internal_chunk_id":"0-0.7-0"},{"nsides":6,"question":"What is the inverse of 0 under <img src=./images/hexagon_symbo l.png  style=width:14px;height:14px>? <br /><br /> (Remember, the inverse of an element is the thing which you combine with it to produce the identity.)","response_type":"free","response_choices":[],"correct_response":"0","response":"0","explain":false,"explanation":"","explanation_history":[],"orientation_history":[[0]],"response_history":["0"],"rt":5760,"trial_type":"polygon-arrow-question","trial_index":0,"trial_index_global":33,"time_elapsed":330988,"internal_chunk_id":"0-0.7-0"},{"nsides":6,"feedback":"Correct! The inverse of 0 under <img src=./images/hexagon_symbol.png style=width:14px;height:14px> is 0 because 0 <img src=./images/hexagon_symbol.png style=width:14px;height:14px> 0 = 0, and 0 is the identity under <img src=./images/hexagon_symbol.png style=width:14px;height:14px>.","orientation_history":[0],"rt":783,"trial_type":"polygon-arrow-feedback","trial_index":0,"trial_index_global":34,"time_elapsed":331772,"internal_chunk_id":"0-0.7-0"},{"instructions":"It is also possible to successively apply <img src=./images/hexagon_symbol.png style=width:14px;height:14px>, and the operation can simply be performed starting with the left-most pair. For example, 2 <img src=./images/hexagon_symbol.png style=width:14px;height:14px> 3 <img src=./images/hexagon_symbol.png style=width:14px;height:14px> 4 = 5 <img src=./images/hexagon_symbol.png style=width:14px;height:14px> 4 = 3.","rt":14865,"trial_type":"instructions","trial_index":0,"trial_index_global":35,"time_elapsed":346638,"internal_chunk_id":"0-0"},{"nsides":6,"instructions":"We have one last definition to learn today, using the successive operations we just learned. Let's start with an example. Under our operation <img src=./images/hexagon_symbol.png style=width:14px;height:14px> we can make every other number using just 1: 2 = 1 <img src=./images/hexagon_symbol.png style=width:14px;height:14px> 1, 3 = 1 <img src=./images/hexago n_symbol .png style=width:14px;height:14px> 1 <img src=./images/hexagon_symbol.png style=width:14px;height:14px> 1, 4 = 1 <img src=./images/hexagon_symbol.png style=width:14px;height:14px> 1 <img src=./images/hexagon_symbol.png style=width:14px;height:14px> 1 <img src=./images/hexagon_symbol.png style=width:14px;height:14px> 1, 5 = 1 <img src=./images/hexagon_symbol.png style=width:14px;height:14px> 1 <img src=./images/hexagon_symbol.png style=width:14px;height:14px> 1 <img src=./images/hexagon_symbol.png style=width:14px;height:14px> 1 <img src=./images/hexagon_symbol.png style=width:14px;height:14px> 1, and 0 = 1 <img src=./images/hexagon_symbol.png style=width:14px;height:14px> 1 <img src=./images/hexagon_symbol.png style=width:14px;height:14px> 1 <img src=./images/hexagon_symbol.png style=width:14px;height:14px> 1 <img src=./images/hexagon_symbol.png style=width:14px;height:14px>  1 <img  src=./images/hexagon_symbol.png style=width:14px;height:14px> 1. Because 1 can make every other element under <img src=./images/hexagon_symbol.png style=width:14px;height:14px>, we say that 1 is a <i>generator</i> under <img src=./images/hexagon_symbol.png style=width:14px;height:14px>. <br /><br /> However, 2 is not a generator under <img src=./images/hexagon_symbol.png style=width:14px;height:14px>, because 4 = 2 <img src=./images/hexagon_symbol.png style=width:14px;height:14px> 2, and 0 = 2 <img src=./images/hexagon_symbol.png style=width:14px;height:14px> 2 <img src=./images/hexagon_symbol.png style=width:14px;height:14px> 2, but there is no way to make 1, 3, or 5 using just 2.","orientation_history":[0],"rt":38418,"trial_type":"polygon-arrow-instructions","trial_index":0,"trial_index_global":36,"time_elapsed":385056,"internal_chunk_id":"0-0"},{"nsides":6,"question":"Now you try! Is 3 a generator under <img src=./ images/h exagon_symbol.png style=width:14px;height:14px>? <br /><br /> (Remember, a generator is an element which can make every other element.)","response_type":"multi","response_choices":["Yes","No"],"correct_response":"No","response":"Yes","explain":false,"explanation":"","explanation_history":[],"orientation_history":[[0]],"response_history":["Yes"],"rt":8853,"trial_type":"polygon-arrow-question","trial_index":0,"trial_index_global":37,"time_elapsed":393910,"internal_chunk_id":"0-0.10-0"},{"nsides":6,"feedback":"Sorry, that's incorrect. 3 is not a generator under <img src=./images/hexagon_symbol.png style=width:14px;height:14px>, because 3 = 3, 0 = 3 <img src=./images/hexagon_symbol.png style=width:14px;height:14px> 3, but there is no way to make 1, 2, 4, or 5 using just 3.","orientation_history":[0],"rt":5056,"trial_type":"polygon-arrow-feedback","trial_index":0,"trial_index_global":38,"time_elapsed":398967,"internal_chunk_id":"0-0.10-0"},{"nsides":6,"question":"Is  5 a generator under <img src=./images/hexagon_symbol.png style=width:14px;height:14px>? <br /><br /> (Remember, a generator is an element which can make every other element.)","response_type":"multi","response_choices":["Yes","No"],"correct_response":"Yes","response":"Yes","explain":false,"explanation":"","explanation_history":[],"orientation_history":[[0]],"response_history":["Yes"],"rt":7623,"trial_type":"polygon-arrow-question","trial_index":0,"trial_index_global":39,"time_elapsed":406591,"internal_chunk_id":"0-0.10-0"},{"nsides":6,"feedback":"Correct! 5 is a generator under <img src=./images/hexagon_symbol.png style=width:14px;height:14px>, because 5 = 5, 4 = 5 <img src=./images/hexagon_symbol.png style=width:14px;height:14px> 5, 3 = 5 <img src=./images/hexagon_symbol.png style=width:14px;height:14px> 5 <img src=./images/hexagon_symbol.png style=width:14px;height:14px> 5, 2 = 5 <img src=./images/hexagon_symbol.png style=widt h:14px;h eight:14px> 5 <img src=./images/hexagon_symbol.png style=width:14px;height:14px> 5 <img src=./images/hexagon_symbol.png style=width:14px;height:14px> 5, 1 = 5 <img src=./images/hexagon_symbol.png style=width:14px;height:14px> 5 <img src=./images/hexagon_symbol.png style=width:14px;height:14px> 5 <img src=./images/hexagon_symbol.png style=width:14px;height:14px> 5 <img src=./images/hexagon_symbol.png style=width:14px;height:14px> 5, and 0 = 5 <img src=./images/hexagon_symbol.png style=width:14px;height:14px> 5 <img src=./images/hexagon_symbol.png style=width:14px;height:14px> 5 <img src=./images/hexagon_symbol.png style=width:14px;height:14px> 5 <img src=./images/hexagon_symbol.png style=width:14px;height:14px> 5 <img src=./images/hexagon_symbol.png style=width:14px;height:14px> 5, so you can make all of the numbers under <img src=./images/hexagon_symbol.png style=width:14px;height :14px>  using 5","orientation_history":[0],"rt":18632,"trial_type":"polygon-arrow-feedback","trial_index":0,"trial_index_global":40,"time_elapsed":425224,"internal_chunk_id":"0-0.10-0"},{"nsides":6,"question":"Is 4 a generator under <img src=./images/hexagon_symbol.png style=width:14px;height:14px>? <br /><br /> (Remember, a generator is an element which can make every other element.)","response_type":"multi","response_choices":["Yes","No"],"correct_response":"No","response":"Yes","explain":false,"explanation":"","explanation_history":[],"orientation_history":[[0]],"response_history":["Yes"],"rt":4921,"trial_type":"polygon-arrow-question","trial_index":0,"trial_index_global":41,"time_elapsed":430145,"internal_chunk_id":"0-0.10-0"},{"nsides":6,"feedback":"Sorry, that's incorrect. 4 is not a generator under <img src=./images/hexagon_symbol.png style=width:14px;height:14px>, because 4 = 4, 2 = 4 <img src=./images/hexagon_symbol.png style=width:14px;height:14px>  4, and  0 = 4 <img src=./images/hexagon_symbol.png style=width:14px;height:14px> 4 <img src=./images/hexagon_symbol.png style=width:14px;height:14px> 4, but there is no way to make 1, 3, or 5 using just 4.","orientation_history":[0],"rt":995,"trial_type":"polygon-arrow-feedback","trial_index":0,"trial_index_global":42,"time_elapsed":431141,"internal_chunk_id":"0-0.10-0"},{"nsides":6,"question":"Is 0 a generator under <img src=./images/hexagon_symbol.png style=width:14px;height:14px>? <br /><br /> (Remember, a generator is an element which can make every other element.)","response_type":"multi","response_choices":["Yes","No"],"correct_response":"No","response":"Yes","explain":false,"explanation":"","explanation_history":[],"orientation_history":[[0]],"response_history":["Yes"],"rt":4098,"trial_type":"polygon-arrow-question","trial_index":0,"trial_index_global":43,"time_elapsed":435239,"internal_chunk_id":"0-0.10-0"},{"nsides":6,"feedback":"Sorry, that's incorr ect. 0 i s not a generator under <img src=./images/hexagon_symbol.png style=width:14px;height:14px>, because 0 = 0, but there is no way to make 1, 2, 3, 4, or 5 using just 0.","orientation_history":[0],"rt":1079,"trial_type":"polygon-arrow-feedback","trial_index":0,"trial_index_global":44,"time_elapsed":436319,"internal_chunk_id":"0-0.10-0"},{"nsides":9,"instructions":"Now we are going to ask you some questions about a new operation, <img src=./images/nonagon_symbol.png style=width:14px;height:14px>, on the numbers 0, 1, 2, 3, 4, 5, 6, 7, 8. It works exactly like <img src=./images/hexagon_symbol.png style=width:14px;height:14px>, except now you use the nonagon shown at the right. <br /><br />Do you see how <img src=./images/nonagon_symbol.png style=width:14px;height:14px> works just like <img src=./images/hexagon_symbol.png style=width:14px;height:14px>? By labeling the points of the nonagon with the numbers from 0 to 8, we ensure that when we  combine  two numbers under <img src=./images/nonagon_symbol.png style=width:14px;height:14px>, we only produce numbers between 0 and 8. <br /><br />We'll give you one practice question with feedback to make sure you understand the new operation. After that, try to complete the remaining questions as accurately as possible.","orientation_history":[0],"rt":21538,"trial_type":"polygon-arrow-instructions","trial_index":0,"trial_index_global":45,"time_elapsed":457857,"internal_chunk_id":"0-0"},{"nsides":9,"question":"Practice: What is 5 <img src=./images/nonagon_symbol.png style=width:14px;height:14px> 5?","response_type":"free","response_choices":[],"correct_response":"1","response":"1","explain":false,"explanation":"","explanation_history":[],"orientation_history":[[0]],"response_history":["1"],"rt":6206,"trial_type":"polygon-arrow-question","trial_index":0,"trial_index_global":46,"time_elapsed":464063,"internal_chunk_id":"0-0.12-0"},{"nsides":9,"feedback":"Correct! 5 <i mg src=./images/nonagon_symbol.png style=width:14px;height:14px> 5 = 1 because 5 steps clockwise on the nonagon from 5 brings us to 1","orientation_history":[0],"rt":863,"trial_type":"polygon-arrow-feedback","trial_index":0,"trial_index_global":47,"time_elapsed":464926,"internal_chunk_id":"0-0.12-0"},{"nsides":9,"question":"What is 3 <img src=./images/nonagon_symbol.png style=width:14px;height:14px> 3?","response_type":"free","response_choices":[],"correct_response":"6","response":"6","explain":false,"explanation":"","explanation_history":[],"orientation_history":[[0]],"response_history":["6"],"rt":4506,"trial_type":"polygon-arrow-question","trial_index":0,"trial_index_global":48,"time_elapsed":469432,"internal_chunk_id":"0-0.12-0"},{"nsides":9,"question":"What is 7 <img src=./images/nonagon_symbol.png style=width:14px;height:14px> 4?","response_type":"free","response_choices":[],"correct_response":"2","response":"2","explain":false,"explanation":"","explanation_history":[],"orientation_history":[[0]],"response_history":["2"],"rt":5902,"trial_type":"polygon-arrow-question","trial_index":0,"trial_index_global":49,"time_elapsed":475334,"internal_chunk_id":"0-0.12-0"},{"nsides":9,"question":"What is 1 <img src=./images/nonagon_symbol.png style=width:14px;height:14px> 8?","response_type":"free","response_choices":[],"correct_response":"0","response":"0","explain":false,"explanation":"","explanation_history":[],"orientation_history":[[0]],"response_history":["0"],"rt":6880,"trial_type":"polygon-arrow-question","trial_index":0,"trial_index_global":50,"time_elapsed":482215,"internal_chunk_id":"0-0.12-0"},{"nsides":9,"question":"What is 5 <img src=./images/nonagon_symbol.png style=width:14px;height:14px> 4?","response_type":"free","response_choices":[],"correct_response":"0","response":"0","explain":false,"explanation":"","explanation_history":[],"orientation_history":[[0]],"response_history":["0"],"rt":7154,"trial_type":"polygo n-arrow- question","trial_index":0,"trial_index_global":51,"time_elapsed":489370,"internal_chunk_id":"0-0.12-0"},{"nsides":9,"question":"What is 6 <img src=./images/nonagon_symbol.png style=width:14px;height:14px> 6?","response_type":"free","response_choices":[],"correct_response":"3","response":"3","explain":false,"explanation":"","explanation_history":[],"orientation_history":[[0]],"response_history":["3"],"rt":6214,"trial_type":"polygon-arrow-question","trial_index":0,"trial_index_global":52,"time_elapsed":495584,"internal_chunk_id":"0-0.12-0"},{"nsides":9,"instructions":"On the following question, and several others later in the HIT, we will ask you to explain how you got your answer. On these questions, you will be given one box for your answer to the question, and a second for your explanation. Please explain your thought process in as much detail as possible (at least one sentence, and more if you can).","orientation_history":[0],"rt":9907,"trial_type":"polygon-arrow-i nstructi ons","trial_index":0,"trial_index_global":53,"time_elapsed":505491,"internal_chunk_id":"0-0.12-0"},{"nsides":9,"question":"What is 4 <img src=./images/nonagon_symbol.png style=width:14px;height:14px> 1? Please explain in words how you got your answer.","response_type":"free","response_choices":[],"correct_response":"5","response":"5","explain":true,"explanation":"I started at 4 on the graph and moved one place over, to get to 5. ","explanation_history":["I started at 4 on the graph and moved one place over, to get to 5. "],"orientation_history":[[0]],"response_history":["5"],"rt":22192,"trial_type":"polygon-arrow-question","trial_index":0,"trial_index_global":54,"time_elapsed":527683,"internal_chunk_id":"0-0.12-0"},{"nsides":9,"question":"What is 8 <img src=./images/nonagon_symbol.png style=width:14px;height:14px> 4? Please explain in words how you got your answer.","response_type":"free","response_choices":[],"correct_response":"3","response":"3","explain":true,"explanation":"I started at 8 on the graph and counted 4 over to the right, giving me 3. ","explanation_history":["I d","I started at 8 on the graph and counted 4 over to the right. ","I started at 8 on the graph and counted 4 over to the right.","I started at 8 on the graph and counted 4 over to the right, giving me 3. "],"orientation_history":[[0]],"response_history":["3"],"rt":17620,"trial_type":"polygon-arrow-question","trial_index":0,"trial_index_global":55,"time_elapsed":545303,"internal_chunk_id":"0-0.12-0"},{"nsides":9,"question":"What is the identity under <img src=./images/nonagon_symbol.png style=width:14px;height:14px>? Please explain in words how you got your answer.","response_type":"free","response_choices":[],"correct_response":"0","response":"9","explain":true,"explanation":"The graph on the right has 9 points. When we are doing the problems with (9), it is the same with (6). The reason it says (9) is because there are nine points, and doing the equation s only c ombines it in a way to produce 0-8. ","explanation_history":["The graph on the right has 9 points. When we are doing the problems with (9) ","The graph on the right has 9 points. When we are doing the problems with (9), it is the same with (6). The reason it says (9) is because there are nine points, and addi","The graph on the right has 9 points. When we are doing the problems with (9), it is the same with (6). The reason it says (9) is because there are nine points, and add","The graph on the right has 9 points. When we are doing the problems with (9), it is the same with (6). The reason it says (9) is because there are nine points, and ad","The graph on the right has 9 points. When we are doing the problems with (9), it is the same with (6). The reason it says (9) is because there are nine points, and a","The graph on the right has 9 points. When we are doing the problems with (9), it is the same with (6). The reason it says (9) is because there are nine points, and doing  the equ ations only combines it in a way to produce 0-9","The graph on the right has 9 points. When we are doing the problems with (9), it is the same with (6). The reason it says (9) is because there are nine points, and doing the equations only combines it in a way to produce 0-8. "],"orientation_history":[[0]],"response_history":["The figure on the right has 9 ","9"],"rt":199138,"trial_type":"polygon-arrow-question","trial_index":0,"trial_index_global":56,"time_elapsed":744442,"internal_chunk_id":"0-0.12-0"},{"nsides":9,"question":"What is the inverse of 5 under <img src=./images/nonagon_symbol.png style=width:14px;height:14px>?","response_type":"free","response_choices":[],"correct_response":"4","response":"5","explain":false,"explanation":"","explanation_history":[],"orientation_history":[[0]],"response_history":["5"],"rt":16273,"trial_type":"polygon-arrow-question","trial_index":0,"trial_index_global":57,"time_elapsed":760716,"internal_chunk_id":"0-0.12-0"},{"nsides":9,"question":"What is the inverse of 2 under <img src=./images/nonagon_symbol.png style=width:14px;height:14px>?","response_type":"free","response_choices":[],"correct_response":"7","response":"4","explain":false,"explanation":"","explanation_history":[],"orientation_history":[[0]],"response_history":["4"],"rt":33993,"trial_type":"polygon-arrow-question","trial_index":0,"trial_index_global":58,"time_elapsed":794710,"internal_chunk_id":"0-0.12-0"},{"nsides":9,"question":"What is the inverse of 0 under <img src=./images/nonagon_symbol.png style=width:14px;height:14px>?","response_type":"free","response_choices":[],"correct_response":"0","response":"0","explain":false,"explanation":"","explanation_history":[],"orientation_history":[[0]],"response_history":["0"],"rt":3102,"trial_type":"polygon-arrow-question","trial_index":0,"trial_index_global":59,"time_elapsed":797813,"internal_chunk_id":"0-0.12-0"},{"nsides":9,"question":"What is the inverse of 3 under <img src=./ima ges/nona gon_symbol.png style=width:14px;height:14px>? Please explain in words how you got your answer.","response_type":"free","response_choices":[],"correct_response":"6","response":"6","explain":true,"explanation":"Because we use the equation as 3 (9) 3 = 6. ","explanation_history":["Because we use the equation as (","Because we use the equation as 3 (9) 3 = 6. "],"orientation_history":[[0]],"response_history":["6"],"rt":29539,"trial_type":"polygon-arrow-question","trial_index":0,"trial_index_global":60,"time_elapsed":827353,"internal_chunk_id":"0-0.12-0"},{"nsides":9,"question":"Is 2 a generator under <img src=./images/nonagon_symbol.png style=width:14px;height:14px>? Please explain in words how you got your answer.","response_type":"multi","response_choices":["Yes","No"],"correct_response":"Yes","response":"Yes","explain":true,"explanation":"Adding all equations together, it can generate all possible answers on the graph. ","explanation_history":["Adding all equati ons toge ther ","Adding all equations together, it can generate all possible answers on the graph. "],"orientation_history":[[0]],"response_history":["Yes"],"rt":43845,"trial_type":"polygon-arrow-question","trial_index":0,"trial_index_global":61,"time_elapsed":871199,"internal_chunk_id":"0-0.12-0"},{"nsides":9,"question":"Is 3 a generator under <img src=./images/nonagon_symbol.png style=width:14px;height:14px>? Please explain in words how you got your answer.","response_type":"multi","response_choices":["Yes","No"],"correct_response":"No","response":"No","explain":true,"explanation":" 3(9)3=0. ","explanation_history":["Because 3(9)3=0./ ","Because 3(9)3=0./","Because 3(9)3=0. "," 3(9)3=0. "],"orientation_history":[[0]],"response_history":["No"],"rt":23239,"trial_type":"polygon-arrow-question","trial_index":0,"trial_index_global":62,"time_elapsed":894438,"internal_chunk_id":"0-0.12-0"},{"nsides":9,"question":"Is 5 a generator under <img src=./images/nonagon_symbol.png styl e=widt h:14px;height:14px>? Please explain in words how you got your answer.","response_type":"multi","response_choices":["Yes","No"],"correct_response":"Yes","response":"No","explain":true,"explanation":"It will not add up to all of the numbers. ","explanation_history":["It will not add up to all of teh nu","It will not add up to all of teh n","It will not add up to all of teh ","It will not add up to all of teh","It will not add up to all of te","It will not add up to all of the numbers. 5(9)8=4. ","It will not add up to all of the numbers. "],"orientation_history":[[0]],"response_history":["No"],"rt":39537,"trial_type":"polygon-arrow-question","trial_index":0,"trial_index_global":63,"time_elapsed":933977,"internal_chunk_id":"0-0.12-0"},{"nsides":9,"question":"Is 6 a generator under <img src=./images/nonagon_symbol.png style=width:14px;height:14px>? Please explain in words how you got your answer.","response_type":"multi","response_choices":["Yes","No"],"correct_response":"No","response":"Yes","explain":true,"explanation":"It can be used in the equation to add up all the numbers 0-8. ","explanation_history":["It an","It a","It can be usde","It can be usd","It can be used in the equation to add up all the numbers 0-9","It can be used in the equation to add up all the numbers 0-8. "],"orientation_history":[[0]],"response_history":["Yes"],"rt":21360,"trial_type":"polygon-arrow-question","trial_index":0,"trial_index_global":64,"time_elapsed":955338,"internal_chunk_id":"0-0.12-0"},{"nsides":"n","instructions":"Now we'd like to ask you some questions about <img src=./images/ngon_symbol.png style=width:14px;height:14px>, where n could be any positive counting number. For example, n could be 3, and the polygon a triangle, or n could be any other counting number you can think of. If you need to write the operation, you can use (n), and your answers can include n to stand in for the arbitrary value if necessary. (You can use the polygon at the r ight to  think, but it doesn't necessarily correspond to the real polygon, which is why we've left most of it dashed.)","orientation_history":[0],"rt":34134,"trial_type":"polygon-arrow-instructions","trial_index":0,"trial_index_global":65,"time_elapsed":989473,"internal_chunk_id":"0-0"},{"nsides":"n","question":"What is the formula for the inverse of 1 under <img src=./images/ngon_symbol.png style=width:14px;height:14px>?","response_type":"free","response_choices":[],"correct_response":"n-1","response":"1(n)1","explain":false,"explanation":"","explanation_history":[],"orientation_history":[[0],[1.2346582760093288,1.2346582760093288,1.2346582760093288,1.2346582760093288,1.2346582760093288,1.2346582760093288,1.2346582760093288],[0.03446910099950795,0.03446910099950795,0.03446910099950795,0.03446910099950795,0.03446910099950795,0.03446910099950795,0.03446910099950795,0.03446910099950795,0.03446910099950795]],"response_history":["2","1(n)1"],"rt":29889,"trial_type":"polygon-arrow -questio n","trial_index":0,"trial_index_global":66,"time_elapsed":1019363,"internal_chunk_id":"0-0.14-0"},{"nsides":"n","question":"What is the formula for the inverse of an element x under <img src=./images/ngon_symbol.png style=width:14px;height:14px>? Please explain in words why your answer is correct.","response_type":"free","response_choices":[],"correct_response":"n-x","response":"x(n)y","explain":true,"explanation":"X = the element we do not know. Y = the number we need to move to complete the equation. ","explanation_history":["Whatever number ","X = the element we do not know. Y = the number we need to move to complete the equation. "],"orientation_history":[[0]],"response_history":["x(n)x ","x(n)x","x(n)y"],"rt":68765,"trial_type":"polygon-arrow-question","trial_index":0,"trial_index_global":67,"time_elapsed":1088128,"internal_chunk_id":"0-0.14-0"},{"nsides":"n","question":"Is there a pattern to which elements are generators? How can you know if an element x is a g enerator  under <img src=./images/ngon_symbol.png style=width:14px;height:14px> without seeing whether it can make all the elements?.","response_type":"free","response_choices":[],"correct_response":"","response":"The generators can be put in an equation for all numbers. You can know whether or not a number is a generator by imagining and using the graph. ","explain":false,"explanation":"","explanation_history":[],"orientation_history":[[0]],"response_history":["The generators can be put in a ","The generators can be put in an equation for all numbers. You can know whether or not an ","The generators can be put in an equation for all numbers. You can know whether or not an","The generators can be put in an equation for all numbers. You can know whether or not a number is a generator by imagiin","The generators can be put in an equation for all numbers. You can know whether or not a number is a generator by imagii","The generators can be put in an equation for all numbers. You  can kno w whether or not a number is a generator by imagining and using the ga","The generators can be put in an equation for all numbers. You can know whether or not a number is a generator by imagining and using the graph. "],"rt":54954,"trial_type":"polygon-arrow-question","trial_index":0,"trial_index_global":68,"time_elapsed":1143082,"internal_chunk_id":"0-0.14-0"},{"nsides":"n","question":"True or false: If x is an odd number, it must be a generator under <img src=./images/ngon_symbol.png style=width:14px;height:14px>.","response_type":"multi","response_choices":["True","False"],"correct_response":"False","response":"False","explain":false,"explanation":"","explanation_history":[],"orientation_history":[[0]],"response_history":["False"],"rt":6169,"trial_type":"polygon-arrow-question","trial_index":0,"trial_index_global":69,"time_elapsed":1149251,"internal_chunk_id":"0-0.14-0"},{"nsides":"n","question":"True or false: If x is an even number, it must not be a generator un der <img  src=./images/ngon_symbol.png style=width:14px;height:14px>.","response_type":"multi","response_choices":["True","False"],"correct_response":"False","response":"False","explain":false,"explanation":"","explanation_history":[],"orientation_history":[[0]],"response_history":["False"],"rt":5226,"trial_type":"polygon-arrow-question","trial_index":0,"trial_index_global":70,"time_elapsed":1154477,"internal_chunk_id":"0-0.14-0"},{"nsides":"n","question":"True or false: If x is not a generator under <img src=./images/ngon_symbol.png style=width:14px;height:14px>, x must be a divisor of n, that is, x must divide n evenly, with no remainder.","response_type":"multi","response_choices":["True","False"],"correct_response":"False","response":"False","explain":false,"explanation":"","explanation_history":[],"orientation_history":[[0]],"response_history":["False"],"rt":7684,"trial_type":"polygon-arrow-question","trial_index":0,"trial_index_global":71,"time_elapsed":1162161,"internal_chunk_id":"0-0.14-0"},{"nsides":"n","question":"True or false: If x is not a generator under <img src=./images/ngon_symbol.png style=width:14px;height:14px>, x must be a multiple of a divisor of n. Please explain in words how you got your answer.","response_type":"multi","response_choices":["True","False"],"correct_response":"True","response":"True","explain":true,"explanation":"All of the numbers have to be added in a way to only include those numbers. Like with previous examples (0-8 etc) all the numbers had to be capable of adding inward. ","explanation_history":["All of the numbers have to be added in a way to only inclue ","All of the numbers have to be added in a way to only inclue","All of the numbers have to be added in a way to only include those numbers. Like with previous examples (0-8 ","All of the numbers have to be added in a way to only include those numbers. Like with previous examples (0-8 etc( ","All of the numbers have to be added in a way to onl y includ e those numbers. Like with previous examples (0-8 etc(","All of the numbers have to be added in a way to only include those numbers. Like with previous examples (0-8 etc) all the numbers had to be capable of adding to themselves. ","All of the numbers have to be added in a way to only include those numbers. Like with previous examples (0-8 etc) all the numbers had to be capable of adding to ","All of the numbers have to be added in a way to only include those numbers. Like with previous examples (0-8 etc) all the numbers had to be capable of adding to","All of the numbers have to be added in a way to only include those numbers. Like with previous examples (0-8 etc) all the numbers had to be capable of adding t","All of the numbers have to be added in a way to only include those numbers. Like with previous examples (0-8 etc) all the numbers had to be capable of adding int","All of the numbers have to be added in a way to only include those numbers. Like with previous examples  (0-8 et c) all the numbers had to be capable of adding in","All of the numbers have to be added in a way to only include those numbers. Like with previous examples (0-8 etc) all the numbers had to be capable of adding inward, ","All of the numbers have to be added in a way to only include those numbers. Like with previous examples (0-8 etc) all the numbers had to be capable of adding inward,","All of the numbers have to be added in a way to only include those numbers. Like with previous examples (0-8 etc) all the numbers had to be capable of adding inward. "],"orientation_history":[[0]],"response_history":["False","True"],"rt":70640,"trial_type":"polygon-arrow-question","trial_index":0,"trial_index_global":72,"time_elapsed":1232802,"internal_chunk_id":"0-0.14-0"},{"nsides":"n","question":"If an element x is a generator under <img src=./images/ngon_symbol.png style=width:14px;height:14px>, is its inverse a generator under <img src=./images/ngon_symbol.png style=width:14 px;heigh t:14px> always, sometimes, or never?","response_type":"multi","response_choices":["Always","Sometimes","Never"],"correct_response":"Always","response":"Sometimes","explain":false,"explanation":"","explanation_history":[],"orientation_history":[[0]],"response_history":["Sometimes"],"rt":73671,"trial_type":"polygon-arrow-question","trial_index":0,"trial_index_global":73,"time_elapsed":1306474,"internal_chunk_id":"0-0.14-0"},{"nsides":"n","question":"If an element x is a generator under <img src=./images/ngon_symbol.png style=width:14px;height:14px>, is x <img src=./images/ngon_symbol.png style=width:14px;height:14px> x a generator under <img src=./images/ngon_symbol.png style=width:14px;height:14px> always, sometimes, or never? Please explain in words how you got your answer.","response_type":"multi","response_choices":["Always","Sometimes","Never"],"correct_response":"Sometimes","response":"Sometimes","explain":true,"explanation":"Some numbers are no t genera tors because they cannot add to all the numbers. ","explanation_history":["Some numbers are not generators because they cannot add to all the numbers ","Some numbers are not generators because they cannot add to all the numbers. "],"orientation_history":[[0]],"response_history":["Sometimes"],"rt":24212,"trial_type":"polygon-arrow-question","trial_index":0,"trial_index_global":74,"time_elapsed":1330687,"internal_chunk_id":"0-0.14-0"},{"nsides":"n","question":"If an element x is not a generator under <img src=./images/ngon_symbol.png style=width:14px;height:14px>, is x <img src=./images/ngon_symbol.png style=width:14px;height:14px> x a generator under <img src=./images/ngon_symbol.png style=width:14px;height:14px> always, sometimes, or never?","response_type":"multi","response_choices":["Always","Sometimes","Never"],"correct_response":"Never","response":"Sometimes","explain":false,"explanation":"","explanation_history":[],"orientation_history":[[0]],"response_history":["Sometimes"],"rt":21211,"trial_type":"polygon-arrow-question","trial_index":0,"trial_index_global":75,"time_elapsed":1351898,"internal_chunk_id":"0-0.14-0"},{"instructions":"We would like to ask you some questions about your background. Please press Continue to continue.","rt":2030,"trial_type":"instructions","trial_index":0,"trial_index_global":76,"time_elapsed":1353929,"internal_chunk_id":"0-0.15-0"},{"question":"What is your age?","response_type":"free","response_choices":[],"correct_response":"","response":"23","explain":false,"explanation":"","explanation_history":[],"response_history":["23"],"rt":2078,"trial_type":"question","trial_index":0,"trial_index_global":77,"time_elapsed":1356007,"internal_chunk_id":"0-0.15-0"},{"question":"What is your level of education?","response_type":"multi","response_choices":["Did not graduate high school","High school diploma","Some college, no degree","Associates Degree","Bachelors Degree","Some graduate school, no degree","Master s Degree","Doctorate, M.D., etc."],"correct_response":"","response":"Some college, no degree","explain":false,"explanation":"","explanation_history":[],"response_history":["Some college, no degree"],"rt":3667,"trial_type":"question","trial_index":0,"trial_index_global":78,"time_elapsed":1359674,"internal_chunk_id":"0-0.15-0"},{"question":"What is the most advanced math class you've completed? If you have multiple classes and you're not sure which one is most advanced, please list them.","response_type":"free","response_choices":[],"correct_response":"","response":"Algebra. I am not good at math. ","explain":false,"explanation":"","explanation_history":[],"response_history":["Algrebra ","Algrebra","Algrebr","Algreb","Algre","Algr","Alg","Algebra. I am not good at math and get very confused by i","Algebra. I am not good at math and get very confused by ","Algebra. I am not good at math a","Algebra. I am not good at math ","Algebra. I am not good at math. "],"rt":24178,"trial_type":"qu estion","trial_index":0,"trial_index_global":79,"time_elapsed":1383852,"internal_chunk_id":"0-0.15-0"},{"question":"How familiar are you with the concept of modular arithmetic?","response_type":"multi","response_choices":["1 - never heard of it","2 - heard of it but didn't know what it was","3 - seen it used or explained","4 - used it but not often or recently","5 - used it, remember and understand it"],"correct_response":"1","response":"1 - never heard of it","explain":false,"explanation":"","explanation_history":[],"response_history":["1 - never heard of it"],"rt":6049,"trial_type":"question","trial_index":0,"trial_index_global":80,"time_elapsed":1389903,"internal_chunk_id":"0-0.15-0"},{"question":"How familiar are you with the concept of a mathematical group?","response_type":"multi","response_choices":["1 - never heard of it","2 - heard of it but didn't know what it was","3 - seen it used or explained","4 - used it but not often or recently","5 - used it, remember and un derstand  it"],"correct_response":"1","response":"1 - never heard of it","explain":false,"explanation":"","explanation_history":[],"response_history":["1 - never heard of it"],"rt":3151,"trial_type":"question","trial_index":0,"trial_index_global":81,"time_elapsed":1393054,"internal_chunk_id":"0-0.15-0"},{"question":"Do you feel you learned something from this HIT?","response_type":"multi","response_choices":["1 - not at all","2 - somewhat","3 - definitely"],"correct_response":"1","response":"2 - somewhat","explain":false,"explanation":"","explanation_history":[],"response_history":["2 - somewhat"],"rt":4192,"trial_type":"question","trial_index":0,"trial_index_global":82,"time_elapsed":1397246,"internal_chunk_id":"0-0.15-0"},{"question":"Do you feel you understood the concepts in this HIT?","response_type":"multi","response_choices":["1 - not at all","2 - somewhat","3 - definitely"],"correct_response":"1","response":"2 - somewhat","explain":false,"explanation":"","explanation_history":[],"response_history":["2 - somewhat"],"rt":3472,"trial_type":"question","trial_index":0,"trial_index_global":83,"time_elapsed":1400718,"internal_chunk_id":"0-0.15-0"},{"question":"Did you enjoy this HIT?","response_type":"multi","response_choices":["1 - not at all","2 - somewhat","3 - definitely"],"correct_response":"1","response":"3 - definitely","explain":false,"explanation":"","explanation_history":[],"response_history":["3 - definitely"],"rt":2108,"trial_type":"question","trial_index":0,"trial_index_global":84,"time_elapsed":1402826,"internal_chunk_id":"0-0.15-0"},{"question":"What is your gender?","response_type":"multi","response_choices":["Female","Male","Other"],"correct_response":"","response":"Female","explain":false,"explanation":"","explanation_history":[],"response_history":["Female"],"rt":1770,"trial_type":"question","trial_index":0,"trial_index_global":85,"time_elapsed":1404596,"internal_chunk_id":"0-0.15-0"},{"question":"What is/are your native language(s)? (The la nguages  spoken in your household when you were a child.)","response_type":"free","response_choices":[],"correct_response":"","response":"English","explain":false,"explanation":"","explanation_history":[],"response_history":["English"],"rt":3998,"trial_type":"question","trial_index":0,"trial_index_global":86,"time_elapsed":1408594,"internal_chunk_id":"0-0.15-0"},{"question":"Did you use pen and paper at any point on this HIT?","response_type":"free","response_choices":[],"correct_response":"","response":"No","explain":false,"explanation":"","explanation_history":[],"response_history":["No"],"rt":2681,"trial_type":"question","trial_index":0,"trial_index_global":87,"time_elapsed":1411275,"internal_chunk_id":"0-0.15-0"},{"question":"Do you have any comments on this HIT?","response_type":"free","response_choices":[],"correct_response":"","response":"I am not very good with math questions and I believe I struggled a bit with comprehension toward the end. I did learn from this HIT, however , becaus e some of the concepts I was able to grasp quickly. This was a fun hit. Thank you! ","explain":false,"explanation":"","explanation_history":[],"response_history":["I am not very good with math questions and IU th","I am not very good with math questions and IU t","I am not very good with math questions and IU ","I am not very good with math questions and IU","I am not very good with math questions and I believe I struggled a l","I am not very good with math questions and I believe I struggled a bit with comprehension toward the end. I did learn from this HIT, however, becasuse I ","I am not very good with math questions and I believe I struggled a bit with comprehension toward the end. I did learn from this HIT, however, becasuse I","I am not very good with math questions and I believe I struggled a bit with comprehension toward the end. I did learn from this HIT, however, becasuse ","I am not very good with math questions and I believe I struggled a bit with comprehension t oward th e end. I did learn from this HIT, however, becasuse","I am not very good with math questions and I believe I struggled a bit with comprehension toward the end. I did learn from this HIT, however, becasus","I am not very good with math questions and I believe I struggled a bit with comprehension toward the end. I did learn from this HIT, however, becasu","I am not very good with math questions and I believe I struggled a bit with comprehension toward the end. I did learn from this HIT, however, becas","I am not very good with math questions and I believe I struggled a bit with comprehension toward the end. I did learn from this HIT, however, because some of the concepts I was able to grasph ","I am not very good with math questions and I believe I struggled a bit with comprehension toward the end. I did learn from this HIT, however, because some of the concepts I was able to grasph","I am not very good with math questions and I believe I struggled a bit with comprehension tow ard the  end. I did learn from this HIT, however, because some of the concepts I was able to grasp quickly. This was a fun hit. Thank you. ","I am not very good with math questions and I believe I struggled a bit with comprehension toward the end. I did learn from this HIT, however, because some of the concepts I was able to grasp quickly. This was a fun hit. Thank you.","I am not very good with math questions and I believe I struggled a bit with comprehension toward the end. I did learn from this HIT, however, because some of the concepts I was able to grasp quickly. This was a fun hit. Thank you! "],"rt":30412,"trial_type":"question","trial_index":0,"trial_index_global":88,"time_elapsed":1441687,"internal_chunk_id":"0-0.15-0"}]