[{"nsides":6,"instructions":"Let's define a new operation <img src=./images/hexagon_symbol.png style=width:14px;height:14px>. This operation will give us a way of combining two of the numbers 0, 1, 2, 3, 4, 5 to get another one of them back. To perform <img src=./images/hexagon_symbol.png style=width:14px;height:14px>, you can either use a method based on the hexagon at right, or a method based on arithmetic.<br /><b>Hexagon method:</b> you can use the interactive diagram on the right, or perform the operation in your mind. Point the arrow at the first number on the hexagon by clicking, then click (or click and drag) to move the arrow the second number of points clockwise around the hexagon. The number the arrow arrives at is your result. (The operation is called <img src=./images/hexagon_symbol.png style=width:14px;height:14px> because it uses the hexagon, which has 6 sides.) <br ><b>Arithmetic method:</b> you start with the first number, and then add  the sec ond one to it. If the sum is smaller than 6, that's your result. If the sum is 6 or bigger, you subtract 6 to get your result. <br /><br />For example, 3 <img src=./images/hexagon_symbol.png style=width:14px;height:14px> 5 = 2, because 5 steps clockwise from 3 on the hexagon brings us to 2. Equivalently, 3 + 5 = 8, and 8 is bigger than 6, so we subtract 6, and 8 - 6 = 2. So 3 <img src=./images/hexagon_symbol.png style=width:14px;height:14px> 5 = 2.<br /><br />Similarly, 1 <img src=./images/hexagon_symbol.png style=width:14px;height:14px> 4 = 5, because 1 + 4 = 5, and 5 is less than 6 so we leave it alone. Equivalently, 4 steps clockwise from 1 on the hexagon brings us to 5. <br /><br />Click Continue when you're ready to move on.","orientation_history":[0],"rt":452825,"trial_type":"polygon-arrow-instructions","trial_index":0,"trial_index_global":1,"time_elapsed":456629,"internal_chunk_id":"0-0"},{"nsides":6,"instructions":"Do you see how the diffe rent way s of performing <img src=./images/hexagon_symbol.png style=width:14px;height:14px> give the same result? By labeling the points of the hexagon with the numbers from 0 to 5, we ensure that when we combine two numbers using the hexagon, we only produce numbers between 0 and 5. When we use the arithmetic strategy, adding the second number to the first mimics counting around the hexagon, and subtracting 6 each time we get above 5 makes sure the results correspond to the numbers on the points of the hexagon. <br /><br />Click Continue when you're ready to move on.","orientation_history":[0,[0,0,0,0,0,0,0.016127633843636247,0.03173537352845779,0.09347678115858948,0.12246105741734126,0.19739555984988066,0.28438477659385875,0.35370314608112174,0.4574748478960251,0.540419500270584,0.540419500270584,0.6486424516665438,0.7403835476229212,0.8210972760767722,0.8634998411174336,0.9075933340888033,0.9321613596409117,0.9321613596409117,0.9321613596409117,0.9321613596409117,0.9321613596409117,0.969142694136571,1.0409472573388299,1.0684939486969438,1.1071487177940904,1.1071487177940904,1.1392232755713914,1.1392232755713914,1.1392232755713914,1.1392232755713914,1.1392232755713914,1.1392232755713914,1.1392232755713914,1.1392232755713914,1.1392232755713914,1.1392232755713914,1.1392232755713914,1.1392232755713914,1.1392232755713914,1.1392232755713914,1.1392232755713914,1.1392232755713914,1.1392232755713914,1.1392232755713914,1.1392232755713914,1.1392232755713914,1.1392232755713914,1.1392232755713914,1.1392232755713914,1.1392232755713914,1.1835027235888202,1.2220253232109894,1.2991967350348206,1.4758446204521403,1.6256861893890504,1.7561442767905913,1.8530537487763876,1.909590685186536,1.9779004988508853,1.9779004988508853,2.023374277265596,2.0381069230759374,2.0381069230759374,2.0381069230759374,2.0381069230759374,2.0381069230759374,2.0381069230759374,2.0381069230759374,2.0381069230759374,2.0381069230759374,2.0381069230759374,2.0381069230759374,2.0381069230759374,2.0381069230759374,2.0602684517281364,2.064174949572419,2.0836466165661007,2.1321708431544213,2.2584675828336263,2.4236595147142497,2.5860989183242493,2.7243252615175084,2.83153747235884,2.8987738143183357,2.9219785284131934,2.9219785284131934,2.9390513415594874,2.9664156590666315,2.97500925693003,2.97500925693003,2.9836277606413137,2.9836277606413137,3.010765257515736,3.0118901164338814,3.029027037786108,3.047851112045545,3.0563297841492636,3.0903554861863745,3.1330458531571814,3.231440193284421,3.3842403186075307,3.543913751450234,3.596506860182173,3.6571416610487724,3.6753008452290548,3.726907091569473,3.7850937623830774,3.8673601038560723,3.9572845769060168,3.9572845769060168,4.1481207915267575,4.19055470057028,4.205290475992353,4.205290475992353,4.205290475992353,4.205290475992353,4.205290475992353,4.205290475992353,4.205290475992353,4.205290475992353,4.214773858705461,4.2839027533389125,4.3906384259880475,4.505515031404947,4.601731759210795,4.735914051369907,4.81787828890978,4.860716814506454,4.87194070131795,4.894264722112144,4.93834819807333,5.034139534781332,5.11868329029433,5.222514720736498,5.222514720736498,5.2837264602183165,5.319833578372338,5.336090696611581,5.344079614723659,5.359781120124619,5.359781120124619,5.359781120124619,5.373432149235376,5.38107855925794,5.387129922608242,5.414645911893697,5.42101525251236,5.448182479916683,5.235987755982988]],"rt":101767,"trial_type":"polygon-arrow-instructions","trial_index":0,"trial_index_global":2,"time_elapsed":558401,"internal_chunk_id":"0-0"},{"nsides":6,"question":"Now try one on your own! What is 4 <img src=./images/hexagon_symbol.png style=width:14px;height:14px> 5? <br /><br /> (Remember, to perform <img src=./images/hexagon_symbol.png style=width:14px;height:14px>, you can either use a method based on the hexagon at right, or a method based on arithmetic.<br /><br /><b>Hexagon method:</b> you can use the interactive diagram on the right, or perform the operation in your min d. Point  the arrow at the first number, then move the arrow the second number of points clockwise around the hexagon. The number the arrow arrives at is your result. <br /><br /><b>Arithmetic method:</b> you start with the first number, and then add the second one to it. If the sum is smaller than 6, that's your result. If the sum is 6 or bigger, you subtract 6 to get your result.)","response_type":"free","response_choices":[],"correct_response":"3","response":"3","explain":false,"explanation":"","explanation_history":[],"orientation_history":[[0],[0,0,0,0,0,0,0,0,0,0,0.018167805946042392,0.03631164116775287,0.03631164116775287,0.03631164116775287,0.03631164116775287,0.03631164116775287,0.03631164116775287,0.03631164116775287,0.03631164116775287,0.03631164116775287,0.09048140076760958,0.09048140076760958,0.1061751794737833,0.11888635923720936,0.11888635923720936,0.11888635923720936,0.11888635923720936,0.11888635923720936,0.11888635923720936,0.11888635923720936,0.11888635923720936,0.11888635923720936,0.11888635923720936,0.11888635923720936,0.15255539640230453,0.18583816451957036,0.20231394629369337,0.25098767771272223,0.31387965246990723,0.3443644221915294,0.43054352893774284,0.6363909522504131,0.839555678863065,1.0701032166994415,1.1680117968997048,1.223566816881579,1.2777066702412458,1.3200595699170095,1.3656372418030074,1.4671112180437138,1.6490902869045052,1.982378790818607,2.643893546524219,3.0721756711133965,3.305061668516827,3.483978838994921,3.483978838994921,3.609034931814284,3.730857436504463,3.818151114713518,3.903405649153714,4.008010391183184,4.051969089897913,4.066775894862743,4.066775894862743,4.078956068872633,4.106206561764145,4.111352313944569,4.1322876030548965,4.148360836724506,4.164754137918946,4.170289817626513,4.170289817626513,4.170289817626513,4.170289817626513,4.163800454084843,4.166134716885352,4.166134716885352,4.166134716885352,4.166134716885352,4.166134716885352,4.159464973007095,4.165178694232063,4.165178694232063,4.165178694232063,4.165178694232063,4.165178694232063,4.165178694232063,4.165178694232063,4.165178694232063,4.165178694232063,4.165178694232063,4.20625023767669,4.230561556310906,4.26524795413446,4.328606833604745,4.4200417141920525,4.539212423387771,4.678585436691235,4.756627975307669,4.810864600752781,4.85682299390966,4.879557115307406,4.902099092513975,4.917010319071107,4.924428752588556,4.939187828438576,4.939187828438576,4.963124324012432,4.974620753595072,4.98641167180646,4.996160327141961,4.998505133408601,5.015959719708354,5.058540482624251,5.116358121522665,5.178331728336686,5.224424938088342,5.243455674655244,5.276114283451597,5.294259378713465,5.294259378713465,5.31026052314494,5.31026052314494,5.31026052314494,5.314458651294533,5.314458651294533,5.334794830470221,5.339176548714008,5.348095657389502,5.358509651632405,5.367776399154041,5.3724920053569285,5.403666692443265,5.440952559612013,5.496365536291398,5.631372484036863,5.724585991836024,5.868187348156055,6.015753350721394,6.114369583809422,6.178267153430623,6.247913139708891,0.048388348702845585,0.11222349281615518,0.14958323547023245,0.14958323547023245,0.14958323547023245,0.14958323547023245,0.14958323547023245,0.14958323547023245,0.14958323547023245,0.14958323547023245,0.14958323547023245,0.14958323547023245,0.14958323547023245,0.14958323547023245,0.14958323547023245,0.14958323547023245,0.14958323547023245,0.14958323547023245,0.14958323547023245,0.14958323547023245,0.14958323547023245,0.14958323547023245,0.18076613113158047,0.2115619320777684,0.2643751373966092,0.3305911885109287,0.4147607254977659,0.482992832758091,0.544458250524325,0.5912787228719423,0.6686378346856671,0.7232905812475803,0.7783290022220776,0.811633563571381,0.8227168535701869,0.8227168535701869,0.8227168535701869,0.8227168535701869,0.8227168535701869,0.8227168535701869,0.8330571176271638,0.84990233287395,0.8743336716767018,0.8895983618972689,0.9046444938214132,0.9150677135832257,0.9150677135832257,0.9150677135832257,0.9150677135832257,0.9150677135832257,0.994017196378356,1.0201124134200676,1.1179462965726736,1.2909030093207134,1.5968354561175713,1.7549381401002222,1.8592928311236012,1.9723734071510794,2.041736317233447,2.090660719547543,2.119867377607081,2.1312560930057476,2.1312560930057476,2.1312560930057476,2.1312560930057476,2.1312560930057476,2.1312560930057476,2.1312560930057476,2.1312560930057476,2.1312560930057476,2.1312560930057476,2.1312560930057476,2.1312560930057476,2.1312560930057476,2.1368877893028273,2.2083121379634543,2.2627800616547527,2.4510443710827925,2.663189873661903,3.016677165867679,3.08261915564895,3.1099001475034873,3.1099001475034873,3.1099001475034873,3.1301241471481376,3.1301241471481376,3.1301241471481376,3.1301241471481376,3.1301241471481376,3.1301241471481376,3.1301241471481376,3.1301241471481376,3.1301241471481376,3.1301241471481376,3.1301241471481376,3.1301241471481376,3.1301241471481376,3.1301241471481376,3.1301241471481376,3.1301241471481376,3.1301241471481376,3.1301241471481376,3.1301241471481376,3.141592653589793]],"response_history":["3"],"rt":11869,"trial_type":"polygon-arrow-question","trial_index":0,"trial_index_global":3,"time_elapsed":570273,"internal_chunk_id":"0-0.3-0"},{"nsides":6,"feedback":"Correct! 4 <img src=./images/hexagon_symbol.png style=width:14px;height:14px> 5 = 3 because 5 steps clockwise on the hexagon from 4 brings us to 3. Equivalently, 4 + 5 = 9 and 9 - 6 = 3.","orientation_history":[0],"rt":1519,"trial_type":"polygon-arrow-feedback","trial_index":0,"trial_index_global":4,"time_elapsed":571793,"internal_chunk_id":"0-0.3-0"},{"nsides":6,"question":"What is 3 <img src=./images/hexagon_symbol.png style=width:14px;height:14px> 2? Try to solve this problem using the hexagon. <br /><br /> (Remember, to perform <img src=./images/hexagon_symbol.png style=width:14px;height:14px> on the hexagon, you can use the interactive diagram on the right, or perform the operation in your mind. Point the arrow at the first number  on the  hexagon, and then move the arrow the second number of points clockwise around the hexagon.)","response_type":"free","response_choices":[],"correct_response":"5","response":"5","explain":false,"explanation":"","explanation_history":[],"orientation_history":[[0],[0,0,0,0.0293525345117176,0.2117143902474634,0.411347559575417,0.7047577077900244,0.8943458453705686,0.8943458453705686,1.1910788263554895,1.4713324559524361,1.6427395418565593,1.8582175244591108,2.0498823626705818,2.237741619353842,2.35078659558021,2.527076927201361,2.5665343108587964,2.6949219733135035,2.719551867625661,2.779266091550407,2.8713429101443766,2.9442934421354137,2.997935037424349,3.048276532597054,3.0965656367653116,3.119941148097995,3.127455354932568,3.127455354932568,3.1500500526504274,3.157612644807365,3.1792528238214572,3.2015033583790107,3.2015033583790107,3.2356458875777285,3.249996463245255,3.249996463245255,3.249996463245255,3.249996463245255,3.249996463245255,3.249996463245255,3.249996463245255,3.249996463245255,3.249996463245255,3.249996463245255,3.249996463245255,3.249996463245255,3.249996463245255,3.249996463245255,3.249996463245255,3.249996463245255,3.249996463245255,3.249996463245255,3.249996463245255,3.249996463245255,3.249996463245255,3.249996463245255,3.249996463245255,3.249996463245255,3.249996463245255,3.249996463245255,3.249996463245255,3.249996463245255,3.249996463245255,3.249996463245255,3.249996463245255,3.249996463245255,3.249996463245255,3.249996463245255,3.249996463245255,3.249996463245255,3.249996463245255,3.249996463245255,3.249996463245255,3.249996463245255,3.249996463245255,3.249996463245255,3.249996463245255,3.249996463245255,3.249996463245255,3.249996463245255,3.249996463245255,3.249996463245255,3.249996463245255,3.2428279397098234,3.2356458875777285,3.2212440238290254,3.206796600505518,3.199557625238298,3.1713794043139085,3.1344079307125075,3.112189365385788,3.0816644984685855,3.0816644984685855,3.0816644984685855,3.0816644984685855,3.0816644984685855,3.0816644984685855,3.0816644984685855,3.0816644984685855,3.0816644984685855,3.0816644984685855,3.0816644984685855,3.0816644984685855,3.0816644984685855,3.0816644984685855,3.0816644984685855,3.0816644984685855,3.0816644984685855,3.0816644984685855,3.0816644984685855,3.0816644984685855,3.0816644984685855,3.0816644984685855,3.0816644984685855,3.0816644984685855,3.0816644984685855,3.0816644984685855,3.0816644984685855,3.0816644984685855,3.0816644984685855,3.0816644984685855,3.0816644984685855,3.0816644984685855,3.0816644984685855,3.0816644984685855,3.0816644984685855,3.0816644984685855,3.0816644984685855,3.0816644984685855,3.0816644984685855,3.0816644984685855,3.0816644984685855,3.0816644984685855,3.0816644984685855,3.0816644984685855,3.0816644984685855,3.0816644984685855,3.0816644984685855,3.0816644984685855,3.0816644984685855,3.0816644984685855,3.0816644984685855,3.0816644984685855,3.0816644984685855,3.127455354932568,3.165573708876524,3.24222074172748,3.3904890243908996,3.5660333669072983,3.707973913008847,3.784859917192859,3.8565147501927823,3.8931032539084205,3.9372143510371633,3.9418064731788895,3.9418064731788895,3.9418064731788895,3.9418064731788895,3.9418064731788895,3.9418064731788895,3.9418064731788895,3.954793765962397,3.989835976998794,3.9985645102269824,4.012128225579918,4.012128225579918,4.012128225579918,4.012128225579918,4.052304393860301,4.0680112137888464,4.163839577934162,4.332940803935539,4.556677575117444,4.840402564907276,5.087877478465768,5.265473645749256,5.387018820756076,5.431363739704203,5.4398201977393725,5.4398201977393725,5.4398201977393725,5.4398201977393725,5.4398201977393725,5.235987755982988]],"response_history":["5"],"rt":6247,"trial_type":"polygon-arrow-question","trial_index":0,"trial_index_global":5,"time_elapsed":578041,"internal_chunk_id":"0-0.3-0"},{"nsides":6,"feedback":"Correct! 3 <img src=./images/hexagon_symbol.png style=width:14px;height:14px> 2 = 5 because 2 steps clockwise on the hexagon from 3 brings us  to 5. Eq uivalently, 3 + 2 = 5 and 5 is less than 6.","orientation_history":[0],"rt":815,"trial_type":"polygon-arrow-feedback","trial_index":0,"trial_index_global":6,"time_elapsed":578857,"internal_chunk_id":"0-0.3-0"},{"nsides":6,"question":"What is 1 <img src=./images/hexagon_symbol.png style=width:14px;height:14px> 5? Try to solve this probem using the arithmetic technique. <br /><br /> (Remember, to perform <img src=./images/hexagon_symbol.png style=width:14px;height:14px> by arithmetic, you start with the first number, and then add the second one to it. If the sum is smaller than 6, that's your result. If the sum is 6 or bigger, you subtract 6 to get your result.)","response_type":"free","response_choices":[],"correct_response":"0","response":"0","explain":false,"explanation":"","explanation_history":[],"orientation_history":[[0],[0.2745752814396254,0.2745752814396254,0.2745752814396254,0.2745752814396254,0.2860514417173181,0.3080527810237763,0.3400971195097624,0.4048917862850834,0.41822432957922895,0.4958944914360599,0.5280744484263595,0.572193644007994,0.6235607321590253,0.7071270228761702,0.8231161158643124,0.9119902906774203,0.9723774333163594,0.9994588469612697,0.9994588469612697,0.9994588469612697,0.9994588469612697,0.9994588469612697,0.9994588469612697,0.9994588469612697,0.9994588469612697,0.9994588469612697,0.9994588469612697,0.9994588469612697,0.9994588469612697,0.9994588469612697,0.9994588469612697,0.9994588469612697,0.9793573106573413,0.8878420169045727,0.7229793534014909,0.42794849632148213,0.09347678115858948,6.167758646812661,6.0884997677956365,6.061535744200908,6.061535744200908,6.061535744200908,6.061535744200908,6.061535744200908,6.061535744200908,6.061535744200908,6.061535744200908,6.061535744200908,6.061535744200908,6.041432439315344,6.038206644052722,6.038206644052722,6.044248866593422,6.044248866593422,6.044248866593422,6.044248866593422,6.044248866593422,6.071227669936967,6.0833566621065955,6.160350068301691,6.196979733503808,6.209246269521646,6.246165191305656,6.270990789731334,0.011904199558309791,0.011904199558309791,0.011904199558309791,0.011904199558309791,0.011904199558309791,0.011904199558309791,0.011904199558309791,0.011904199558309791,0.011904199558309791,0.011904199558309791,0.011904199558309791,0]],"response_history":["0"],"rt":5488,"trial_type":"polygon-arrow-question","trial_index":0,"trial_index_global":7,"time_elapsed":584345,"internal_chunk_id":"0-0.3-0"},{"nsides":6,"feedback":"Correct! 1 <img src=./images/hexagon_symbol.png style=width:14px;height:14px> 5 = 0 because 1 + 5 = 6 and 6 - 6 = 0.  Equivalently, 5 steps clockwise on the hexagon from 1 brings us to 0.","orientation_history":[0],"rt":703,"trial_type":"polygon-arrow-feedback","trial_index":0,"trial_index_global":8,"time_elapsed":585049,"internal_chunk_id":"0-0.3-0"},{"nsides":6,"question":"What is 1 <img src=./images/hexagon_symbol.png style=width:14px;height:14px> 1? Try to solve this problem using the h exagon.  <br /><br /> (Remember, to perform <img src=./images/hexagon_symbol.png style=width:14px;height:14px> on the hexagon, you can use the interactive diagram on the right, or perform the operation in your mind. Point the arrow at the first number on the hexagon, and then move the arrow the second number of points clockwise around the hexagon.)","response_type":"free","response_choices":[],"correct_response":"2","response":"2","explain":false,"explanation":"","explanation_history":[],"orientation_history":[[0],[0.04399403769760668,0.10218485325391558,0.20168737899189204,0.3262325960967547,0.388821041375224,0.4117761922109757,0.42307160135806177,0.4562188050934637,0.4776952161883319,0.5291960271395575,0.574675100791953,0.6695963258349962,0.7098737591789321,0.7098737591789321,0.7098737591789321,0.7098737591789321,0.7098737591789321,0.7330981139720593,0.7941442960644258,0.9149478450221361,1.0064379648047952,1.1015504557751554,1.2990598719378768,1.3744228695659626,1.7731098797813423,1.7731098797813423,2.1463842988212547,2.1463842988212547,2.2198560479933565,2.214900935816664,2.214900935816664,2.214900935816664,2.227122549497178,2.2331432758716403,2.2331432758716403,2.2431876492821674,2.2431876492821674,2.2431876492821674,2.2431876492821674,2.2431876492821674,2.2431876492821674,2.2431876492821674,2.241285908310135,2.216133980814444,2.1965797590239435,2.155642596572158,2.1342382192965057,2.112198320497116,2.089516546688976,2.089516546688976,2.089516546688976,2.089516546688976,2.089516546688976,2.089516546688976,2.089516546688976,2.0943951023931953]],"response_history":["2\n","2"],"rt":6479,"trial_type":"polygon-arrow-question","trial_index":0,"trial_index_global":9,"time_elapsed":591529,"internal_chunk_id":"0-0.3-0"},{"nsides":6,"feedback":"Correct! 1 <img src=./images/hexagon_symbol.png style=width:14px;height:14px> 1 = 2 because 1 step clockwise on the hexagon from 1 brings us to 2. Equivalently, 1 + 1 = 2 and 2 is less than 6.","orientation_history":[0],"rt":887,"trial_type":"polygon-arrow-feedback","trial_index":0,"trial_index_global":10,"time_elapsed":592416,"internal_chunk_id":"0-0.3-0"},{"nsides":6,"question":"What is 3 <img src=./images/hexagon_symbol.png style=width:14px;height:14px> 0? Try to solve this problem using the arithmetic technique. <br /><br /> (Remember, to perform <img src=./images/hexagon_symbol.png style=width:14px;height:14px> using arithmetic, you start with the first number, and then add the second one to it. If the sum is smaller than 6, that's your result. If the sum is 6 or bigger, you subtract 6 to get your result.)","response_type":"free","response_choices":[],"correct_response":"3","response":"3","explain":false,"explanation":"","explanation_history":[],"orientation_history":[[0]],"response_history":["3"],"rt":3175,"trial_type":"polygon-arrow-question","trial_index":0,"trial_index_global":11,"time_elapsed":595593,"internal_chunk_id":"0-0.3-0"},{"nsides":6,"feedback":"Correct!  3 <img  src=./images/hexagon_symbol.png style=width:14px;height:14px> 0 = 3 because 3 + 0 = 3 and 3 - 6 = 3.  Equivalently, 0 steps clockwise on the hexagon from 3 brings us to 3.","orientation_history":[0],"rt":817,"trial_type":"polygon-arrow-feedback","trial_index":0,"trial_index_global":12,"time_elapsed":596411,"internal_chunk_id":"0-0.3-0"},{"nsides":6,"question":"What is 4 <img src=./images/hexagon_symbol.png style=width:14px;height:14px> 4? Try to solve this problem using the hexagon. <br /><br /> (Remember, to perform <img src=./images/hexagon_symbol.png style=width:14px;height:14px> on the hexagon, you can use the interactive diagram on the right, or perform the operation in your mind. Point the arrow at the first number on the hexagon, and then move the arrow the second number of points clockwise around the hexagon.)","response_type":"free","response_choices":[],"correct_response":"2","response":"2","explain":false,"explanation":"","explanation_history":[],"orientation_history":[[0],[-0.03691892178401024,6.153747764275929,6.031153331290449,5.3935543462054225,4.965548039732543,4.678428629850039,4.48743459980539,4.333939059524637,4.248741371383884,4.209875664259169,4.1817226384761845,4.168045679790158,4.1615580750612144,4.155002941159551,4.142027189321867,4.1292313001683265,4.1292313001683265,4.1292313001683265,4.1292313001683265,4.1292313001683265,4.1292313001683265,4.1292313001683265,4.1292313001683265,4.1320652140875715,4.134956325386538,4.148052862763462,4.161335134478574,4.168045679790158,4.168045679790158,4.168045679790158,4.168045679790158,4.181604949880752,4.209271434725451,4.259405552876856,4.357913150988428,4.495366649058593,4.663868195985826,4.855323558393158,5.003874507192166,5.1377966644068795,5.237465316898041,5.256877937099269,5.256877937099269,5.256877937099269,5.256877937099269,5.256877937099269,5.256877937099269,5.256877937099269,5.256877937099269,5.256877937099269,5.256877937099269,5.2788064077975925,5.285080931753569,5.289824904544135,5.313190884950302,5.313190884950302,5.32306710703953,5.3402445534180245,5.350533418020927,5.3838694190009075,5.423848106124198,5.465739751220127,5.597093772576563,5.76940368670591,6.008449362244524,6.192987539716516,0.05810072395669841,0.08105770426600056,0.08105770426600056,0.08105770426600056,0.08105770426600056,0.08105770426600056,0.08105770426600056,0.08105770426600056,0.08105770426600056,0.08105770426600056,0.08105770426600056,0.08105770426600056,0.08105770426600056,0.08105770426600056,0.08105770426600056,0.08105770426600056,0.08105770426600056,0.08105770426600056,0.08105770426600056,0.08105770426600056,0.08105770426600056,0.10385119133473575,0.12645951616793805,0.21079140086477177,0.36506567354825203,0.5392683112165689,0.605474767749908,0.6435011087932844,0.6435011087932844,0.6594228109302918,0.6594228109302918,0.6594228109302918,0.6594228109302918,0.6594228109302918,0.6594228109302918,0.6594228109302918,0.6698165466409195,0.6748263065154619,0.7008212291639665,0.7278511000475132,0.7742336810068332,0.8585374811279104,1.0004345357320743,1.2185576301318448,1.447392720535365,1.7014990989667342,1.8961997428196637,1.8961997428196637,2.038522118776222,2.038522118776222,2.038522118776222,2.038522118776222,2.038522118776222,2.038522118776222,2.038522118776222,2.038522118776222,2.0447208206387915,2.0943951023931953]],"response_history":["2"],"rt":5302,"trial_type":"polygon-arrow-question","trial_index":0,"trial_index_global":13,"time_elapsed":601713,"internal_chunk_id":"0-0.3-0"},{"nsides":6,"feedback":"Correct! 4 <img src=./images/hexagon_symbol.png style=width:14px;height:14px> 4 = 2 because 4 steps clockwise on the hexagon from 4 brings us to 2. Equivalently, 4 + 4 = 8 and 8 - 6 = 2.","orientation_history":[0],"rt":696,"trial_type":"polygon-arrow-feedback","trial_index":0,"trial_index_global":14,"time_elapsed":602409,"internal_chunk_id":"0-0.3-0"},{"nsides":6,"question":"What is 1 <img src=./images/hexagon_symbol.png style= width: 14px;height:14px> 3? Try to solve this problem using the arithmetic technique. <br /><br /> (Remember, to perform <img src=./images/hexagon_symbol.png style=width:14px;height:14px> by arithmetic, you start with the first number, and then add the second one to it. If the sum is smaller than 6, that's your result. If the sum is 6 or bigger, you subtract 6 to get your result.)","response_type":"free","response_choices":[],"correct_response":"4","response":"4","explain":false,"explanation":"","explanation_history":[],"orientation_history":[[0]],"response_history":["4\n","4"],"rt":3959,"trial_type":"polygon-arrow-question","trial_index":0,"trial_index_global":15,"time_elapsed":606369,"internal_chunk_id":"0-0.3-0"},{"nsides":6,"feedback":"Correct! 1 <img src=./images/hexagon_symbol.png style=width:14px;height:14px> 3 = 4 because 1 + 3 = 4 and 4 - 6 = 4.  Equivalently, 3 steps clockwise on the hexagon from 1 brings us to 4.","orientation_history":[0],"rt":1399,"trial_type":"polygon-arrow-feedback","trial_index":0,"trial_index_global":16,"time_elapsed":607769,"internal_chunk_id":"0-0.3-0"},{"nsides":6,"question":"What is 4 <img src=./images/hexagon_symbol.png style=width:14px;height:14px> 3? <br /><br /> (Remember, to perform <img src=./images/hexagon_symbol.png style=width:14px;height:14px>, you can either use a method based on the hexagon at right, or a method based on arithmetic.<br /><br /><b>Hexagon method:</b> you can use the interactive diagram on the right, or perform the operation in your mind. Point the arrow at the first number, then move the arrow the second number of points clockwise around the hexagon. The number the arrow arrives at is your result. <br /><br /><b>Arithmetic method:</b> you start with the first number, and then add the second one to it. If the sum is smaller than 6, that's your result. If the sum is 6 or bigger, you subtract 6 to get your result.)","response_type":"free","response_choices":[],"correct_response":"1","response":"1","explain":false,"explanation":"","explanation_history":[],"orientation_history":[[0]],"response_history":["1"],"rt":8079,"trial_type":"polygon-arrow-question","trial_index":0,"trial_index_global":17,"time_elapsed":615849,"internal_chunk_id":"0-0.3-0"},{"nsides":6,"feedback":"Correct! 4 <img src=./images/hexagon_symbol.png style=width:14px;height:14px> 3 = 1 because 3 steps clockwise on the hexagon from 4 brings us to 1. Equivalently, 4 + 3 = 7 and 7 - 6 = 1.","orientation_history":[0],"rt":1031,"trial_type":"polygon-arrow-feedback","trial_index":0,"trial_index_global":18,"time_elapsed":616881,"internal_chunk_id":"0-0.3-0"},{"nsides":6,"question":"What is 0 <img src=./images/hexagon_symbol.png style=width:14px;height:14px> 5? <br /><br /> (Remember, to perform <img src=./images/hexagon_symbol.png style=width:14px;height:14px>, you can either use a method based on the hexagon at right, or a method based on arithmetic.<br /><br  /><b>He xagon method:</b> you can use the interactive diagram on the right, or perform the operation in your mind. Point the arrow at the first number, then move the arrow the second number of points clockwise around the hexagon. The number the arrow arrives at is your result. <br /><br /><b>Arithmetic method:</b> you start with the first number, and then add the second one to it. If the sum is smaller than 6, that's your result. If the sum is 6 or bigger, you subtract 6 to get your result.)","response_type":"free","response_choices":[],"correct_response":"5","response":"5","explain":false,"explanation":"","explanation_history":[],"orientation_history":[[0]],"response_history":["5"],"rt":3503,"trial_type":"polygon-arrow-question","trial_index":0,"trial_index_global":19,"time_elapsed":620385,"internal_chunk_id":"0-0.3-0"},{"nsides":6,"feedback":"Correct! 0 <img src=./images/hexagon_symbol.png style=width:14px;height:14px> 5 = 5 because 5 steps clockwise on the hexagon from 0  brings u s to 5. Equivalently, 0 + 5 = 5 and 5 is less than 6.","orientation_history":[0],"rt":887,"trial_type":"polygon-arrow-feedback","trial_index":0,"trial_index_global":20,"time_elapsed":621273,"internal_chunk_id":"0-0.3-0"},{"nsides":6,"question":"What is 2 <img src=./images/hexagon_symbol.png style=width:14px;height:14px> 5? <br /><br /> (Remember, to perform <img src=./images/hexagon_symbol.png style=width:14px;height:14px>, you can either use a method based on the hexagon at right, or a method based on arithmetic.<br /><br /><b>Hexagon method:</b> you can use the interactive diagram on the right, or perform the operation in your mind. Point the arrow at the first number, then move the arrow the second number of points clockwise around the hexagon. The number the arrow arrives at is your result. <br /><br /><b>Arithmetic method:</b> you start with the first number, and then add the second one to it. If the sum is smaller than 6, that's your result. If the sum  is 6 or  bigger, you subtract 6 to get your result.)","response_type":"free","response_choices":[],"correct_response":"1","response":"1","explain":false,"explanation":"","explanation_history":[],"orientation_history":[[0]],"response_history":["1"],"rt":4551,"trial_type":"polygon-arrow-question","trial_index":0,"trial_index_global":21,"time_elapsed":625825,"internal_chunk_id":"0-0.3-0"},{"nsides":6,"feedback":"Correct! 2 <img src=./images/hexagon_symbol.png style=width:14px;height:14px> 5 = 1 because 5 steps clockwise on the hexagon from 2 brings us to 1. Equivalently, 2 + 5 = 7 and 7 - 6 = 1.","orientation_history":[0],"rt":911,"trial_type":"polygon-arrow-feedback","trial_index":0,"trial_index_global":22,"time_elapsed":626737,"internal_chunk_id":"0-0.3-0"},{"nsides":6,"instructions":"Now we're going to discuss a couple special properties of this new operation, <img src=./images/hexagon_symbol.png style=width:14px;height:14px> that we've learned. First, notice that the  number  0 behaves in a special way under <img src=./images/hexagon_symbol.png style=width:14px;height:14px>. Whenever we combine 0 with anything else, we get that same thing back. We'll say that 0 is the <i>identity</i> under <img src=./images/hexagon_symbol.png style=width:14px;height:14px>, because when you combine it with something it gives you that identical thing back.","orientation_history":[0],"rt":14811,"trial_type":"polygon-arrow-instructions","trial_index":0,"trial_index_global":23,"time_elapsed":641553,"internal_chunk_id":"0-0"},{"nsides":6,"instructions":"Now that we know 0 is the identity under <img src=./images/hexagon_symbol.png style=width:14px;height:14px>, we're going to make a new definition. We'll say that the <i>inverse</i> of a number is the element that you combine with it to produce the identity. For example, 5 <img src=./images/hexagon_symbol.png style=width:14px;height:14px> 1 = 0, so we say 1 is the inverse of 5 under <img s rc=./i mages/hexagon_symbol.png style=width:14px;height:14px>, (remember 0 is the identity under <img src=./images/hexagon_symbol.png style=width:14px;height:14px>). Similarly, 3 is its own inverse under <img src=./images/hexagon_symbol.png style=width:14px;height:14px>, because 3 <img src=./images/hexagon_symbol.png style=width:14px;height:14px> 3 = 0.","orientation_history":[0],"rt":15839,"trial_type":"polygon-arrow-instructions","trial_index":0,"trial_index_global":24,"time_elapsed":657393,"internal_chunk_id":"0-0"},{"nsides":6,"question":"Now you try! What is the inverse of 4 under <img src=./images/hexagon_symbol.png style=width:14px;height:14px>? <br /><br /> (Remember, the inverse of an element is the thing which you combine with it to produce the identity.)","response_type":"free","response_choices":[],"correct_response":"2","response":"2","explain":false,"explanation":"","explanation_history":[],"orientation_history":[[0]],"response_history":["2"],"rt":5335,"trial_type":"polygon-arrow-question","trial_index":0,"trial_index_global":25,"time_elapsed":662729,"internal_chunk_id":"0-0.7-0"},{"nsides":6,"feedback":"Correct! The inverse of 4 under <img src=./images/hexagon_symbol.png style=width:14px;height:14px> is 2 because 4 <img src=./images/hexagon_symbol.png style=width:14px;height:14px> 2 = 0, and 0 is the identity under <img src=./images/hexagon_symbol.png style=width:14px;height:14px>.","orientation_history":[0],"rt":927,"trial_type":"polygon-arrow-feedback","trial_index":0,"trial_index_global":26,"time_elapsed":663657,"internal_chunk_id":"0-0.7-0"},{"nsides":6,"question":"What is the inverse of 1 under <img src=./images/hexagon_symbol.png style=width:14px;height:14px>? <br /><br /> (Remember, the inverse of an element is the thing which you combine with it to produce the identity.)","response_type":"free","response_choices":[],"correct_response":"5","response":"5","explain":false,"explanation":"","explanation_history":[],"orientation_history":[[0]],"response_history":["5"],"rt":2295,"trial_type":"polygon-arrow-question","trial_index":0,"trial_index_global":27,"time_elapsed":665953,"internal_chunk_id":"0-0.7-0"},{"nsides":6,"feedback":"Correct! The inverse of 1 under <img src=./images/hexagon_symbol.png style=width:14px;height:14px> is 5 because 1 <img src=./images/hexagon_symbol.png style=width:14px;height:14px> 5 = 0, and 0 is the identity under <img src=./images/hexagon_symbol.png style=width:14px;height:14px>.","orientation_history":[0],"rt":575,"trial_type":"polygon-arrow-feedback","trial_index":0,"trial_index_global":28,"time_elapsed":666529,"internal_chunk_id":"0-0.7-0"},{"nsides":6,"question":"What is the inverse of 3 under <img src=./images/hexagon_symbol.png style=width:14px;height:14px>? <br /><br /> (Remember, the inverse of an element is the thing which you combine with it to produce the identity.)","response_type":"free ","response_choices":[],"correct_response":"3","response":"3","explain":false,"explanation":"","explanation_history":[],"orientation_history":[[0]],"response_history":["3"],"rt":2400,"trial_type":"polygon-arrow-question","trial_index":0,"trial_index_global":29,"time_elapsed":668929,"internal_chunk_id":"0-0.7-0"},{"nsides":6,"feedback":"Correct! The inverse of 3 under <img src=./images/hexagon_symbol.png style=width:14px;height:14px> is 3 because 3 <img src=./images/hexagon_symbol.png style=width:14px;height:14px> 3 = 0, and 0 is the identity under <img src=./images/hexagon_symbol.png style=width:14px;height:14px>.","orientation_history":[0],"rt":823,"trial_type":"polygon-arrow-feedback","trial_index":0,"trial_index_global":30,"time_elapsed":669753,"internal_chunk_id":"0-0.7-0"},{"nsides":6,"question":"What is the inverse of 2 under <img src=./images/hexagon_symbol.png style=width:14px;height:14px>? <br /><br /> (Remember, the inverse of an ele ment is  the thing which you combine with it to produce the identity.)","response_type":"free","response_choices":[],"correct_response":"4","response":"4","explain":false,"explanation":"","explanation_history":[],"orientation_history":[[0]],"response_history":["4"],"rt":1967,"trial_type":"polygon-arrow-question","trial_index":0,"trial_index_global":31,"time_elapsed":671721,"internal_chunk_id":"0-0.7-0"},{"nsides":6,"feedback":"Correct! The inverse of 2 under <img src=./images/hexagon_symbol.png style=width:14px;height:14px> is 4 because 2 <img src=./images/hexagon_symbol.png style=width:14px;height:14px> 4 = 0, and 0 is the identity under <img src=./images/hexagon_symbol.png style=width:14px;height:14px>.","orientation_history":[0],"rt":991,"trial_type":"polygon-arrow-feedback","trial_index":0,"trial_index_global":32,"time_elapsed":672713,"internal_chunk_id":"0-0.7-0"},{"nsides":6,"question":"What is the inverse of 0 under <img src=./images/hexagon_symbol.pn g styl e=width:14px;height:14px>? <br /><br /> (Remember, the inverse of an element is the thing which you combine with it to produce the identity.)","response_type":"free","response_choices":[],"correct_response":"0","response":"0","explain":false,"explanation":"","explanation_history":[],"orientation_history":[[0]],"response_history":["0"],"rt":2815,"trial_type":"polygon-arrow-question","trial_index":0,"trial_index_global":33,"time_elapsed":675529,"internal_chunk_id":"0-0.7-0"},{"nsides":6,"feedback":"Correct! The inverse of 0 under <img src=./images/hexagon_symbol.png style=width:14px;height:14px> is 0 because 0 <img src=./images/hexagon_symbol.png style=width:14px;height:14px> 0 = 0, and 0 is the identity under <img src=./images/hexagon_symbol.png style=width:14px;height:14px>.","orientation_history":[0],"rt":1047,"trial_type":"polygon-arrow-feedback","trial_index":0,"trial_index_global":34,"time_elapsed":676577,"internal_chunk_id":"0-0.7-0"},{"nsides":6,"instructions":"It is also possible to successively apply <img src=./images/hexagon_symbol.png style=width:14px;height:14px>, and the operation can simply be performed starting with the left-most pair. For example, 2 <img src=./images/hexagon_symbol.png style=width:14px;height:14px> 3 <img src=./images/hexagon_symbol.png style=width:14px;height:14px> 4 = 5 <img src=./images/hexagon_symbol.png style=width:14px;height:14px> 4 = 3.","orientation_history":[0,[0.17841049935104025,0.17841049935104025,0.17841049935104025,0.17841049935104025,0.17841049935104025,0.17841049935104025,0.17841049935104025,0.17841049935104025,0.17841049935104025,0.17841049935104025,0.17841049935104025,0.17841049935104025,0.3769092703248209,0.4547192748209694,0.5369107427400455,0.6973907898697075,0.892677019045851,1.1743550435764551,1.5323537367737086,1.8880626063167227,2.084859892684524,2.182213854006083,2.2406888221618413,2.2406888221618413,2.2406888221618413,2.2406888221618413,2.2406888221618413,2.2406888221618413,2.2406888221618413,2.2406888221618413,2.2394098947227175,2.238102461773251,2.2417541849222813,2.2259830472279485,2.198966439215776,2.198966439215776,2.198966439215776,2.198966439215776,2.198966439215776,2.198966439215776,2.198966439215776,2.198966439215776,2.198966439215776,2.198966439215776,2.198966439215776,2.2091161348039425,2.238725385280719,2.294544319553086,2.3861256685461534,2.435780632944285,2.435780632944285,2.6071971768353794,2.6071971768353794,2.7627613167868863,2.7627613167868863,2.817040986071058,2.862070501306153,2.881561364007661,2.9200638489730455,2.9390513415594874,2.9476335063299,2.9648837975197564,2.97354962825163,2.990956745292608,3.0084563260381456,3.0172376590430314,3.0348569809406576,3.0436923458513316,3.061407806288477,3.0791738435938356,3.0791738435938356,3.0791738435938356,3.0791738435938356,3.0791738435938356,3.0791738435938356,3.0791738435938356,3.088072385130478,3.1058935409104693,3.1148133425700273,3.1326643194099564,3.1597724686627715,3.18743207947091,3.2339219883213923,3.30362121632436,3.4509214866644804,3.644867084844526,3.907385486130037,4.00857036352371,4.063633979478329,4.063633979478329,4.063633979478329,4.063633979478329,4.063633979478329,4.110101634249725,4.122011084392163,4.131412022364389,4.143075789284028,4.143075789284028,4.143075789284028,4.143075789284028,4.143075789284028,4.143075789284028,4.143075789284028,4.143075789284028,4.143075789284028,4.1502022364846605,4.209545769456829,4.289535054251749,4.430131558403199,4.632558994672452,4.861278927994187,5.110016971906819,5.21523219131255,5.274575724284719,5.309565638477367,5.309565638477367,5.309565638477367,5.309565638477367,5.309565638477367,5.309565638477367,5.309565638477367,5.309565638477367,5.309565638477367,5.309565638477367,5.309565638477367,5.309565638477367,5.309565638477367,5.309565638477367,5.309565638477367,5.309565638477367,5.309565638477367,5.309565638477367,5.309565638477367,5.309565638477367,5.309565638477367,5.309565638477367,5.309565638477367,5.309565638477367,5.309565638477367,5.309565638477367,5.309565638477367,5.309565638477367,5.309565638477367,5.309565638477367,5.309565638477367,5.309565638477367,5.309565638477367,5.309565638477367,5.309565638477367,5.309565638477367,5.309565638477367,5.309565638477367,5.309565638477367,5.309565638477367,5.309565638477367,5.309565638477367,5.309565638477367,5.309565638477367,5.309565638477367,5.309565638477367,5.309565638477367,5.309565638477367,5.309565638477367,5.309565638477367,5.309565638477367,5.309565638477367,5.309565638477367,5.309565638477367,5.309565638477367,5.309565638477367,5.309565638477367,5.309565638477367,5.309565638477367,5.309565638477367,5.309565638477367,5.309565638477367,5.309565638477367,5.309565638477367,5.309565638477367,5.309565638477367,5.309565638477367,5.309565638477367,5.309565638477367,5.309565638477367,5.309565638477367,5.309565638477367,5.309565638477367,5.309565638477367,5.309565638477367,5.309565638477367,5.316371958637688,5.344243361242581,5.431218980006314,5.522473485837738,5.566859475946224,5.630755864206465,5.650436472177403,5.736723584368301,5.863160799526935,5.9223485241464955,5.961434752782944,5.961434752782944,5.961434752782944,5.961434752782944,5.961434752782944,5.978192960365181,5.980822904796783,5.980822904796783,5.980822904796783,5.980822904796783,5.9917285127017195,6.0169332580286605,6.033933165794372,6.061656502562839,6.0978373571838915,6.116601910519822,6.116601910519822,6.116601910519822,6.116601910519822,6.116601910519822,6.116601910519822,6.116601910519822,6.116601910519822,6.116601910519822,6.116601910519822,6.116601910519822,6.116601910519822,6.116601910519822,6.116601910519822,6.116601910519822,6.116601910519822,6.116601910519822,6.116601910519822,6.116601910519822,6.116601910519822,6.116601910519822,6.116601910519822,6.116601910519822,6.116601910519822,6.116601910519822,6.116601910519822,6.116601910519822,6.116601910519822,6.116601910519822,6.116601910519822,6.125220414231107,6.159919636820687,0.009090658665059648,0.07259945373049459,0.28199877900079406,0.4200245076526512,0.6078019961139604,0.730906707156717,0.730906707156717,0.8604017099145259,0.9496200570181079,0.9937581961251469,1.0449453321808413,1.0659349551357702,1.0659349551357702,1.0659349551357702,1.0659349551357702,1.0659349551357702,1.0659349551357702,1.0659349551357702,1.0659349551357702,1.0659349551357702,1.0659349551357702,1.0659349551357702,1.0659349551357702,1.0659349551357702,1.0659349551357702,1.0659349551357702,1.0659349551357702,1.0659349551357702,1.0659349551357702,1.0659349551357702,1.1284221038181517,1.4141944498128811,1.4141944498128811,1.6495802877840404,1.8766751981997487,2.0274017986873907,2.1341125882868646,2.158798930342464,2.164847243684836,2.164847243684836,2.164847243684836,2.164847243684836,2.164847243684836,2.164847243684836,2.164847243684836,2.164847243684836,2.164847243684836,2.164847243684836,2.164847243684836,2.164847243684836,2.164847243684836,2.180928114189264,2.191045812777718,2.191045812777718,2.250210132202745,2.3452059215096113,2.3452059215096113,2.5092731873890473,2.6415974235699666,2.7790484163252858,2.8732264426838863,2.927197185974201,2.959627967630607,2.9673768671468492,2.9673768671468492,2.9673768671468492,2.9673768671468492,2.9673768671468492,2.9673768671468492,2.9673768671468492,2.9673768671468492,2.9673768671468492,2.9673768671468492,2.9673768671468492,2.9673768671468492,2.9673768671468492,2.9673768671468492,2.9673768671468492,2.9907472919688534,3.014284911718939,3.0458859455029894,3.0458859455029894,3.085200892663834,3.1093457711545396,3.109083785307769,3.109083785307769,3.109083785307769,3.109083785307769,3.109083785307769,3.109083785307769,3.109083785307769,3.109083785307769,3.109083785307769,3.109083785307769,3.109083785307769,3.109083785307769,3.109083785307769,3.109083785307769,3.109083785307769,3.109083785307769,3.109083785307769,3.109083785307769,3.109083785307769,3.109083785307769,3.109083785307769,3.109083785307769,3.109083785307769,3.109083785307769,3.109083785307769,3.109083785307769,3.109083785307769,3.109083785307769,3.109083785307769,3.109083785307769,3.109083785307769,3.109083785307769,3.109083785307769,3.109083785307769,3.109083785307769,3.109083785307769,3.141592653589793]],"rt":14559,"trial_type":"polygon-arrow-instructions","trial_index":0,"trial_index_global":35,"time_elapsed":691137,"internal_chunk_id":"0-0"},{"nsides":6,"instructions":"We have one last definition to learn today, using the successive operations we just learned. Let's start with an example. Under our operation <img src=./images/hexagon_symbol.png style=width:14px;height:14px> we can make every other number using just 1: 2 = 1 <img src=./images/hexagon_symbol.png style=width:14px;height:14px> 1, 3 = 1 <img src=./images/hexagon_symbol.png style=width:14px;height:14px> 1 <img src=./images/hexagon_symbol.png style=width:14px;height:14px> 1, 4 = 1 <img src=./images/hexagon_symbol.png  style=width:14px;height:14px> 1 <img src=./images/hexagon_symbol.png style=width:14px;height:14px> 1 <img src=./images/hexagon_symbol.png style=width:14px;height:14px> 1, 5 = 1 <img src=./images/hexagon_symbol.png style=width:14px;height:14px> 1 <img src=./images/hexagon_symbol.png style=width:14px;height:14px> 1 <img src=./images/hexagon_symbol.png style=width:14px;height:14px> 1 <img src=./images/hexagon_symbol.png style=width:14px;height:14px> 1, and 0 = 1 <img src=./images/hexagon_symbol.png style=width:14px;height:14px> 1 <img src=./images/hexagon_symbol.png style=width:14px;height:14px> 1 <img src=./images/hexagon_symbol.png style=width:14px;height:14px> 1 <img src=./images/hexagon_symbol.png style=width:14px;height:14px> 1 <img src=./images/hexagon_symbol.png style=width:14px;height:14px> 1. Because 1 can make every other element under <img src=./images/hexagon_symbol.png style= width:14 px;height:14px>, we say that 1 is a <i>generator</i> under <img src=./images/hexagon_symbol.png style=width:14px;height:14px>. <br /><br /> However, 2 is not a generator under <img src=./images/hexagon_symbol.png style=width:14px;height:14px>, because 4 = 2 <img src=./images/hexagon_symbol.png style=width:14px;height:14px> 2, and 0 = 2 <img src=./images/hexagon_symbol.png style=width:14px;height:14px> 2 <img src=./images/hexagon_symbol.png style=width:14px;height:14px> 2, but there is no way to make 1, 3, or 5 using just 2.","orientation_history":[0],"rt":15815,"trial_type":"polygon-arrow-instructions","trial_index":0,"trial_index_global":36,"time_elapsed":706953,"internal_chunk_id":"0-0"},{"nsides":6,"question":"Now you try! Is 3 a generator under <img src=./images/hexagon_symbol.png style=width:14px;height:14px>? <br /><br /> (Remember, a generator is an element which can make every other element.)","response_type":"multi","response_choices":["Yes","No"],"correct_response":"No","response":"No","explain":false,"explanation":"","explanation_history":[],"orientation_history":[[0]],"response_history":["No"],"rt":3808,"trial_type":"polygon-arrow-question","trial_index":0,"trial_index_global":37,"time_elapsed":710762,"internal_chunk_id":"0-0.10-0"},{"nsides":6,"feedback":"Correct! 3 is not a generator under <img src=./images/hexagon_symbol.png style=width:14px;height:14px>, because 3 = 3, 0 = 3 <img src=./images/hexagon_symbol.png style=width:14px;height:14px> 3, but there is no way to make 1, 2, 4, or 5 using just 3.","orientation_history":[0],"rt":671,"trial_type":"polygon-arrow-feedback","trial_index":0,"trial_index_global":38,"time_elapsed":711433,"internal_chunk_id":"0-0.10-0"},{"nsides":6,"question":"Is 5 a generator under <img src=./images/hexagon_symbol.png style=width:14px;height:14px>? <br /><br /> (Remember, a generator is an element which can make every other element.)","response_type":"multi","response_choices":["Yes","No"],"correct_response":"Yes","response":"No","explain":false,"explanation":"","explanation_history":[],"orientation_history":[[0]],"response_history":["No"],"rt":2152,"trial_type":"polygon-arrow-question","trial_index":0,"trial_index_global":39,"time_elapsed":713585,"internal_chunk_id":"0-0.10-0"},{"nsides":6,"feedback":"Sorry, that's incorrect. 5 is a generator under <img src=./images/hexagon_symbol.png style=width:14px;height:14px>, because 5 = 5, 4 = 5 <img src=./images/hexagon_symbol.png style=width:14px;height:14px> 5, 3 = 5 <img src=./images/hexagon_symbol.png style=width:14px;height:14px> 5 <img src=./images/hexagon_symbol.png style=width:14px;height:14px> 5, 2 = 5 <img src=./images/hexagon_symbol.png style=width:14px;height:14px> 5 <img src=./images/hexagon_symbol.png style=width:14px;height:14px> 5 <img src=./images/hexagon_symbol.png style=width:14px;height:14px> 5, 1  = 5 <im g src=./images/hexagon_symbol.png style=width:14px;height:14px> 5 <img src=./images/hexagon_symbol.png style=width:14px;height:14px> 5 <img src=./images/hexagon_symbol.png style=width:14px;height:14px> 5 <img src=./images/hexagon_symbol.png style=width:14px;height:14px> 5, and 0 = 5 <img src=./images/hexagon_symbol.png style=width:14px;height:14px> 5 <img src=./images/hexagon_symbol.png style=width:14px;height:14px> 5 <img src=./images/hexagon_symbol.png style=width:14px;height:14px> 5 <img src=./images/hexagon_symbol.png style=width:14px;height:14px> 5 <img src=./images/hexagon_symbol.png style=width:14px;height:14px> 5, so you can make all of the numbers under <img src=./images/hexagon_symbol.png style=width:14px;height:14px> using 5","orientation_history":[0],"rt":821,"trial_type":"polygon-arrow-feedback","trial_index":0,"trial_index_global":40,"time_elapsed":714407,"internal_chunk_id":"0-0.10 -0"},{"nsides":6,"question":"Is 4 a generator under <img src=./images/hexagon_symbol.png style=width:14px;height:14px>? <br /><br /> (Remember, a generator is an element which can make every other element.)","response_type":"multi","response_choices":["Yes","No"],"correct_response":"No","response":"No","explain":false,"explanation":"","explanation_history":[],"orientation_history":[[0],[1.0882830317724197,1.0882830317724197,0.9685089806599324,0.9272952180016122,5.961434752782944,4.514993420534809,4.521204520787675,4.450269139119217,4.4153247680436465,4.374932911156908,4.339990533707935,4.309273391165991,4.2599140908226225,4.2382705498791875,4.21304225870456,4.213929569918011,4.213929569918011,4.213929569918011,4.213929569918011,4.213929569918011,4.213929569918011,4.213929569918011,4.213929569918011,4.213929569918011,4.213929569918011,4.213929569918011,4.213929569918011,4.213929569918011,4.213929569918011,4.213929569918011,4.213929569918011,4.213929569918011,4.213929569918011,4.213929569918011,4.213929569918011,4.213929569918011,4.213929569918011,4.213929569918011,4.213929569918011,4.213929569918011,4.213929569918011,4.213929569918011,4.233667136388924,4.305970477728545,4.305970477728545,4.452574610538852,4.661799271615305,4.87548427259493,5.075314751396423,5.2108483908513685,5.276657169242622,5.311985267353707,5.337411699806188,5.337411699806188,5.337411699806188,5.337411699806188,5.337411699806188,5.337411699806188,5.337411699806188,5.337411699806188,5.337411699806188,5.337411699806188,5.337411699806188,5.337411699806188,5.337411699806188,5.337411699806188,5.337411699806188,5.366199002324217,5.366199002324217,5.452363864360561,5.595832421075977,5.916011473361367,6.190428986991442,0.06374331253268695,0.13459791416046674,0.13459791416046674,0.13459791416046674,0.13459791416046674,0.13459791416046674,0.13459791416046674,0.13459791416046674,0.13459791416046674,0.13459791416046674,0.13459791416046674,0.13459791416046674,0.13459791416046674,0.13459791416046674,0.13459791416046674,0.12435499454676147,0.12435499454676147,0.12435499454676147,0.12435499454676147,0.12435499454676147,0.12435499454676147,0.12435499454676147,0.12435499454676147,0.12435499454676147,0.13459791416046674,0.17526637600308081,0.2992463156024765,0.47734538237367174,0.6435011087932844,0.7785955472426395,0.9005329665881088,0.9670469933974601,1.0256966734882194,1.0381527195653795,1.0381527195653795,1.0381527195653795,1.0381527195653795,1.0505291367848502,1.0593763281290591,1.0593763281290591,1.0593763281290591,1.0593763281290591,1.0593763281290591,1.0593763281290591,1.0593763281290591,1.0593763281290591,1.0593763281290591,1.0593763281290591,1.0593763281290591,1.1232763516377267,1.1434231216511392,1.202296233807342,1.346891826664547,1.560895660206908,1.8040932783315238,2.0063388883352467,2.1865695669358853,2.2112717262134183,2.217309474672132,2.217309474672132,2.217309474672132,2.217309474672132,2.217309474672132,2.217309474672132,2.217309474672132,2.217309474672132,2.217309474672132,2.217309474672132,2.217309474672132,2.2051791472709854,2.2051791472709854,2.17388399288704,2.154432145872058,2.154432145872058,2.154432145872058,2.154432145872058,2.154432145872058,2.154432145872058,2.154432145872058,2.154432145872058,2.154432145872058,2.154432145872058,2.154432145872058,2.154432145872058,2.154432145872058,2.154432145872058,2.2367655641740063,2.315754122584775,2.4311980367094224,2.5688394125501164,2.684747660743796,2.744513208364811,2.770701364777131,2.7871434775927213,2.8128816547568243,2.8409162621896655,2.8409162621896655,2.8592648189904772,2.873403873484012,2.8983839001192235,2.8983839001192235,2.8983839001192235,2.8983839001192235,2.8983839001192235,2.8983839001192235,2.8983839001192235,2.8983839001192235,2.8983839001192235,2.912598419381295,2.912598419381295,2.9370848381314496,2.9513296404032636,2.958481836327309,2.9728425511694923,2.9872738776636742,3.024483909022929,3.060885987798236,3.1195374068962782,3.2876049113010684,3.3587039683246984,3.627388539030107,3.627388539030107,3.7449491368797627,3.8098820724203772,3.8584708014285463,3.8682349942715186,3.8682349942715186,3.8682349942715186,3.8682349942715186,3.8831165515956036,3.902605407814523,3.902605407814523,3.902605407814523,3.902605407814523,3.902605407814523,3.902605407814523,3.902605407814523,3.902605407814523,3.902605407814523,3.902605407814523,3.902605407814523,3.902605407814523,3.902605407814523,3.902605407814523,3.902605407814523,3.902605407814523,3.9269908169872414,3.9467902095536345,4.014846973216876,4.079242531089346,4.124386376837123,4.1433314783605315,4.2098916705153275,4.3349930131482655,4.541653768909407,4.7711448031004124,5.014340142214939,5.269513370544085,5.363712615404399,5.408737561147641,5.423036813100831,5.4277265611436825,5.4318037752612875,5.4318037752612875,5.4318037752612875,5.4318037752612875,5.4318037752612875,5.4318037752612875,5.4318037752612875,5.4318037752612875,5.444739614020667,5.461766694352948,5.474960059260752,5.546767544705865,5.671832383624876,5.941938616072499,6.217857837556235,0.1937984530623369,0.32455166751873477,0.37404443151593436,0.37404443151593436,0.37404443151593436,0.37404443151593436,0.37404443151593436,0.37404443151593436,0.37404443151593436,0.37404443151593436,0.37404443151593436,0.37404443151593436,0.37404443151593436,0.37404443151593436,0.37404443151593436,0.37404443151593436,0.34952119099006307,0.3161326359716867,0.21173149522928747,0.21173149522928747,0.1484329092500951,0.12090276430269142,0.09318726176887915,0.07462750570751275,0.05601610354317921,0.05549850524571687,0.05549850524571687,0.05549850524571687,0.05549850524571687,0.05549850524571687,0.05549850524571687,0.05549850524571687,0.05549850524571687,0.05549850524571687,0.05549850524571687,0.05549850524571687,0.05549850524571687,0.05549850524571687,0.05549850524571687,0.05549850524571687,0.05549850524571687,0.046263262424356855,0.02777063659342094,0.02777063659342094,0,6.273926312517463,6.255414670586165,6.255414670586165,6.255414670586165,6.255414670586165,6.255414670586165,6.255414670586165,6.255414670586165,6.255414670586165,6.255414670586165,6.255414670586165,6.255414670586165,6.255414670586165,6.255414670586165,6.255414670586165,6.255414670586165,6.255414670586165,6.255414670586165,6.255414670586165,6.255414670586165,6.255414670586165,6.255414670586165,6.255414670586165,6.255414670586165,6.255414670586165,6.283185307179586],[5.285829506539518,5.240463428811049,5.176036589385496,5.040127487165245,4.84619995785928,4.583478208700699,4.416273834509726,4.299978538787302,4.242961088940222,4.2006501380693315,4.124386376837123,4.093322925802061,4.085080788108927,4.085080788108927,4.085080788108927,4.085080788108927,4.085080788108927,4.085080788108927,4.085080788108927,4.085080788108927,4.085080788108927,4.085080788108927,4.085080788108927,4.085080788108927,4.101663015995481,4.118639313673919,4.16282896685831,4.258791284276918,4.342704691589388,4.455680649951304,4.662430584662747,4.8383016060704875,5.049642168706348,5.248824437989421,5.351551721602351,5.4097797702543975,5.425449813243542,5.425449813243542,5.425449813243542,5.425449813243542,5.425449813243542,5.425449813243542,5.425449813243542,5.425449813243542,5.425449813243542,5.425449813243542,5.425449813243542,5.425449813243542,5.425449813243542,5.425449813243542,5.425449813243542,5.433129197358157,5.44746993932066,5.527190431986143,5.657700266940357,5.900578092821786,6.1506337748829125,0.02104952213704636,0.1182575091390794,0.12676753510136196,0.12676753510136196,0.12676753510136196,0.12676753510136196,0.12676753510136196,0.12676753510136196,0.12676753510136196,0.12676753510136196,0.12676753510136196,0.12676753510136196,0.12676753510136196,0.12676753510136196,0.12676753510136196,0.12676753510136196,0.12676753510136196,0.12676753510136196,0.1651486774146267,0.21447169874823935,0.29706421234104274,0.4679394281428173,0.6747409422235526,0.8341400147073799,0.9272952180016122,0.9940799257324748,1.0164888305933455,1.0386639296282012,1.0526572615533594,1.0526572615533594,1.0526572615533594,1.0526572615533594,1.0526572615533594,1.0526572615533594,1.0526572615533594,1.0526572615533594,1.0526572615533594,1.0526572615533594,1.0526572615533594,1.0526572615533594,1.1034173918274317,1.1569160185441572,1.1569160185441572,1.2631293482211146,1.3876855095324125,1.5707963267948966,1.7539071440573806,1.8757886736093012,1.9008569392043306,1.9173351912288383,1.9173351912288383,1.9173351912288383,1.9173351912288383,1.9173351912288383,1.9173351912288383,1.9173351912288383,1.9173351912288383,1.9173351912288383,1.9173351912288383,1.9173351912288383,1.9173351912288383,1.9173351912288383,1.9173351912288383,1.9173351912288383,1.9173351912288383,1.9173351912288383,1.925501978805837,1.9529130084735087,1.9529130084735087,1.959485827301131,2.0057632778404764,2.158798930342464,2.3787470568426494,2.6541400184039174,2.9781162154190994,3.160282066036699,3.2541582693934785,3.294241981985058,3.3012393232504547,3.3012393232504547,3.3012393232504547,3.3012393232504547,3.3012393232504547,3.3012393232504547,3.317714827415613,3.317714827415613,3.317714827415613,3.317714827415613,3.317714827415613,3.317714827415613,3.317714827415613,3.317714827415613,3.317714827415613,3.317714827415613,3.3259170624894923,3.360261599463735,3.3886163036410113,3.4851976514697975,3.651184918398719,3.8493031750576954,4.030072425509942,4.162747080189643,4.222431654130961,4.26486900522752,4.274459172588904,4.274459172588904,4.274459172588904,4.274459172588904,4.274459172588904,4.274459172588904,4.274459172588904,4.274459172588904,4.274459172588904,4.274459172588904,4.274459172588904,4.274459172588904,4.274459172588904,4.283983184449492,4.283983184449492,4.348410023875045,4.4674103172578254,4.646369362906013,4.874740462297504,5.150952246201131,5.354393084308225,5.433200483357465,5.458971697700674,5.458971697700674,5.458971697700674,5.458971697700674,5.458971697700674,5.458971697700674,5.458971697700674,5.458971697700674,5.458971697700674,5.458971697700674,5.458971697700674,5.458971697700674,5.458971697700674,5.458971697700674,5.458971697700674,5.458971697700674,5.458971697700674,5.458971697700674,5.487886477194149,5.523422552303815,5.578691242937369,5.6996770553934795,5.896309589448558,6.073905756732046,6.171582012494198,6.222913568495193,6.222913568495193,6.222913568495193,6.222913568495193,6.222913568495193,6.222913568495193,6.222913568495193,6.222913568495193,6.222913568495193,6.222913568495193,6.222913568495193,6.222913568495193,6.222913568495193,6.222913568495193,6.222913568495193,6.248716206180078,0.025856305359259757,0.025856305359259757,0.11160329468538865,0.25307565216460226,0.47089385898070324,0.6637791401361016,0.7696926485663089,0.8363743704727616,0.8825274612655568,0.897175204931927,0.897175204931927,0.897175204931927,0.897175204931927,0.897175204931927,0.897175204931927,0.897175204931927,0.897175204931927,0.897175204931927,0.897175204931927,0.897175204931927,0.897175204931927,0.897175204931927,1.0051932349214807,1.0240074859056492,1.1828162472820223,1.3484475447249493,1.3484475447249493,1.5186696777492503,1.6575346654708816,1.7483924940783844,1.8177512719338216,1.8523675117510552,1.8675520875726186,1.8652583714290032,1.8652583714290032,1.8652583714290032,1.8652583714290032,1.8652583714290032,1.8652583714290032,1.8652583714290032,1.8652583714290032,1.8652583714290032,1.8802018293473144,1.8825969607987336,1.8950657675519156,1.9681206899674677,2.0687815789282147,2.2302818645065465,2.2302818645065465,2.6245607010982517,2.696461446656996,2.696461446656996,2.696461446656996,2.696461446656996,2.696461446656996,2.70396147804936,2.726778370468733,2.773804191699,2.8424371232798498,2.9189317129534285,3.010277214606705,3.1132983197412893,3.3778379143082304,3.5464844398748765,3.676790269209601,3.7977158129390984,3.888913991397438,3.9502424397977043,3.9684417150454325,3.9776387092673535,3.9776387092673535,3.986281971557607,4.029766427967473,4.055173020840943,4.055173020840943,4.1887902047863905]],"response_history":["No "],"rt":18025,"trial_type":"polygon-arrow-question","trial_index":0,"trial_index_global":41,"time_elapsed":732433,"internal_chunk_id":"0-0.10-0"},{"nsides":6,"feedback":"Correct! 4 is not a generator under <img src=./images/hexagon_symbol.png style=width:14px;height:14px>, because 4 = 4, 2 = 4 <img src=./images/hexagon_symbol.png style=width:14px;height:14px> 4, and 0 = 4 <img src=./images/hexagon_symbol.png style=width:14px;height:14px> 4 <img src=./images/hexagon_symbol.png style=width:14px;height:14px> 4, but there is no way to make 1, 3, or 5 using just 4.","orientation_history":[0],"rt":839,"trial_type":"polygon-arrow-feedback","trial_index":0,"trial_index_global":42,"time_elapsed":733273,"internal_chunk_id":"0-0.10-0"},{"nsides":6,"question":"Is 0 a generator under <img src=./images/hexagon_symbol.png style=width:14px;height:14px>? <br /><br /> (Remember, a generator is an element which can make every other element.)","response_type":"mu lti","response_choices":["Yes","No"],"correct_response":"No","response":"No","explain":false,"explanation":"","explanation_history":[],"orientation_history":[[0]],"response_history":["No"],"rt":3288,"trial_type":"polygon-arrow-question","trial_index":0,"trial_index_global":43,"time_elapsed":736562,"internal_chunk_id":"0-0.10-0"},{"nsides":6,"feedback":"Correct! 0 is not a generator under <img src=./images/hexagon_symbol.png style=width:14px;height:14px>, because 0 = 0, but there is no way to make 1, 2, 3, 4, or 5 using just 0.","orientation_history":[0],"rt":887,"trial_type":"polygon-arrow-feedback","trial_index":0,"trial_index_global":44,"time_elapsed":737449,"internal_chunk_id":"0-0.10-0"},{"nsides":9,"instructions":"Now we are going to ask you some questions about a new operation, <img src=./images/nonagon_symbol.png style=width:14px;height:14px>, on the numbers 0, 1, 2, 3, 4, 5, 6, 7, 8. It works exactly like <img src=./images/hexagon_symbol.png style=width :14px;he ight:14px>, except now you use the nonagon shown at the right. Equivalently, after adding the two numbers you subtract 9 if your result is 9 or greater.<br /><br />Do you see how the different ways of performing <img src=./images/nonagon_symbol.png style=width:14px;height:14px> give the same result, just like with <img src=./images/hexagon_symbol.png style=width:14px;height:14px>? By labeling the points of the nonagon with the numbers from 0 to 8, we ensure that when we combine two numbers under <img src=./images/nonagon_symbol.png style=width:14px;height:14px>, we only produce numbers between 0 and 8. When we use the arithmetic strategy, adding the second number to the first mimics counting around the nonagon, and subtracting 9 each time we get above 8 makes sure the results correspond to the numbers on the points of the nonagon.<br /><br />We'll give you one practice question with feedback to make sure you understand the new operation. After that,  try to  complete the remaining questions as accurately as possible.","orientation_history":[0],"rt":23294,"trial_type":"polygon-arrow-instructions","trial_index":0,"trial_index_global":45,"time_elapsed":760744,"internal_chunk_id":"0-0"},{"nsides":9,"question":"Practice: What is 5 <img src=./images/nonagon_symbol.png style=width:14px;height:14px> 5?","response_type":"free","response_choices":[],"correct_response":"1","response":"1","explain":false,"explanation":"","explanation_history":[],"orientation_history":[[0]],"response_history":["1"],"rt":5552,"trial_type":"polygon-arrow-question","trial_index":0,"trial_index_global":46,"time_elapsed":766297,"internal_chunk_id":"0-0.12-0"},{"nsides":9,"feedback":"Correct! 5 <img src=./images/nonagon_symbol.png style=width:14px;height:14px> 5 = 1 because 5 steps clockwise on the nonagon from 5 brings us to 1. Equivalently, 5 + 5 = 10 and 10 - 9 = 1.","orientation_history":[0],"rt":623,"trial_type":"polygon-arrow-feedback","trial_index":0,"trial_index_global":47,"time_elapsed":766920,"internal_chunk_id":"0-0.12-0"},{"nsides":9,"question":"What is 3 <img src=./images/nonagon_symbol.png style=width:14px;height:14px> 3?","response_type":"free","response_choices":[],"correct_response":"6","response":"6","explain":false,"explanation":"","explanation_history":[],"orientation_history":[[0]],"response_history":["6"],"rt":4592,"trial_type":"polygon-arrow-question","trial_index":0,"trial_index_global":48,"time_elapsed":771513,"internal_chunk_id":"0-0.12-0"},{"nsides":9,"question":"What is 7 <img src=./images/nonagon_symbol.png style=width:14px;height:14px> 4?","response_type":"free","response_choices":[],"correct_response":"2","response":"2","explain":false,"explanation":"","explanation_history":[],"orientation_history":[[0]],"response_history":["2"],"rt":5376,"trial_type":"polygon-arrow-question","trial_index":0,"trial_index_global":49,"time_elapsed":776889,"internal_chunk_id":"0-0.12-0"},{"nsides":9,"question":"What is 1 <img src=./images/nonagon_symbol.png style=width:14px;height:14px> 8?","response_type":"free","response_choices":[],"correct_response":"0","response":"0","explain":false,"explanation":"","explanation_history":[],"orientation_history":[[0]],"response_history":["0"],"rt":4016,"trial_type":"polygon-arrow-question","trial_index":0,"trial_index_global":50,"time_elapsed":780905,"internal_chunk_id":"0-0.12-0"},{"nsides":9,"question":"What is 5 <img src=./images/nonagon_symbol.png style=width:14px;height:14px> 4?","response_type":"free","response_choices":[],"correct_response":"0","response":"0","explain":false,"explanation":"","explanation_history":[],"orientation_history":[[0],[5.85655781405271,5.85655781405271,5.906694972733064,5.961434752782944,6.211877842394296,0.48447792903702314,1.0714496051147664,1.3854483767992019,1.5707963267948966,1.721811669716256,1.9195673303788037,2.0988707752212563,2.198632920606686,2.2780928124723596,2.356194490192345,2.4009407216469603,2.47503483476011,2.5563755581582335,2.6078844619505315,2.6344941491974563,2.6736532254469756,2.7253233557328516,2.7646833832649724,2.859335231608302,2.859335231608302,3.051834479399843,3.051834479399843,3.1515923202764586,3.2806885950718643,3.3771376343106567,3.4146013566765037,3.423850075571284,3.423850075571284,3.423850075571284,3.423850075571284,3.423850075571284,3.4484189429963505,3.4484189429963505,3.4484189429963505,3.4484189429963505,3.4484189429963505,3.4484189429963505,3.4484189429963505,3.4484189429963505,3.4484189429963505,3.4484189429963505,3.4484189429963505,3.4544938814701776,3.498212789541225,3.498212789541225,3.5884351220755573,3.490658503988659],[4.168743684851485,4.176831678426893,4.176831678426893,4.176831678426893,4.186322561387927,4.207947688516018,4.207947688516018,4.207947688516018,4.207947688516018,4.207947688516018,4.207947688516018,4.207947688516018,4.207947688516018,4.207947688516018,4.207947688516018,4.207947688516018,4.207947688516018,4.207947688516018,4.207947688516018,4.207947688516018,4.207947688516018,4.207947688516018,4.207947688516018,4.207947688516018,4.207947688516018,4.207947688516018,4.207947688516018,4.2487413713838835,4.291268906003667,4.362781856594288,4.487112201170635,4.567576482145751,4.639601131780765,4.754031559483278,4.857201478623629,4.957367643511554,4.9853976834714,5.007439649776066,5.007439649776066,5.007439649776066,5.007439649776066,5.007439649776066,5.007439649776066,5.007439649776066,5.007439649776066,5.007439649776066,5.007439649776066,5.007439649776066,5.007439649776066,5.007439649776066,5.0252902082650746,5.042936961775112,5.0775904301728625,5.1507255402426475,5.246097172023951,5.391802785792538,5.526764537633699,5.658162587758088,5.723503741176307,5.723503741176307,5.723503741176307,5.723503741176307,5.723503741176307,5.728877810978035,5.756558035745836,5.81953769817878,5.896679002065666,6.0169332580286605,6.0169332580286605,6.170034325589102,6.249864311301339,0,0.010869137177270227,0.010869137177270227,0.010869137177270227,0]],"response_history":["0"],"rt":4759,"trial_type":"polygon-arrow-question","trial_index":0,"trial_index_global":51,"time_elapsed":785664,"internal_chunk_id":"0-0.12-0"},{"nsides":9,"question":"What is 6 <img src=./images/nonagon_symbol.png style=width:14px;height:14px> 6?","response_type":"free","response_choices":[],"correct_response":"3","response":"3","explain":false,"explanation":"","explanation_history":[],"orientation_history":[[0]],"response_history":["3"],"rt":1855,"trial_type":"polygon-arrow-question","trial_index":0,"trial_index_global":52,"time_elapsed":787520,"internal_chunk_id":"0-0.12-0"},{"nsides":9,"instructions":"On the following question, and several others later in the HIT, we will ask you to explain how you got your answer. On these questions, you will be given one box for your answer to the question, and a second for your explanation. Please explain your thought process in as much detail as possible (at least o ne sente nce, and more if you can).","orientation_history":[0],"rt":12704,"trial_type":"polygon-arrow-instructions","trial_index":0,"trial_index_global":53,"time_elapsed":800225,"internal_chunk_id":"0-0.12-0"},{"nsides":9,"question":"What is 4 <img src=./images/nonagon_symbol.png style=width:14px;height:14px> 1? Please explain in words how you got your answer.","response_type":"free","response_choices":[],"correct_response":"5","response":"5","explain":true,"explanation":"I just added 4 and 1 together, and since it was under 9 it was left as 5","explanation_history":["I just added 4 and 1 together ","I just added 4 and 1 together, and since it was under 9 ","I just added 4 and 1 together, and since it was under 9 it was left as 5"],"orientation_history":[[0]],"response_history":["5"],"rt":38896,"trial_type":"polygon-arrow-question","trial_index":0,"trial_index_global":54,"time_elapsed":839122,"internal_chunk_id":"0-0.12-0"},{"nsides":9,"question":"What is 8 <img src=./image s/nonago n_symbol.png style=width:14px;height:14px> 4? Please explain in words how you got your answer.","response_type":"free","response_choices":[],"correct_response":"3","response":"3","explain":true,"explanation":"Eight plus four is twelve, since it's greater than 9 subtract 9 from it to get 3","explanation_history":["9","Eight plus four is 1","Eight plus four is twelve, since it's greate rth","Eight plus four is twelve, since it's greate rt","Eight plus four is twelve, since it's greate r","Eight plus four is twelve, since it's greate ","Eight plus four is twelve, since it's greater than 9 sub","Eight plus four is twelve, since it's greater than 9 subtract 98","Eight plus four is twelve, since it's greater than 9 subtract 9 from it to get 3"],"orientation_history":[[0]],"response_history":["3"],"rt":18527,"trial_type":"polygon-arrow-question","trial_index":0,"trial_index_global":55,"time_elapsed":857650,"internal_chunk_id":"0-0.12-0"},{"nsides":9,"question":"What is the id entity u nder <img src=./images/nonagon_symbol.png style=width:14px;height:14px>? Please explain in words how you got your answer.","response_type":"free","response_choices":[],"correct_response":"0","response":"0","explain":true,"explanation":"x(9)0 always produces x","explanation_history":["x(9)","x(9","x(","x","When ","When","Whe","Wh","W","x(9)0 always produces x"],"orientation_history":[[0]],"response_history":["0"],"rt":24824,"trial_type":"polygon-arrow-question","trial_index":0,"trial_index_global":56,"time_elapsed":882474,"internal_chunk_id":"0-0.12-0"},{"nsides":9,"question":"What is the inverse of 5 under <img src=./images/nonagon_symbol.png style=width:14px;height:14px>?","response_type":"free","response_choices":[],"correct_response":"4","response":"4","explain":false,"explanation":"","explanation_history":[],"orientation_history":[[0]],"response_history":["4"],"rt":5742,"trial_type":"polygon-arrow-question","trial_index":0,"trial_index_global":57,"time_elapsed":888217,"internal_chunk_id":"0-0.12-0"},{"nsides":9,"question":"What is the inverse of 2 under <img src=./images/nonagon_symbol.png style=width:14px;height:14px>?","response_type":"free","response_choices":[],"correct_response":"7","response":"7","explain":false,"explanation":"","explanation_history":[],"orientation_history":[[0]],"response_history":["7"],"rt":9096,"trial_type":"polygon-arrow-question","trial_index":0,"trial_index_global":58,"time_elapsed":897314,"internal_chunk_id":"0-0.12-0"},{"nsides":9,"question":"What is the inverse of 0 under <img src=./images/nonagon_symbol.png style=width:14px;height:14px>?","response_type":"free","response_choices":[],"correct_response":"0","response":"0","explain":false,"explanation":"","explanation_history":[],"orientation_history":[[0]],"response_history":["9","0"],"rt":4536,"trial_type":"polygon-arrow-question","trial_index":0,"trial_index_global":59,"time_elapsed":901850,"internal_chunk_id":"0-0.12-0"},{"nsides":9,"question":"What is the inverse of 3 under <img src=./images/nonagon_symbol.png style=width:14px;height:14px>? Please explain in words how you got your answer.","response_type":"free","response_choices":[],"correct_response":"6","response":"6","explain":true,"explanation":"Three plus six is nine, minus nine is zero.","explanation_history":["Three plus six is nine, minus nine is zero."],"orientation_history":[[0]],"response_history":["6"],"rt":11031,"trial_type":"polygon-arrow-question","trial_index":0,"trial_index_global":60,"time_elapsed":912882,"internal_chunk_id":"0-0.12-0"},{"nsides":9,"question":"Is 2 a generator under <img src=./images/nonagon_symbol.png style=width:14px;height:14px>? Please explain in words how you got your answer.","response_type":"multi","response_choices":["Yes","No"],"correct_response":"Yes","response":"Yes","explain":true,"explanation":"If you start at 2 and perform (9) on it, then (9) on that and so on, you get the following sequence: 4 , 6, 8,  1, 3, 5, 7, 0, 2, ... \nThis produces all values available under (9) so 2 is a generator under (9).","explanation_history":["If you start at 2 and perfrom","If you start at 2 and perfro","If you start at 2 and perfr","If you start at 2 and perform (9) on it, you get the folo","If you start at 2 and perform (9) on it, you get the fol","If you start at 2 and perform (9) on it, then (9) on that and so on ","If you start at 2 and perform (9) on it, then (9) on that and so on, you get the following sequence: 4, 6, 8, 1, 3, 5, 7, 0, 2 ","If you start at 2 and perform (9) on it, then (9) on that and so on, you get the following sequence: 4, 6, 8, 1, 3, 5, 7, 0, 2, ... \nThis proc","If you start at 2 and perform (9) on it, then (9) on that and so on, you get the following sequence: 4, 6, 8, 1, 3, 5, 7, 0, 2, ... \nThis produces all values avial","If you start at 2 and perform (9) on it, then (9) on that and so on, you get the following sequence: 4, 6, 8, 1, 3, 5, 7, 0, 2, ... \nThis  produce s all values avia","If you start at 2 and perform (9) on it, then (9) on that and so on, you get the following sequence: 4, 6, 8, 1, 3, 5, 7, 0, 2, ... \nThis produces all values avi","If you start at 2 and perform (9) on it, then (9) on that and so on, you get the following sequence: 4, 6, 8, 1, 3, 5, 7, 0, 2, ... \nThis produces all values available under the ","If you start at 2 and perform (9) on it, then (9) on that and so on, you get the following sequence: 4, 6, 8, 1, 3, 5, 7, 0, 2, ... \nThis produces all values available under the","If you start at 2 and perform (9) on it, then (9) on that and so on, you get the following sequence: 4, 6, 8, 1, 3, 5, 7, 0, 2, ... \nThis produces all values available under th","If you start at 2 and perform (9) on it, then (9) on that and so on, you get the following sequence: 4, 6, 8, 1, 3, 5, 7, 0, 2, ... \nThis produces all values available under t","If you start at 2 and perform (9) on it, then (9) on that and so on, you get the f ollowing  sequence: 4, 6, 8, 1, 3, 5, 7, 0, 2, ... \nThis produces all values available under (9) so 2 is a generator under (9)."],"orientation_history":[[0],[6.249107595592578,6.249107595592578,6.249107595592578,6.249107595592578,6.249107595592578,6.249107595592578,6.249107595592578,6.249107595592578,6.249107595592578,6.249107595592578,6.260717178593761,0.011235482257962559,0.0841382405311708,0.15660187698201522,0.25168997175818664,0.3487710035839069,0.41241044159738727,0.41241044159738727,0.45106965598852344,0.5498531826765849,0.6644953990947569,0.8204714939306736,1.0014831356942346,1.059565614517107,1.1164942401015803,1.125925853386523,1.1824776086224307,1.2422431562434455,1.3054642405859118,1.3054642405859118,1.3054642405859118,1.3054642405859118,1.3054642405859118,1.3054642405859118,1.3054642405859118,1.361156480920684,1.373400766945016,1.373400766945016,1.3854483767992019,1.3854483767992019,1.3854483767992019,1.3854483767992019,1.3854483767992019,1.3854483767992019,1.3854483767992019,1.3854483767992019,1.3854483767992019,1.3854483767992019,1.3854483767992019,1.3854483767992019,1.3854483767992019,1.4259838285559576,1.4670039863378537,1.5810000542888507,1.6522483711007676,1.7524451567949084,1.8013181658382653,1.8771634794109435,1.9228406411103138,1.9707006232630155,1.9744302521081623,1.9744302521081623,1.9744302521081623,1.9744302521081623,1.9744302521081623,1.9998257368399415,1.9998257368399415,1.9998257368399415,1.9998257368399415,1.9998257368399415,1.9998257368399415,2.008587630436443,2.0169018757383004,2.0432932623119604,2.047835992271948,2.052460004349758,2.0886893088652876,2.156013422226456,2.3151217116018907,2.461071428922579,2.575537744797532,2.647651284670212,2.6892227619273825,2.6892227619273825,2.6892227619273825,2.6892227619273825,2.6892227619273825,2.6892227619273825,2.6892227619273825,2.6892227619273825,2.6892227619273825,2.6892227619273825,2.6892227619273825,2.6892227619273825,2.6892227619273825,2.6892227619273825,2.6892227619273825,2.6892227619273825,2.6892227619273825,2.6892227619273825,2.6892227619273825,2.7080111696380316,2.7191202612040777,2.7191202612040777,2.726778370468733,2.726778370468733,2.726778370468733,2.726778370468733,2.742250199907086,2.742250199907086,2.7579267293291867,2.7689477497399637,2.808972962015881,2.833539872566017,2.866898748188684,2.8923405122045796,2.9161342873067335,2.9161342873067335,2.9658543569044262,3.065549094310676,3.1900982658301764,3.2862070928097333,3.346592629593367,3.412028778742793,3.4633432079864352,3.4814135300126594,3.4992559046009992,3.5080894394410507,3.525577277544812,3.53423015134992,3.53423015134992,3.53423015134992,3.53423015134992,3.53423015134992,3.53423015134992,3.53423015134992,3.53423015134992,3.53423015134992,3.53423015134992,3.551350581514176,3.737510659106094,3.9540112661745064,3.9540112661745064,4.225489748573421,4.385687971379204,4.4246059386664705,4.44347382168397,4.44347382168397,4.44347382168397,4.44347382168397,4.44347382168397,4.44347382168397,4.44347382168397,4.44347382168397,4.44347382168397,4.44347382168397,4.44347382168397,4.44347382168397,4.44347382168397,4.44347382168397,4.44347382168397,4.43822152926503,4.402686035842233,4.346332464537271,4.304432852312269,4.273384269178497,4.262874705877151,4.262874705877151,4.262874705877151,4.262874705877151,4.262874705877151,4.262874705877151,4.262874705877151,4.262874705877151,4.262874705877151,4.262874705877151,4.262874705877151,4.262874705877151,4.262874705877151,4.262874705877151,4.262874705877151,4.262874705877151,4.262874705877151,4.262874705877151,4.262874705877151,4.266596616523437,4.318226396114415,4.5372119858615285,4.677005524260538,4.730086247642459,4.774256826249069,4.7911729413738335,4.799884321187081,4.799884321187081,4.799884321187081,4.799884321187081,4.799884321187081,4.799884321187081,4.799884321187081,4.799884321187081,4.799884321187081,4.799884321187081,4.868990857366705,4.886060178726263,4.965753191190828,5.099573054566012,5.263462567629907,5.381746394537234,5.455895498686209,5.486022980632379,5.486022980632379,5.486022980632379,5.486022980632379,5.486022980632379,5.486022980632379,5.486022980632379,5.486022980632379,5.486022980632379,5.486022980632379,5.486022980632379,5.486022980632379,5.486022980632379,5.486022980632379,5.486022980632379,5.486022980632379,5.486022980632379,5.486022980632379,5.486022980632379,5.533486256461462,5.539183599331672,5.636138113959263,5.841273405020573,6.072091973956839,6.263385914613194,0.10639285469890414,0.1159819844803247,0.1159819844803247,0.1159819844803247,0.1159819844803247,0.1159819844803247,0.1159819844803247,0.1159819844803247,0.1159819844803247,0.1159819844803247,0.1159819844803247,0.1159819844803247,0.1159819844803247,0.1159819844803247,0.1159819844803247,0.1159819844803247,0.15410811656542633,0.24726176418276036,0.3704226852855754,0.4752301026094623,0.5969110538492552,0.6542865149149015,0.6782828400452166,0.6782828400452166,0.6782828400452166,0.6782828400452166,0.6782828400452166,0.6782828400452166,0.6782828400452166,0.6782828400452166,0.6782828400452166,0.6782828400452166,0.6782828400452166,0.6782828400452166,0.6782828400452166,0.6782828400452166,0.6782828400452166,0.6782828400452166,0.6782828400452166,0.6782828400452166,0.6782828400452166,0.6782828400452166,0.6782828400452166,0.6782828400452166,0.6782828400452166,0.6782828400452166,0.8205595453524765,0.9004654993098412,1.0387198987331967,1.208032067531739,1.208032067531739,1.208032067531739,1.208032067531739,1.208032067531739,1.208032067531739,1.208032067531739,1.208032067531739,1.208032067531739,1.208032067531739,1.208032067531739,1.208032067531739,1.208032067531739,1.208032067531739,1.208032067531739,1.208032067531739,1.208032067531739,1.208032067531739,1.208032067531739,1.208032067531739,1.208032067531739,1.208032067531739,1.208032067531739,1.208032067531739,1.208032067531739,1.208032067531739,1.208032067531739,1.208032067531739,1.208032067531739,1.208032067531739,1.208032067531739,1.208032067531739,1.208032067531739,2.095055617809777,2.095055617809777,2.104036463237821,2.119636680648329,2.1211822744716877,2.11967995383191,2.1204382269899433,2.1169628902286846,2.1158959801015738,2.0943951023931953],[2.2076896022480677,2.2076896022480677,2.221023791543336,2.22787126250655,2.2581492128985055,2.2670008776006116,2.3318090810196264,2.364458764851996,2.439335722080786,2.5602124697848936,2.5970409454337564,2.6179079925935502,2.6179079925935502,2.6179079925935502,2.6285347441807545,2.6451699001849116,2.661642141270325,2.704965493776252,2.727085779005007,2.7813995091719628,2.881778283743955,3.0694290246301357,3.2702891548678075,3.3838012406994133,3.4903636571737002,3.5201382489012865,3.5201382489012865,3.5201382489012865,3.5201382489012865,3.5201382489012865,3.5201382489012865,3.5201382489012865,3.5201382489012865,3.5201382489012865,3.5201382489012865,3.5201382489012865,3.5201382489012865,3.5201382489012865,3.5201382489012865,3.5201382489012865,3.5201382489012865,3.5201382489012865,3.5201382489012865,3.5201382489012865,3.5201382489012865,3.5201382489012865,3.5201382489012865,3.5201382489012865,3.5201382489012865,3.5299113717622594,3.5906781851978606,3.7395617045435676,3.899970367799977,4.102729113672608,4.219338083179879,4.266283431441286,4.326895113455361,4.411911812012109,4.544957201914167,4.616790861720849,4.618075029057509,4.618075029057509,4.618075029057509,4.618075029057509,4.618075029057509,4.63148488122946,4.644923955862785,4.751842181481729,4.827265585801589,4.8899851476681775,4.933703422732481,4.945568781031506,4.980755191290596,5.01527384875966,5.060155968241705,5.071159650655262,5.071159650655262,5.071159650655262,5.071159650655262,5.071159650655262,5.071159650655262,5.071159650655262,5.071159650655262,5.071159650655262,5.071159650655262,5.071159650655262,5.071159650655262,5.071159650655262,5.071159650655262,5.071159650655262,5.071159650655262,5.071159650655262,5.071159650655262,5.071159650655262,5.071159650655262,5.071159650655262,5.071159650655262,5.071159650655262,5.071159650655262,5.071159650655262,5.071159650655262,5.071159650655262,5.071159650655262,5.071159650655262,5.071159650655262,5.071159650655262,5.075314751396423,5.075314751396423,5.075314751396423,5.075314751396423,5.075314751396423,5.075314751396423,5.075314751396423,5.075314751396423,5.075314751396423,5.075314751396423,5.075314751396423,5.075314751396423,5.075314751396423,5.075314751396423,5.075314751396423,5.075314751396423,5.075314751396423,5.075314751396423,5.075314751396423,5.075314751396423,5.075314751396423,5.075314751396423,5.075314751396423,5.075314751396423,5.075314751396423,5.075314751396423,5.075314751396423,5.075314751396423,5.088349934255995,5.129287050794583,5.170048637001583,5.332638466367511,5.520510504623779,5.520510504623779,5.739995730891758,5.996246554248817,6.195177933651845,0.02777063659342094,0.10487693873023374,0.10487693873023374,0.10487693873023374,0.10487693873023374,0.10487693873023374,0.10487693873023374,0.10487693873023374,0.10487693873023374,0.10487693873023374,0.10487693873023374,0.10487693873023374,0.10487693873023374,0.10487693873023374,0.10487693873023374,0.10487693873023374,0.10487693873023374,0.10487693873023374,0.10487693873023374,0.10487693873023374,0.10487693873023374,0.10487693873023374,0.10487693873023374,0.10487693873023374,0.10487693873023374,0.10487693873023374,0.10487693873023374,0.10487693873023374,0.10487693873023374,0.10487693873023374,0.10487693873023374,0.10487693873023374,0.10487693873023374,0.10487693873023374,0.10487693873023374,0.10487693873023374,0.10487693873023374,0.10487693873023374,0.10487693873023374,0.10487693873023374,0.10487693873023374,0.10487693873023374,0.10487693873023374,0.10487693873023374,0.10487693873023374,0.10487693873023374,0.10487693873023374,0.10487693873023374,0.10487693873023374,0.07878396098914364,0.05258306161094173,0.039453201097039425,0.039453201097039425,0.013157135472755765,0.013157135472755765,0.013157135472755765,0.013157135472755765,0.013157135472755765,0.013157135472755765,0.013157135472755765,0.013332543294145571,0.013512691013328082,0.05549850524571687,0.16977827396833844,0.44501622475554137,0.8362018674556699,1.0341081524909712,1.1606689862534056,1.186626962402297,1.2154193086545466,1.2368512549500026,1.2368512549500026,1.239982576452546,1.2610933822524404,1.2784490606022594,1.301323676862733,1.3236198650089266,1.3559809263932379,1.35970299357215,1.35970299357215,1.35970299357215,1.35970299357215,1.35970299357215,1.35970299357215,1.3699994195177745,1.3699994195177745,1.4114446858909797,1.4276382388112476,1.4520909896517196,1.5147802232517174,1.5999143083019354,1.8574175690203492,2.099569099130089,2.298195096984392,2.4149503129080676,2.485897027348257,2.485897027348257,2.5170951048004855,2.5296902191551265,2.555531795174669,2.569003087599121,2.5881252580027003,2.597622872377795,2.6070762724713212,2.6130209401621527,2.6224465393432705,2.6284498977529926,2.6284498977529926,2.6284498977529926,2.6284498977529926,2.6284498977529926,2.6284498977529926,2.6344941491974563,2.646705211158719,2.6590793585673165,2.696870229628854,2.7423718840145406,2.796590476382688,2.8892746727033662,3.0403772119223262,3.24280809525726,3.24280809525726,3.4440219411306803,3.70097321877441,3.8712111759603456,3.9120665519971567,3.9220647484588187,3.9220647484588187,3.9220647484588187,3.9220647484588187,3.9220647484588187,3.9220647484588187,3.9220647484588187,3.9220647484588187,3.9220647484588187,3.9220647484588187,3.9220647484588187,3.9220647484588187,3.9220647484588187,3.9220647484588187,3.9220647484588187,3.9731119330017526,4.023464592169828,4.117629722901337,4.279981204814153,4.4158431713149895,4.4158431713149895,4.508073115784569,4.528644449645567,4.545805583724926,4.545805583724926,4.545805583724926,4.55442408743621,4.624123342399882,4.71238898038469,4.8617116410783865,5.086722596392273,5.3159114020546845,5.497787143782138,5.6018870818917375,5.642401583002078,5.650436472177403,5.650436472177403,5.650436472177403,5.650436472177403,5.650436472177403,5.650436472177403,5.650436472177403,5.650436472177403,5.650436472177403,5.650436472177403,5.650436472177403,5.650436472177403,5.650436472177403,5.650436472177403,5.650436472177403,5.650436472177403,5.650436472177403,5.650436472177403,5.650436472177403,5.650436472177403,5.650436472177403,5.650436472177403,5.650436472177403,5.650436472177403,5.650436472177403,5.700832361035603,5.735623071239589,5.816290956340403,5.95138483988991,6.249584512763593,0.10881220481724507,0.21510707313656963,0.324269440757019,0.37615226819841485,0.3977708486640146,0.3977708486640146,0.3977708486640146,0.3977708486640146,0.3977708486640146,0.3977708486640146,0.3977708486640146,0.3977708486640146,0.4119695245183761,0.4602229648549119,0.47402785899954636,0.5115561271703055,0.5585993153435624,0.5859017663021322,0.625485040239229,0.6538864920777895,0.6889243882148613,0.7636624565556556,0.8415189460986247,0.9126143804653363,1.1347007990418492,1.2295496356878095,1.669646648863163,1.8687418550064687,2.0188202071752257,2.0188202071752257,2.0642858204628123,2.0759630885804277,2.0759630885804277,2.081745903291507,2.0931997585114255,2.0988707752212563,2.105540519099513,2.105540519099513,2.105540519099513,2.105540519099513,2.1089327260095843,2.1215721886707994,2.1251038229964476,2.132289990061995,2.1417227914441055,2.1684325436787515,2.198539427712418,2.3183746943609282,2.4426833901107194,2.670132703528886,3.082340059926361,3.2540197844199836,3.3374614970686123,3.3359579196848115,3.3359579196848115,3.3435267601893943,3.3510722173688885,3.3810055114815034,3.410507812290514,3.453864818856573,3.475107371136194,3.489098635710609,3.489098635710609,3.489098635710609,3.489098635710609,3.489098635710609,3.489098635710609,3.489098635710609,3.489098635710609,3.5662529361395663,3.675988130344207,4.016304809980464,4.496048319011399,4.770575651198294,5.063833774388241,5.098489704729155,5.1066119183274115,5.1066119183274115,5.1066119183274115,5.1066119183274115,5.1066119183274115,5.1066119183274115,5.1066119183274115,5.1066119183274115,5.1066119183274115,5.1201737190620795,5.172725343209292,5.309300034233945,5.64341552435296,5.916688521328329,6.148863865226618,6.249299977275468,6.274988769429673,6.274988769429673,6.274988769429673,6.274988769429673,6.274988769429673,6.274988769429673,6.283185307179586]],"response_history":["Yes"],"rt":101231,"trial_type":"polygon-arrow-question","trial_index":0,"trial_index_global":61,"time_elapsed":1014113,"internal_chunk_id":"0-0.12-0"},{"nsides":9,"question":"Is 3 a generator under <img src=./images/nonagon_symbol.png style=width:14px;height:14px>? Please explain in words how you got your answer.","response_type":"multi","response_choices":["Yes","No"],"correct_response":"No","response":"No","explain":true,"explanation":"No, since if you start at 3 and perform (9)3 on it and (9)3 on that, you get the following sequence: 6, 0, 3, ...\nThis does not cover all values under (9).","explanation_history":["No, since 3","No, since If you sta","No, since If yo u st","N o, since I","No, since if you srat ","No, since if you srat","No, since if you sra","No, since if you sr","No, since if you start and","No, since if you start an","No, since if you start at 3 and perform 3","No, since if you start at 3 and perform (9)3 on it and ","No, since if you start at 3 and perform (9)3 on it and","No, since if you start at 3 and perform (9)3 on it an","No, since if you start at 3 and perform (9)3 on it a","No, since if you start at 3 and perform (9)3 on it and on ","No, since if you start at 3 and perform (9)3 on it and on","No, since if you start at 3 and perform (9)3 on it and o","No, since if you start at 3 and perform (9)3 on it and (() ","No, since if you start at 3 and perform (9)3 on it and (()","No, since if you start at 3 and perform (9)3 on it and ((","No, since if you start at 3 and perform (9)3 on it and (9) ","No, since if you start at 3 and perform (9)3 on it and (9)3 on that, you get the co","No, since if you start at 3 and perform (9)3  on it a nd (9)3 on that, you get the c","No, since if you start at 3 and perform (9)3 on it and (9)3 on that, you get the following sequence: 3","No, since if you start at 3 and perform (9)3 on it and (9)3 on that, you get the following sequence: 6, 0, 3 ","No, since if you start at 3 and perform (9)3 on it and (9)3 on that, you get the following sequence: 6, 0, 3, ...\nThis does not cover all av","No, since if you start at 3 and perform (9)3 on it and (9)3 on that, you get the following sequence: 6, 0, 3, ...\nThis does not cover all a","No, since if you start at 3 and perform (9)3 on it and (9)3 on that, you get the following sequence: 6, 0, 3, ...\nThis does not cover all values under (()","No, since if you start at 3 and perform (9)3 on it and (9)3 on that, you get the following sequence: 6, 0, 3, ...\nThis does not cover all values under ((","No, since if you start at 3 and perform (9)3 on it and (9)3 on that, you get the following sequence: 6, 0, 3, ...\nThis does not cover al l values  under (9)."],"orientation_history":[[0],[0.06484402755320673,0.06484402755320673,0.06484402755320673,0.19739555984988066,0.21406068356382146,0.3263588167067626,0.43662715981354117,0.6300339095459151,0.982793723247329,1.35970299357215,1.5866680097866865,1.7107209973690143,1.7424243951757765,1.750649826587375,1.7483924940783844,1.7658165941998178,1.772821483198489,1.8080031256785407,1.8080031256785407,1.8505004792585276,1.883142769711395,1.9170818342542746,1.9170818342542746,1.9170818342542746,1.9170818342542746,1.9170818342542746,1.9170818342542746,1.9170818342542746,1.9170818342542746,1.942195487580145,1.967875772019879,1.9931829632422235,2.006149601947199,2.0582489619807727,2.107484501098822,2.137525544318403,2.158798930342464,2.158798930342464,2.1742298042331587,2.1962813670341257,2.20293428832389,2.20293428832389,2.216612246268466,2.2257911823032117,2.2581492128985055,2.2831539248892256,2.348064588012401,2.3955442465809504,2.442593039550792,2.4737600643299884,2.511191232116286,2.6875141304965977,2.797192251546996,2.8605719128652165,2.8727521719108142,2.8727521719108142,2.8727521719108142,2.8727521719108142,2.8727521719108142,2.8727521719108142,2.8727521719108142,2.8727521719108142,2.8727521719108142,2.9037567261323423,2.9461018533411125,2.996978214369853,3.09308704134941,3.170710635096832,3.2479855082886973,3.2479855082886973,3.314602804266955,3.3427195394063327,3.3612893483310637,3.379706435999805,3.4250139067378456,3.4864604763707283,3.495032883941466,3.5120153388753685,3.5120153388753685,3.5120153388753685,3.5120153388753685,3.5120153388753685,3.5453121074693916,3.5696821339791414,3.621433179108121,3.6756630328264013,3.7850937623830774,3.9269908169872414,3.997297281105866,4.0530789120518325,4.092139494401868,4.150765480712192,4.182992655662828,4.182992655662828,4.190954540612946,4.190954540612946,4.190954540612946,4.190954540612946,4.190954540612946,4.190954540612946,4.190954540612946,4.190954540612946,4.190954540612946,4.190954540612946,4.190954540612946,4.190954540612946,4.190954540612946,4.190954540612946,4.211568420420207,4.244539715437012,4.359398592557779,4.525135060651207,4.864271437764641,5.031136540805334,5.118487038702305,5.151749867669281,5.151749867669281,5.151749867669281,5.151749867669281,5.151749867669281,5.151749867669281,5.151749867669281,5.151749867669281,5.151749867669281,5.151749867669281,5.151749867669281,5.151749867669281,5.151749867669281,5.151749867669281,5.151749867669281,5.151749867669281,5.151749867669281,5.151749867669281,5.151749867669281,5.234792412101218,5.2954655154038335,5.523422552303815,5.587290962133748,5.670250215308968,5.670250215308968,5.670250215308968,5.670250215308968,5.670250215308968,5.670250215308968,5.670250215308968,5.670250215308968,5.670250215308968,5.670250215308968,5.670250215308968,5.670250215308968,5.670250215308968,5.670250215308968,5.760534534384748,5.806986056109213,5.936899799720209,6.103331807387108,0.019605330857204617,0.21564170991446985,0.3045108832021124,0.3131547775706913,0.3131547775706913,0.3131547775706913,0.3131547775706913,0.3131547775706913,0.3131547775706913,0.3131547775706913,0.3131547775706913,0.3131547775706913,0.3131547775706913,0.3131547775706913,0.3131547775706913,0.3131547775706913,0.3131547775706913,0.3131547775706913,0.3131547775706913,0.3131547775706913,0.3131547775706913,0.3131547775706913,0.3131547775706913,0.3131547775706913,0.3131547775706913,0.3472407828961108,0.36397895650964407,0.4208721609905137,0.4973427163468225,0.6060593315986424,0.7069080607601163,0.8283824232652194,0.9436384878483273,1.0543924360220542,1.1999050379822342,1.3536850120599913,1.5215404248105728,1.660830040001088,1.660830040001088,1.8173749885564294,1.97568811307998,2.1001387373481673,2.174545660192333,2.1962813670341257,2.1962813670341257,2.1962813670341257,2.2041512223289366,2.2108844795566425,2.2318394956455836,2.0943951023931953]],"response_history":["No"],"rt":49208,"trial_type":"polygon-arrow-question","trial_index":0,"trial_index_global":62,"time_elapsed":1063322,"internal_chunk_id":"0-0.12-0"},{"nsides":9,"question":"Is 5 a generator under <img src=./images/nonagon_symbol.png style=width:14px;height:14px>? Please explain in words how you got your answer.","response_type":"multi","response_choices":["Yes","No"],"correct_response":"Yes","response":"Yes","explain":true,"explanation":"Starting at 5 and performing (9)5 o