[{"nsides":6,"instructions":"Let's define a new operation <img src=./images/hexagon_symbol.png style=width:14px;height:14px>. This operation will give us a way of combining two of the numbers 0, 1, 2, 3, 4, 5 to get another one of them back. To perform <img src=./images/hexagon_symbol.png style=width:14px;height:14px>, you can either use a method based on the hexagon at right, or a method based on arithmetic.<br /><b>Hexagon method:</b> you can use the interactive diagram on the right, or perform the operation in your mind. Point the arrow at the first number on the hexagon by clicking, then click (or click and drag) to move the arrow the second number of points clockwise around the hexagon. The number the arrow arrives at is your result. (The operation is called <img src=./images/hexagon_symbol.png style=width:14px;height:14px> because it uses the hexagon, which has 6 sides.) <br ><b>Arithmetic method:</b> you start with the first number, and then add  the sec ond one to it. If the sum is smaller than 6, that's your result. If the sum is 6 or bigger, you subtract 6 to get your result. <br /><br />For example, 3 <img src=./images/hexagon_symbol.png style=width:14px;height:14px> 5 = 2, because 5 steps clockwise from 3 on the hexagon brings us to 2. Equivalently, 3 + 5 = 8, and 8 is bigger than 6, so we subtract 6, and 8 - 6 = 2. So 3 <img src=./images/hexagon_symbol.png style=width:14px;height:14px> 5 = 2.<br /><br />Similarly, 1 <img src=./images/hexagon_symbol.png style=width:14px;height:14px> 4 = 5, because 1 + 4 = 5, and 5 is less than 6 so we leave it alone. Equivalently, 4 steps clockwise from 1 on the hexagon brings us to 5. <br /><br />Click Continue when you're ready to move on.","orientation_history":[0,[5.241270531137815,5.241270531137815,5.241270531137815,5.241270531137815,5.241270531137815,5.241270531137815,5.241270531137815,5.241270531137815,5.241270531137815,5.235987755982988],[5.241270531137815,5.235987755982988],[3.223760175951493,3.223760175951493,3.141592653589793],[3.223760175951493,3.223760175951493,3.223760175951493,3.223760175951493,3.223760175951493,3.223760175951493,3.141592653589793],[3.223760175951493,3.223760175951493,3.141592653589793],[4.243690909274811,4.1887902047863905],[2.0576955586061656,2.0943951023931953],[3.21645250130056,3.21645250130056,3.141592653589793],[5.267567556505294,5.267567556505294,5.235987755982988]],"rt":51292,"trial_type":"polygon-arrow-instructions","trial_index":0,"trial_index_global":1,"time_elapsed":56597,"internal_chunk_id":"0-0"},{"nsides":6,"instructions":"Do you see how the different ways of performing <img src=./images/hexagon_symbol.png style=width:14px;height:14px> give the same result? By labeling the points of the hexagon with the numbers from 0 to 5, we ensure that when we combine two numbers using the hexagon, we only produce numbers between 0 and 5. When we use the arithmetic strategy, adding the second num ber to t he first mimics counting around the hexagon, and subtracting 6 each time we get above 5 makes sure the results correspond to the numbers on the points of the hexagon. <br /><br />Click Continue when you're ready to move on.","orientation_history":[0],"rt":12935,"trial_type":"polygon-arrow-instructions","trial_index":0,"trial_index_global":2,"time_elapsed":69535,"internal_chunk_id":"0-0"},{"nsides":6,"question":"Now try one on your own! What is 4 <img src=./images/hexagon_symbol.png style=width:14px;height:14px> 5? <br /><br /> (Remember, to perform <img src=./images/hexagon_symbol.png style=width:14px;height:14px>, you can either use a method based on the hexagon at right, or a method based on arithmetic.<br /><br /><b>Hexagon method:</b> you can use the interactive diagram on the right, or perform the operation in your mind. Point the arrow at the first number, then move the arrow the second number of points clockwise around the hexagon. The number the a rrow arr ives at is your result. <br /><br /><b>Arithmetic method:</b> you start with the first number, and then add the second one to it. If the sum is smaller than 6, that's your result. If the sum is 6 or bigger, you subtract 6 to get your result.)","response_type":"free","response_choices":[],"correct_response":"3","response":"3","explain":false,"explanation":"","explanation_history":[],"orientation_history":[[0],[4.243690909274811,4.1887902047863905],[5.20305703857276,5.235987755982988],[6.270199024259414,6.270199024259414,6.283185307179586],[1.0500679353878257,1.0471975511965976],[2.113375650920887,2.0943951023931953],[3.3015057767480123,3.3015057767480123,3.141592653589793]],"response_history":["3"],"rt":39549,"trial_type":"polygon-arrow-question","trial_index":0,"trial_index_global":3,"time_elapsed":109087,"internal_chunk_id":"0-0.3-0"},{"nsides":6,"feedback":"Correct! 4 <img src=./images/hexagon_symbol.png style=width:14px;height:14px> 5 = 3 because 5 steps clockwise  on the  hexagon from 4 brings us to 3. Equivalently, 4 + 5 = 9 and 9 - 6 = 3.","orientation_history":[0],"rt":6406,"trial_type":"polygon-arrow-feedback","trial_index":0,"trial_index_global":4,"time_elapsed":115495,"internal_chunk_id":"0-0.3-0"},{"nsides":6,"question":"What is 3 <img src=./images/hexagon_symbol.png style=width:14px;height:14px> 2? Try to solve this problem using the hexagon. <br /><br /> (Remember, to perform <img src=./images/hexagon_symbol.png style=width:14px;height:14px> on the hexagon, you can use the interactive diagram on the right, or perform the operation in your mind. Point the arrow at the first number on the hexagon, and then move the arrow the second number of points clockwise around the hexagon.)","response_type":"free","response_choices":[],"correct_response":"5","response":"5","explain":false,"explanation":"","explanation_history":[],"orientation_history":[[0],[3.141592653589793,3.141592653589793],[4.183507429631565,4.1887902047863905],[5.208811733789572,5.235987755982988]],"response_history":["5"],"rt":10498,"trial_type":"polygon-arrow-question","trial_index":0,"trial_index_global":5,"time_elapsed":125994,"internal_chunk_id":"0-0.3-0"},{"nsides":6,"feedback":"Correct! 3 <img src=./images/hexagon_symbol.png style=width:14px;height:14px> 2 = 5 because 2 steps clockwise on the hexagon from 3 brings us to 5. Equivalently, 3 + 2 = 5 and 5 is less than 6.","orientation_history":[0],"rt":1938,"trial_type":"polygon-arrow-feedback","trial_index":0,"trial_index_global":6,"time_elapsed":127933,"internal_chunk_id":"0-0.3-0"},{"nsides":6,"question":"What is 1 <img src=./images/hexagon_symbol.png style=width:14px;height:14px> 5? Try to solve this probem using the arithmetic technique. <br /><br /> (Remember, to perform <img src=./images/hexagon_symbol.png style=width:14px;height:14px> by arithmetic, you start with the first number, and then add the second one to it. If the sum is smaller than 6, that's  your re sult. If the sum is 6 or bigger, you subtract 6 to get your result.)","response_type":"free","response_choices":[],"correct_response":"0","response":"0","explain":false,"explanation":"","explanation_history":[],"orientation_history":[[0],[1.0096329145065444,1.0471975511965976],[2.0344439357957027,2.0943951023931953],[3.154412464062694,3.154412464062694,3.141592653589793],[4.206438581113614,4.206438581113614,4.1887902047863905],[5.228619650996437,5.235987755982988],[0.05488986259415385,0]],"response_history":["0"],"rt":10682,"trial_type":"polygon-arrow-question","trial_index":0,"trial_index_global":7,"time_elapsed":138617,"internal_chunk_id":"0-0.3-0"},{"nsides":6,"feedback":"Correct! 1 <img src=./images/hexagon_symbol.png style=width:14px;height:14px> 5 = 0 because 1 + 5 = 6 and 6 - 6 = 0.  Equivalently, 5 steps clockwise on the hexagon from 1 brings us to 0.","orientation_history":[0],"rt":1346,"trial_type":"polygon-arrow-feedback","trial_index":0,"trial_index_global":8,"time_elapsed":139964,"internal_chunk_id":"0-0.3-0"},{"nsides":6,"question":"What is 1 <img src=./images/hexagon_symbol.png style=width:14px;height:14px> 1? Try to solve this problem using the hexagon. <br /><br /> (Remember, to perform <img src=./images/hexagon_symbol.png style=width:14px;height:14px> on the hexagon, you can use the interactive diagram on the right, or perform the operation in your mind. Point the arrow at the first number on the hexagon, and then move the arrow the second number of points clockwise around the hexagon.)","response_type":"free","response_choices":[],"correct_response":"2","response":"2","explain":false,"explanation":"","explanation_history":[],"orientation_history":[[0],[0.9924708405144798,1.0471975511965976],[2.179485634122308,2.179485634122308,2.0943951023931953]],"response_history":["2"],"rt":6746,"trial_type":"polygon-arrow-question","trial_index":0,"trial_index_global":9,"time_elapsed":146711,"internal_chunk_id":"0-0.3-0"},{"nsides":6,"feedback":"Correct! 1 <img src=./images/hexagon_symbol.png style=width:14px;height:14px> 1 = 2 because 1 step clockwise on the hexagon from 1 brings us to 2. Equivalently, 1 + 1 = 2 and 2 is less than 6.","orientation_history":[0],"rt":1379,"trial_type":"polygon-arrow-feedback","trial_index":0,"trial_index_global":10,"time_elapsed":148092,"internal_chunk_id":"0-0.3-0"},{"nsides":6,"question":"What is 3 <img src=./images/hexagon_symbol.png style=width:14px;height:14px> 0? Try to solve this problem using the arithmetic technique. <br /><br /> (Remember, to perform <img src=./images/hexagon_symbol.png style=width:14px;height:14px> using arithmetic, you start with the first number, and then add the second one to it. If the sum is smaller than 6, that's your result. If the sum is 6 or bigger, you subtract 6 to get your result.)","response_type":"free","response_choices":[],"correct_response":"3","response":"3","explain":false,"explanation":"","explanation_history":[],"orientation_history":[[0],[3.1010743011114466,3.141592653589793]],"response_history":["3"],"rt":6349,"trial_type":"polygon-arrow-question","trial_index":0,"trial_index_global":11,"time_elapsed":154442,"internal_chunk_id":"0-0.3-0"},{"nsides":6,"feedback":"Correct! 3 <img src=./images/hexagon_symbol.png style=width:14px;height:14px> 0 = 3 because 3 + 0 = 3 and 3 - 6 = 3.  Equivalently, 0 steps clockwise on the hexagon from 3 brings us to 3.","orientation_history":[0],"rt":1279,"trial_type":"polygon-arrow-feedback","trial_index":0,"trial_index_global":12,"time_elapsed":155722,"internal_chunk_id":"0-0.3-0"},{"nsides":6,"question":"What is 4 <img src=./images/hexagon_symbol.png style=width:14px;height:14px> 4? Try to solve this problem using the hexagon. <br /><br /> (Remember, to perform <img src=./images/hexagon_symbol.png style=width:14px;height:14px> on the hexagon, you can use the interactive diagram on the right, or perform the operation i n your m ind. Point the arrow at the first number on the hexagon, and then move the arrow the second number of points clockwise around the hexagon.)","response_type":"free","response_choices":[],"correct_response":"2","response":"2","explain":false,"explanation":"","explanation_history":[],"orientation_history":[[0],[4.254391028787468,4.1887902047863905],[5.275126203145772,5.235987755982988],[0.037956445188314314,0.037956445188314314,0],[0.982793723247329,1.0471975511965976],[2.2194387784614404,2.0943951023931953]],"response_history":["2"],"rt":8097,"trial_type":"polygon-arrow-question","trial_index":0,"trial_index_global":13,"time_elapsed":163821,"internal_chunk_id":"0-0.3-0"},{"nsides":6,"feedback":"Correct! 4 <img src=./images/hexagon_symbol.png style=width:14px;height:14px> 4 = 2 because 4 steps clockwise on the hexagon from 4 brings us to 2. Equivalently, 4 + 4 = 8 and 8 - 6 = 2.","orientation_history":[0],"rt":1130,"trial_type":"polygon-arrow-feedback","trial_index":0,"trial_index_global":14,"time_elapsed":164953,"internal_chunk_id":"0-0.3-0"},{"nsides":6,"question":"What is 1 <img src=./images/hexagon_symbol.png style=width:14px;height:14px> 3? Try to solve this problem using the arithmetic technique. <br /><br /> (Remember, to perform <img src=./images/hexagon_symbol.png style=width:14px;height:14px> by arithmetic, you start with the first number, and then add the second one to it. If the sum is smaller than 6, that's your result. If the sum is 6 or bigger, you subtract 6 to get your result.)","response_type":"free","response_choices":[],"correct_response":"4","response":"4","explain":false,"explanation":"","explanation_history":[],"orientation_history":[[0],[0.9489720389643067,1.0471975511965976],[2.072060591666479,2.0943951023931953],[3.241261306080955,3.141592653589793],[4.1068443167797195,4.1887902047863905]],"response_history":["4"],"rt":8722,"trial_type":"polygon-arrow-question","trial_index":0,"trial_index_global":15,"time_elapsed":173676,"internal_chunk_id":"0-0.3-0"},{"nsides":6,"feedback":"Correct! 1 <img src=./images/hexagon_symbol.png style=width:14px;height:14px> 3 = 4 because 1 + 3 = 4 and 4 - 6 = 4.  Equivalently, 3 steps clockwise on the hexagon from 1 brings us to 4.","orientation_history":[0],"rt":1374,"trial_type":"polygon-arrow-feedback","trial_index":0,"trial_index_global":16,"time_elapsed":175051,"internal_chunk_id":"0-0.3-0"},{"nsides":6,"question":"What is 4 <img src=./images/hexagon_symbol.png style=width:14px;height:14px> 3? <br /><br /> (Remember, to perform <img src=./images/hexagon_symbol.png style=width:14px;height:14px>, you can either use a method based on the hexagon at right, or a method based on arithmetic.<br /><br /><b>Hexagon method:</b> you can use the interactive diagram on the right, or perform the operation in your mind. Point the arrow at the first number, then move the arrow the second number of points clockwise around the hexagon. The numb er the a rrow arrives at is your result. <br /><br /><b>Arithmetic method:</b> you start with the first number, and then add the second one to it. If the sum is smaller than 6, that's your result. If the sum is 6 or bigger, you subtract 6 to get your result.)","response_type":"free","response_choices":[],"correct_response":"1","response":"1","explain":false,"explanation":"","explanation_history":[],"orientation_history":[[0],[4.275761820571148,4.1887902047863905],[5.20305703857276,5.20305703857276,5.235987755982988],[6.194808521034737,6.194808521034737,6.283185307179586],[0.9143089350814397,1.0471975511965976]],"response_history":["1"],"rt":8289,"trial_type":"polygon-arrow-question","trial_index":0,"trial_index_global":17,"time_elapsed":183342,"internal_chunk_id":"0-0.3-0"},{"nsides":6,"feedback":"Correct! 4 <img src=./images/hexagon_symbol.png style=width:14px;height:14px> 3 = 1 because 3 steps clockwise on the hexagon from 4 brings us to 1. Equivalently, 4 + 3 = 7 and 7 - 6  = 1.","orientation_history":[0],"rt":1843,"trial_type":"polygon-arrow-feedback","trial_index":0,"trial_index_global":18,"time_elapsed":185186,"internal_chunk_id":"0-0.3-0"},{"nsides":6,"question":"What is 0 <img src=./images/hexagon_symbol.png style=width:14px;height:14px> 5? <br /><br /> (Remember, to perform <img src=./images/hexagon_symbol.png style=width:14px;height:14px>, you can either use a method based on the hexagon at right, or a method based on arithmetic.<br /><br /><b>Hexagon method:</b> you can use the interactive diagram on the right, or perform the operation in your mind. Point the arrow at the first number, then move the arrow the second number of points clockwise around the hexagon. The number the arrow arrives at is your result. <br /><br /><b>Arithmetic method:</b> you start with the first number, and then add the second one to it. If the sum is smaller than 6, that's your result. If the sum is 6 or bigger, you subtract 6 to get your result.)","response_type":"free","response_choices":[],"correct_response":"5","response":"5","explain":false,"explanation":"","explanation_history":[],"orientation_history":[[0],[0.9903981394010224,1.0471975511965976],[1.9437840485949576,2.0943951023931953],[3.024483909022929,3.024483909022929,3.141592653589793],[4.232438468065221,4.232438468065221,4.1887902047863905],[5.112170078627486,5.235987755982988]],"response_history":["5"],"rt":8453,"trial_type":"polygon-arrow-question","trial_index":0,"trial_index_global":19,"time_elapsed":193640,"internal_chunk_id":"0-0.3-0"},{"nsides":6,"feedback":"Correct! 0 <img src=./images/hexagon_symbol.png style=width:14px;height:14px> 5 = 5 because 5 steps clockwise on the hexagon from 0 brings us to 5. Equivalently, 0 + 5 = 5 and 5 is less than 6.","orientation_history":[0],"rt":1417,"trial_type":"polygon-arrow-feedback","trial_index":0,"trial_index_global":20,"time_elapsed":195058,"internal_chunk_id":"0-0.3-0"},{"nsides":6,"question":"What is 2 <img  src=./ images/hexagon_symbol.png style=width:14px;height:14px> 5? <br /><br /> (Remember, to perform <img src=./images/hexagon_symbol.png style=width:14px;height:14px>, you can either use a method based on the hexagon at right, or a method based on arithmetic.<br /><br /><b>Hexagon method:</b> you can use the interactive diagram on the right, or perform the operation in your mind. Point the arrow at the first number, then move the arrow the second number of points clockwise around the hexagon. The number the arrow arrives at is your result. <br /><br /><b>Arithmetic method:</b> you start with the first number, and then add the second one to it. If the sum is smaller than 6, that's your result. If the sum is 6 or bigger, you subtract 6 to get your result.)","response_type":"free","response_choices":[],"correct_response":"1","response":"1","explain":false,"explanation":"","explanation_history":[],"orientation_history":[[0],[2.0226101686925517,2.0943951023931953],[3.242514438257087,3.242514438257087,3.141592653589793],[4.171969480114106,4.1887902047863905],[5.164863869946757,5.235987755982988],[0.13335025417155233,0.13335025417155233,0],[1.1577966100742025,1.0471975511965976]],"response_history":["1"],"rt":13837,"trial_type":"polygon-arrow-question","trial_index":0,"trial_index_global":21,"time_elapsed":208896,"internal_chunk_id":"0-0.3-0"},{"nsides":6,"feedback":"Correct! 2 <img src=./images/hexagon_symbol.png style=width:14px;height:14px> 5 = 1 because 5 steps clockwise on the hexagon from 2 brings us to 1. Equivalently, 2 + 5 = 7 and 7 - 6 = 1.","orientation_history":[0],"rt":1212,"trial_type":"polygon-arrow-feedback","trial_index":0,"trial_index_global":22,"time_elapsed":210109,"internal_chunk_id":"0-0.3-0"},{"nsides":6,"instructions":"Now we're going to discuss a couple special properties of this new operation, <img src=./images/hexagon_symbol.png style=width:14px;height:14px> that we've learned. First, notice that the number 0  behaves  in a special way under <img src=./images/hexagon_symbol.png style=width:14px;height:14px>. Whenever we combine 0 with anything else, we get that same thing back. We'll say that 0 is the <i>identity</i> under <img src=./images/hexagon_symbol.png style=width:14px;height:14px>, because when you combine it with something it gives you that identical thing back.","orientation_history":[0],"rt":12623,"trial_type":"polygon-arrow-instructions","trial_index":0,"trial_index_global":23,"time_elapsed":222736,"internal_chunk_id":"0-0"},{"nsides":6,"instructions":"Now that we know 0 is the identity under <img src=./images/hexagon_symbol.png style=width:14px;height:14px>, we're going to make a new definition. We'll say that the <i>inverse</i> of a number is the element that you combine with it to produce the identity. For example, 5 <img src=./images/hexagon_symbol.png style=width:14px;height:14px> 1 = 0, so we say 1 is the inverse of 5 under <img src=./im ages/hex agon_symbol.png style=width:14px;height:14px>, (remember 0 is the identity under <img src=./images/hexagon_symbol.png style=width:14px;height:14px>). Similarly, 3 is its own inverse under <img src=./images/hexagon_symbol.png style=width:14px;height:14px>, because 3 <img src=./images/hexagon_symbol.png style=width:14px;height:14px> 3 = 0.","orientation_history":[0,[5.163458636373213,5.235987755982988]],"rt":47755,"trial_type":"polygon-arrow-instructions","trial_index":0,"trial_index_global":24,"time_elapsed":270491,"internal_chunk_id":"0-0"},{"nsides":6,"question":"Now you try! What is the inverse of 4 under <img src=./images/hexagon_symbol.png style=width:14px;height:14px>? <br /><br /> (Remember, the inverse of an element is the thing which you combine with it to produce the identity.)","response_type":"free","response_choices":[],"correct_response":"2","response":"2","explain":false,"explanation":"","explanation_history":[],"orientation_history":[[0],[4.180066469151844,4.1887902047863905]],"response_history":["2"],"rt":26331,"trial_type":"polygon-arrow-question","trial_index":0,"trial_index_global":25,"time_elapsed":296823,"internal_chunk_id":"0-0.7-0"},{"nsides":6,"feedback":"Correct! The inverse of 4 under <img src=./images/hexagon_symbol.png style=width:14px;height:14px> is 2 because 4 <img src=./images/hexagon_symbol.png style=width:14px;height:14px> 2 = 0, and 0 is the identity under <img src=./images/hexagon_symbol.png style=width:14px;height:14px>.","orientation_history":[0],"rt":18714,"trial_type":"polygon-arrow-feedback","trial_index":0,"trial_index_global":26,"time_elapsed":315539,"internal_chunk_id":"0-0.7-0"},{"nsides":6,"question":"What is the inverse of 1 under <img src=./images/hexagon_symbol.png style=width:14px;height:14px>? <br /><br /> (Remember, the inverse of an element is the thing which you combine with it to produce the identity.)","response_type":"free","response_choices":[],"correct_response":"5","response":"5","explain":false,"explanation":"","explanation_history":[],"orientation_history":[[0],[0.9978301839061904,1.0471975511965976]],"response_history":["5"],"rt":8007,"trial_type":"polygon-arrow-question","trial_index":0,"trial_index_global":27,"time_elapsed":323548,"internal_chunk_id":"0-0.7-0"},{"nsides":6,"feedback":"Correct! The inverse of 1 under <img src=./images/hexagon_symbol.png style=width:14px;height:14px> is 5 because 1 <img src=./images/hexagon_symbol.png style=width:14px;height:14px> 5 = 0, and 0 is the identity under <img src=./images/hexagon_symbol.png style=width:14px;height:14px>.","orientation_history":[0],"rt":1166,"trial_type":"polygon-arrow-feedback","trial_index":0,"trial_index_global":28,"time_elapsed":324715,"internal_chunk_id":"0-0.7-0"},{"nsides":6,"question":"What is the inverse of 3 under <img src=./images/hexagon_symbol.png style=width:14px;height:14px>? <br /><br /> (Rem ember, t he inverse of an element is the thing which you combine with it to produce the identity.)","response_type":"free","response_choices":[],"correct_response":"3","response":"3","explain":false,"explanation":"","explanation_history":[],"orientation_history":[[0],[2.9415996969836122,2.9415996969836122,3.141592653589793]],"response_history":["3"],"rt":6076,"trial_type":"polygon-arrow-question","trial_index":0,"trial_index_global":29,"time_elapsed":330792,"internal_chunk_id":"0-0.7-0"},{"nsides":6,"feedback":"Correct! The inverse of 3 under <img src=./images/hexagon_symbol.png style=width:14px;height:14px> is 3 because 3 <img src=./images/hexagon_symbol.png style=width:14px;height:14px> 3 = 0, and 0 is the identity under <img src=./images/hexagon_symbol.png style=width:14px;height:14px>.","orientation_history":[0],"rt":1086,"trial_type":"polygon-arrow-feedback","trial_index":0,"trial_index_global":30,"time_elapsed":331879,"internal_chunk_id":"0-0.7-0"},{"nsides":6,"question":"What is the inverse of 2 under <img src=./images/hexagon_symbol.png style=width:14px;height:14px>? <br /><br /> (Remember, the inverse of an element is the thing which you combine with it to produce the identity.)","response_type":"free","response_choices":[],"correct_response":"4","response":"4","explain":false,"explanation":"","explanation_history":[],"orientation_history":[[0],[2.1069423488071313,2.0943951023931953]],"response_history":["4"],"rt":7563,"trial_type":"polygon-arrow-question","trial_index":0,"trial_index_global":31,"time_elapsed":339442,"internal_chunk_id":"0-0.7-0"},{"nsides":6,"feedback":"Correct! The inverse of 2 under <img src=./images/hexagon_symbol.png style=width:14px;height:14px> is 4 because 2 <img src=./images/hexagon_symbol.png style=width:14px;height:14px> 4 = 0, and 0 is the identity under <img src=./images/hexagon_symbol.png style=width:14px;height:14px>.","orientation_history":[0],"rt":1177,"trial_type":"polyg on-arrow-feedback","trial_index":0,"trial_index_global":32,"time_elapsed":340621,"internal_chunk_id":"0-0.7-0"},{"nsides":6,"question":"What is the inverse of 0 under <img src=./images/hexagon_symbol.png style=width:14px;height:14px>? <br /><br /> (Remember, the inverse of an element is the thing which you combine with it to produce the identity.)","response_type":"free","response_choices":[],"correct_response":"0","response":"6","explain":false,"explanation":"","explanation_history":[],"orientation_history":[[0]],"response_history":["6"],"rt":7136,"trial_type":"polygon-arrow-question","trial_index":0,"trial_index_global":33,"time_elapsed":347757,"internal_chunk_id":"0-0.7-0"},{"nsides":6,"feedback":"Sorry, that was incorrect. The inverse of 0 under <img src=./images/hexagon_symbol.png style=width:14px;height:14px> is 0 because 0 <img src=./images/hexagon_symbol.png style=width:14px;height:14px> 0 = 0, and 0 is the identity under <img src=./images/h exagon_s ymbol.png style=width:14px;height:14px>.","orientation_history":[0],"rt":4102,"trial_type":"polygon-arrow-feedback","trial_index":0,"trial_index_global":34,"time_elapsed":351862,"internal_chunk_id":"0-0.7-0"},{"nsides":6,"instructions":"It is also possible to successively apply <img src=./images/hexagon_symbol.png style=width:14px;height:14px>, and the operation can simply be performed starting with the left-most pair. For example, 2 <img src=./images/hexagon_symbol.png style=width:14px;height:14px> 3 <img src=./images/hexagon_symbol.png style=width:14px;height:14px> 4 = 5 <img src=./images/hexagon_symbol.png style=width:14px;height:14px> 4 = 3.","orientation_history":[0],"rt":7837,"trial_type":"polygon-arrow-instructions","trial_index":0,"trial_index_global":35,"time_elapsed":359701,"internal_chunk_id":"0-0"},{"nsides":6,"instructions":"We have one last definition to learn today, using the successive operations we just learned. Let's st art with  an example. Under our operation <img src=./images/hexagon_symbol.png style=width:14px;height:14px> we can make every other number using just 1: 2 = 1 <img src=./images/hexagon_symbol.png style=width:14px;height:14px> 1, 3 = 1 <img src=./images/hexagon_symbol.png style=width:14px;height:14px> 1 <img src=./images/hexagon_symbol.png style=width:14px;height:14px> 1, 4 = 1 <img src=./images/hexagon_symbol.png style=width:14px;height:14px> 1 <img src=./images/hexagon_symbol.png style=width:14px;height:14px> 1 <img src=./images/hexagon_symbol.png style=width:14px;height:14px> 1, 5 = 1 <img src=./images/hexagon_symbol.png style=width:14px;height:14px> 1 <img src=./images/hexagon_symbol.png style=width:14px;height:14px> 1 <img src=./images/hexagon_symbol.png style=width:14px;height:14px> 1 <img src=./images/hexagon_symbol.png style=width:14px;height:14px> 1, and 0 = 1 <img src=./images/hexagon_ symbol.p ng style=width:14px;height:14px> 1 <img src=./images/hexagon_symbol.png style=width:14px;height:14px> 1 <img src=./images/hexagon_symbol.png style=width:14px;height:14px> 1 <img src=./images/hexagon_symbol.png style=width:14px;height:14px> 1 <img src=./images/hexagon_symbol.png style=width:14px;height:14px> 1. Because 1 can make every other element under <img src=./images/hexagon_symbol.png style=width:14px;height:14px>, we say that 1 is a <i>generator</i> under <img src=./images/hexagon_symbol.png style=width:14px;height:14px>. <br /><br /> However, 2 is not a generator under <img src=./images/hexagon_symbol.png style=width:14px;height:14px>, because 4 = 2 <img src=./images/hexagon_symbol.png style=width:14px;height:14px> 2, and 0 = 2 <img src=./images/hexagon_symbol.png style=width:14px;height:14px> 2 <img src=./images/hexagon_symbol.png style=width:14px;height:14px> 2, but there is no wa y to mak e 1, 3, or 5 using just 2.","orientation_history":[0],"rt":13474,"trial_type":"polygon-arrow-instructions","trial_index":0,"trial_index_global":36,"time_elapsed":373177,"internal_chunk_id":"0-0"},{"nsides":6,"question":"Now you try! Is 3 a generator under <img src=./images/hexagon_symbol.png style=width:14px;height:14px>? <br /><br /> (Remember, a generator is an element which can make every other element.)","response_type":"multi","response_choices":["Yes","No"],"correct_response":"No","response":"Yes","explain":false,"explanation":"","explanation_history":[],"orientation_history":[[0]],"response_history":["Yes"],"rt":8143,"trial_type":"polygon-arrow-question","trial_index":0,"trial_index_global":37,"time_elapsed":381321,"internal_chunk_id":"0-0.10-0"},{"nsides":6,"feedback":"Sorry, that's incorrect. 3 is not a generator under <img src=./images/hexagon_symbol.png style=width:14px;height:14px>, because 3 = 3, 0 = 3 <img src=./images/hexagon_symbol.png sty le=wid th:14px;height:14px> 3, but there is no way to make 1, 2, 4, or 5 using just 3.","orientation_history":[0],"rt":1273,"trial_type":"polygon-arrow-feedback","trial_index":0,"trial_index_global":38,"time_elapsed":382595,"internal_chunk_id":"0-0.10-0"},{"nsides":6,"question":"Is 5 a generator under <img src=./images/hexagon_symbol.png style=width:14px;height:14px>? <br /><br /> (Remember, a generator is an element which can make every other element.)","response_type":"multi","response_choices":["Yes","No"],"correct_response":"Yes","response":"No","explain":false,"explanation":"","explanation_history":[],"orientation_history":[[0]],"response_history":["No"],"rt":3173,"trial_type":"polygon-arrow-question","trial_index":0,"trial_index_global":39,"time_elapsed":385769,"internal_chunk_id":"0-0.10-0"},{"nsides":6,"feedback":"Sorry, that's incorrect. 5 is a generator under <img src=./images/hexagon_symbol.png style=width:14px;height:14px>, because 5 = 5, 4 = 5 <img sr c=./im ages/hexagon_symbol.png style=width:14px;height:14px> 5, 3 = 5 <img src=./images/hexagon_symbol.png style=width:14px;height:14px> 5 <img src=./images/hexagon_symbol.png style=width:14px;height:14px> 5, 2 = 5 <img src=./images/hexagon_symbol.png style=width:14px;height:14px> 5 <img src=./images/hexagon_symbol.png style=width:14px;height:14px> 5 <img src=./images/hexagon_symbol.png style=width:14px;height:14px> 5, 1 = 5 <img src=./images/hexagon_symbol.png style=width:14px;height:14px> 5 <img src=./images/hexagon_symbol.png style=width:14px;height:14px> 5 <img src=./images/hexagon_symbol.png style=width:14px;height:14px> 5 <img src=./images/hexagon_symbol.png style=width:14px;height:14px> 5, and 0 = 5 <img src=./images/hexagon_symbol.png style=width:14px;height:14px> 5 <img src=./images/hexagon_symbol.png style=width:14px;height:14px> 5 <img src=./images/hexagon_symbol.png style=width:1 4px;height:14px> 5 <img src=./images/hexagon_symbol.png style=width:14px;height:14px> 5 <img src=./images/hexagon_symbol.png style=width:14px;height:14px> 5, so you can make all of the numbers under <img src=./images/hexagon_symbol.png style=width:14px;height:14px> using 5","orientation_history":[0],"rt":1151,"trial_type":"polygon-arrow-feedback","trial_index":0,"trial_index_global":40,"time_elapsed":386921,"internal_chunk_id":"0-0.10-0"},{"nsides":6,"question":"Is 4 a generator under <img src=./images/hexagon_symbol.png style=width:14px;height:14px>? <br /><br /> (Remember, a generator is an element which can make every other element.)","response_type":"multi","response_choices":["Yes","No"],"correct_response":"No","response":"Yes","explain":false,"explanation":"","explanation_history":[],"orientation_history":[[0]],"response_history":["Yes"],"rt":2165,"trial_type":"polygon-arrow-question","trial_index":0,"trial_index_global":41,"time_elapsed":389089,"internal_chunk_id":"0-0.10-0"},{"nsides":6,"feedback":"Sorry, that's incorrect. 4 is not a generator under <img src=./images/hexagon_symbol.png style=width:14px;height:14px>, because 4 = 4, 2 = 4 <img src=./images/hexagon_symbol.png style=width:14px;height:14px> 4, and 0 = 4 <img src=./images/hexagon_symbol.png style=width:14px;height:14px> 4 <img src=./images/hexagon_symbol.png style=width:14px;height:14px> 4, but there is no way to make 1, 3, or 5 using just 4.","orientation_history":[0],"rt":1210,"trial_type":"polygon-arrow-feedback","trial_index":0,"trial_index_global":42,"time_elapsed":390301,"internal_chunk_id":"0-0.10-0"},{"nsides":6,"question":"Is 0 a generator under <img src=./images/hexagon_symbol.png style=width:14px;height:14px>? <br /><br /> (Remember, a generator is an element which can make every other element.)","response_type":"multi","response_choices":["Yes","No"],"correct_response":"No","response":"Yes","explain":false,"explanation":"","explanation_history":[],"orientation_history":[[0]],"response_history":["Yes"],"rt":3335,"trial_type":"polygon-arrow-question","trial_index":0,"trial_index_global":43,"time_elapsed":393637,"internal_chunk_id":"0-0.10-0"},{"nsides":6,"feedback":"Sorry, that's incorrect. 0 is not a generator under <img src=./images/hexagon_symbol.png style=width:14px;height:14px>, because 0 = 0, but there is no way to make 1, 2, 3, 4, or 5 using just 0.","orientation_history":[0],"rt":1142,"trial_type":"polygon-arrow-feedback","trial_index":0,"trial_index_global":44,"time_elapsed":394781,"internal_chunk_id":"0-0.10-0"},{"nsides":9,"instructions":"Now we are going to ask you some questions about a new operation, <img src=./images/nonagon_symbol.png style=width:14px;height:14px>, on the numbers 0, 1, 2, 3, 4, 5, 6, 7, 8. It works exactly like <img src=./images/hexagon_symbol.png style=width:14px;height:14px>, except now you use the nonagon shown at the r ight. Eq uivalently, after adding the two numbers you subtract 9 if your result is 9 or greater.<br /><br />Do you see how the different ways of performing <img src=./images/nonagon_symbol.png style=width:14px;height:14px> give the same result, just like with <img src=./images/hexagon_symbol.png style=width:14px;height:14px>? By labeling the points of the nonagon with the numbers from 0 to 8, we ensure that when we combine two numbers under <img src=./images/nonagon_symbol.png style=width:14px;height:14px>, we only produce numbers between 0 and 8. When we use the arithmetic strategy, adding the second number to the first mimics counting around the nonagon, and subtracting 9 each time we get above 8 makes sure the results correspond to the numbers on the points of the nonagon.<br /><br />We'll give you one practice question with feedback to make sure you understand the new operation. After that, try to complete the remaining questions as accurately as possible. ","orientation_history":[0],"rt":7714,"trial_type":"polygon-arrow-instructions","trial_index":0,"trial_index_global":45,"time_elapsed":402495,"internal_chunk_id":"0-0"},{"nsides":9,"question":"Practice: What is 5 <img src=./images/nonagon_symbol.png style=width:14px;height:14px> 5?","response_type":"free","response_choices":[],"correct_response":"1","response":"1","explain":false,"explanation":"","explanation_history":[],"orientation_history":[[0],[3.4474715249946453,3.4474715249946453,3.490658503988659]],"response_history":["1"],"rt":13146,"trial_type":"polygon-arrow-question","trial_index":0,"trial_index_global":46,"time_elapsed":415642,"internal_chunk_id":"0-0.12-0"},{"nsides":9,"feedback":"Correct! 5 <img src=./images/nonagon_symbol.png style=width:14px;height:14px> 5 = 1 because 5 steps clockwise on the nonagon from 5 brings us to 1. Equivalently, 5 + 5 = 10 and 10 - 9 = 1.","orientation_history":[0],"rt":1135,"trial_type":"polygon-arrow-feedback","trial_index":0,"trial_index_global":47,"time_elapsed":416778,"internal_chunk_id":"0-0.12-0"},{"nsides":9,"question":"What is 3 <img src=./images/nonagon_symbol.png style=width:14px;height:14px> 3?","response_type":"free","response_choices":[],"correct_response":"6","response":"6","explain":false,"explanation":"","explanation_history":[],"orientation_history":[[0],[1.9942357329546159,2.0943951023931953]],"response_history":["6"],"rt":6459,"trial_type":"polygon-arrow-question","trial_index":0,"trial_index_global":48,"time_elapsed":423239,"internal_chunk_id":"0-0.12-0"},{"nsides":9,"question":"What is 7 <img src=./images/nonagon_symbol.png style=width:14px;height:14px> 4?","response_type":"free","response_choices":[],"correct_response":"2","response":"2","explain":false,"explanation":"","explanation_history":[],"orientation_history":[[0],[4.904784581900612,4.886921905584122]],"response_history":["2"],"rt":6613,"trial_type":"polygon-arrow-question","trial_index":0,"trial_index_global":49,"time_elapsed":429852,"internal_chunk_id":"0-0.12-0"},{"nsides":9,"question":"What is 1 <img src=./images/nonagon_symbol.png style=width:14px;height:14px> 8?","response_type":"free","response_choices":[],"correct_response":"0","response":"0","explain":false,"explanation":"","explanation_history":[],"orientation_history":[[0],[0.628796286415433,0.628796286415433,0.6981317007977318]],"response_history":["0"],"rt":8191,"trial_type":"polygon-arrow-question","trial_index":0,"trial_index_global":50,"time_elapsed":438045,"internal_chunk_id":"0-0.12-0"},{"nsides":9,"question":"What is 5 <img src=./images/nonagon_symbol.png style=width:14px;height:14px> 4?","response_type":"free","response_choices":[],"correct_response":"0","response":"0","explain":false,"explanation":"","explanation_history":[],"orientation_history":[[0],[3.487148234171505,3.490658503988659]],"response_history":["0"],"rt":7176,"trial_type":"polygon-arrow-question","trial_index":0,"trial_index_global":51,"time_elapsed":445222,"internal_chunk_id":"0-0.12-0"},{"nsides":9,"question":"What is 6 <img src=./images/nonagon_symbol.png style=width:14px;height:14px> 6?","response_type":"free","response_choices":[],"correct_response":"3","response":"3","explain":false,"explanation":"","explanation_history":[],"orientation_history":[[0],[4.1501041780421435,4.1501041780421435,4.1887902047863905]],"response_history":["3"],"rt":7152,"trial_type":"polygon-arrow-question","trial_index":0,"trial_index_global":52,"time_elapsed":452375,"internal_chunk_id":"0-0.12-0"},{"nsides":9,"instructions":"On the following question, and several others later in the HIT, we will ask you to explain how you got your answer. On these questions, you will be given one box for your answer to the question, and a second for your explanation. Please explain your thought process in as much detail as possible (at least one sentence, and more if you can).","orientation_history":[0],"rt":9500,"trial_type":"polygon-arrow -instruc tions","trial_index":0,"trial_index_global":53,"time_elapsed":461877,"internal_chunk_id":"0-0.12-0"},{"nsides":9,"question":"What is 4 <img src=./images/nonagon_symbol.png style=width:14px;height:14px> 1? Please explain in words how you got your answer.","response_type":"free","response_choices":[],"correct_response":"5","response":"5","explain":true,"explanation":"Using this method, 5 is 1 step clockwise from 4.","explanation_history":["Using this method, 5 is 1 step clockwise from 4."],"orientation_history":[[0],[2.7468015338900313,2.792526803190927]],"response_history":["5"],"rt":26842,"trial_type":"polygon-arrow-question","trial_index":0,"trial_index_global":54,"time_elapsed":488720,"internal_chunk_id":"0-0.12-0"},{"nsides":9,"question":"What is 8 <img src=./images/nonagon_symbol.png style=width:14px;height:14px> 4? Please explain in words how you got your answer.","response_type":"free","response_choices":[],"correct_response":"3","response":"3","explain":true,"explanation":"3 is 4 steps clockwise.","explanation_history":["3 is 4 setps clockwise.","3 is 4 steps clockwise."],"orientation_history":[[0],[5.583292437460342,5.583292437460342,5.585053606381854]],"response_history":["3"],"rt":16740,"trial_type":"polygon-arrow-question","trial_index":0,"trial_index_global":55,"time_elapsed":505462,"internal_chunk_id":"0-0.12-0"},{"nsides":9,"question":"What is the identity under <img src=./images/nonagon_symbol.png style=width:14px;height:14px>? Please explain in words how you got your answer.","response_type":"free","response_choices":[],"correct_response":"0","response":"9","explain":true,"explanation":"Using this method, 9 brings you to 0 or the identity. ","explanation_history":["9","Using this methos, ","Using this methos,","Using this methos","Using this method, 9 brings you to 0 or the identity. "],"orientation_history":[[0]],"response_history":["9"],"rt":39073,"trial_type":"polygon-arrow-question","trial_index":0,"trial_index_global":56,"time_elapsed":544536,"internal_chunk_id":"0-0.12-0"},{"nsides":9,"question":"What is the inverse of 5 under <img src=./images/nonagon_symbol.png style=width:14px;height:14px>?","response_type":"free","response_choices":[],"correct_response":"4","response":"4","explain":false,"explanation":"","explanation_history":[],"orientation_history":[[0],[3.516433368945391,3.490658503988659]],"response_history":["4"],"rt":7486,"trial_type":"polygon-arrow-question","trial_index":0,"trial_index_global":57,"time_elapsed":552025,"internal_chunk_id":"0-0.12-0"},{"nsides":9,"question":"What is the inverse of 2 under <img src=./images/nonagon_symbol.png style=width:14px;height:14px>?","response_type":"free","response_choices":[],"correct_response":"7","response":"7","explain":false,"explanation":"","explanation_history":[],"orientation_history":[[0],[1.3258176636680323,1.3962634015954636]],"response_history":["7"],"rt":7431,"trial_type":"polygon-arrow-question","trial_index":0,"trial_index_global":58,"time_elapsed":559459,"internal_chunk_id":"0-0.12-0"},{"nsides":9,"question":"What is the inverse of 0 under <img src=./images/nonagon_symbol.png style=width:14px;height:14px>?","response_type":"free","response_choices":[],"correct_response":"0","response":"0","explain":false,"explanation":"","explanation_history":[],"orientation_history":[[0]],"response_history":["0"],"rt":5012,"trial_type":"polygon-arrow-question","trial_index":0,"trial_index_global":59,"time_elapsed":564472,"internal_chunk_id":"0-0.12-0"},{"nsides":9,"question":"What is the inverse of 3 under <img src=./images/nonagon_symbol.png style=width:14px;height:14px>? Please explain in words how you got your answer.","response_type":"free","response_choices":[],"correct_response":"6","response":"6","explain":true,"explanation":"The inverse is 6 steps away from 0.","explanation_history":["The inverse is 6 eps ","The inverse is 6 eps","The inverse is 6 ep","The inverse is 6 e","The inv erse is 6 stpes","The inverse is 6 stpe","The inverse is 6 stp","The inverse is 6 steps away from 0."],"orientation_history":[[0],[2.09448098779114,2.0943951023931953]],"response_history":["6"],"rt":28153,"trial_type":"polygon-arrow-question","trial_index":0,"trial_index_global":60,"time_elapsed":592626,"internal_chunk_id":"0-0.12-0"},{"nsides":9,"question":"Is 2 a generator under <img src=./images/nonagon_symbol.png style=width:14px;height:14px>? Please explain in words how you got your answer.","response_type":"multi","response_choices":["Yes","No"],"correct_response":"Yes","response":"Yes","explain":true,"explanation":"Yes because there are multiple ways to use 2.","explanation_history":["Yes because there are multiple ways to use 2."],"orientation_history":[[0]],"response_history":["Yes"],"rt":17985,"trial_type":"polygon-arrow-question","trial_index":0,"trial_index_global":61,"time_elapsed":610613,"internal_chunk_id":"0-0.12-0"},{"nsides":9,"question":"Is 3 a gen erator u nder <img src=./images/nonagon_symbol.png style=width:14px;height:14px>? Please explain in words how you got your answer.","response_type":"multi","response_choices":["Yes","No"],"correct_response":"No","response":"Yes","explain":true,"explanation":"Yes, there are multiple uses of 3.","explanation_history":["Yes, there are multiple uses of 3."],"orientation_history":[[0]],"response_history":["Yes"],"rt":12620,"trial_type":"polygon-arrow-question","trial_index":0,"trial_index_global":62,"time_elapsed":623235,"internal_chunk_id":"0-0.12-0"},{"nsides":9,"question":"Is 5 a generator under <img src=./images/nonagon_symbol.png style=width:14px;height:14px>? Please explain in words how you got your answer.","response_type":"multi","response_choices":["Yes","No"],"correct_response":"Yes","response":"No","explain":true,"explanation":"No, 5 would not work in this case using the specified formula.","explanation_history":["No, 5 would not work in this case using the spec ified fr omula.","No, 5 would not work in this case using the specified formula."],"orientation_history":[[0]],"response_history":["No"],"rt":18845,"trial_type":"polygon-arrow-question","trial_index":0,"trial_index_global":63,"time_elapsed":642081,"internal_chunk_id":"0-0.12-0"},{"nsides":9,"question":"Is 6 a generator under <img src=./images/nonagon_symbol.png style=width:14px;height:14px>? Please explain in words how you got your answer.","response_type":"multi","response_choices":["Yes","No"],"correct_response":"No","response":"Yes","explain":true,"explanation":"yes, 6 would work in this situation.","explanation_history":["u","yes, 6 would work in this situatu","yes, 6 would work in this situation."],"orientation_history":[[0]],"response_history":["Yes"],"rt":17339,"trial_type":"polygon-arrow-question","trial_index":0,"trial_index_global":64,"time_elapsed":659422,"internal_chunk_id":"0-0.12-0"},{"nsides":"n","instructions":"Now we'd like to ask you some questions about <im g src= ./images/ngon_symbol.png style=width:14px;height:14px>, where n could be any postive counting number. For example, n could be 3, and the polygon a triangle, or n could be any other counting number you can think of, in which case the corresponding polygon would have n sides. Just as before, you can use either the polygon or arithmetic methods. If you need to write the operation, you can use (n), and your answers can include n to stand in for the arbitrary value if necessary. (You can use the polygon at the right to think, but it doesn't necessarily correspond to the real polygon, which is why we've left most of it dashed.)","orientation_history":[0],"rt":24408,"trial_type":"polygon-arrow-instructions","trial_index":0,"trial_index_global":65,"time_elapsed":683831,"internal_chunk_id":"0-0"},{"nsides":"n","question":"What is the formula for the inverse of 1 under <img src=./images/ngon_symbol.png style=width:14px;height:14px>?","response_type":"free","response_choices":[],"correct_response":"n-1","response":"0=1n","explain":false,"explanation":"","explanation_history":[],"orientation_history":[[0],[0.5914390161375551,0.5914390161375551]],"response_history":["x=","x","inverse ","inverse= ","inverse=1n","0=1n"],"rt":60930,"trial_type":"polygon-arrow-question","trial_index":0,"trial_index_global":66,"time_elapsed":744762,"internal_chunk_id":"0-0.14-0"},{"nsides":"n","question":"What is the formula for the inverse of an element x under <img src=./images/ngon_symbol.png style=width:14px;height:14px>? Please explain in words how you got your answer.","response_type":"free","response_choices":[],"correct_response":"n-x","response":"0=xn","explain":true,"explanation":"you would get the inverse by finding the steps to 0.","explanation_history":["you would get your","you would get you","you would get yo","you would get y","you would get the inverse by finding the steps to 0."],"orientation_history":[[0]],"response_history":["0=xn"],"rt":34420,"trial_type":"polygon-arrow-question","trial_index":0,"trial_index_global":67,"time_elapsed":779183,"internal_chunk_id":"0-0.14-0"},{"nsides":"n","question":"Is there a pattern to which elements are generators? How can you know if an element x is a generator under <img src=./images/ngon_symbol.png style=width:14px;height:14px> without seeing whether it can make all the elements?.","response_type":"free","response_choices":[],"correct_response":"","response":"There seems to be a pattern but I only understand the rule by finding how many elements it can make.","explain":false,"explanation":"","explanation_history":[],"orientation_history":[[0]],"response_history":["There seems to be a pattern but I f","There seems to be a pattern but I only understand the rule by finding how many elements it can make."],"rt":44091,"trial_type":"polygon-arrow-question","trial_index":0,"trial_index_global":68,"time_elapsed":823275,"internal_chunk_id":"0-0.14-0"},{"nsides":"n","question":"True  or fals e: If x is an odd number, it must be a generator under <img src=./images/ngon_symbol.png style=width:14px;height:14px>.","response_type":"multi","response_choices":["True","False"],"correct_response":"False","response":"False","explain":false,"explanation":"","explanation_history":[],"orientation_history":[[0]],"response_history":["False"],"rt":5367,"trial_type":"polygon-arrow-question","trial_index":0,"trial_index_global":69,"time_elapsed":828643,"internal_chunk_id":"0-0.14-0"},{"nsides":"n","question":"True or false: If x is an even number, it must not be a generator under <img src=./images/ngon_symbol.png style=width:14px;height:14px>.","response_type":"multi","response_choices":["True","False"],"correct_response":"False","response":"True","explain":false,"explanation":"","explanation_history":[],"orientation_history":[[0]],"response_history":["True"],"rt":2537,"trial_type":"polygon-arrow-question","trial_index":0,"trial_index_global":70,"time_elapsed":831181,"internal_chunk_id":"0-0.14-0"},{"nsides":"n","question":"True or false: If x is not a generator under <img src=./images/ngon_symbol.png style=width:14px;height:14px>, x must be a divisor of n, that is, x must divide n evenly, with no remainder.","response_type":"multi","response_choices":["True","False"],"correct_response":"False","response":"False","explain":false,"explanation":"","explanation_history":[],"orientation_history":[[0]],"response_history":["False"],"rt":3534,"trial_type":"polygon-arrow-question","trial_index":0,"trial_index_global":71,"time_elapsed":834717,"internal_chunk_id":"0-0.14-0"},{"nsides":"n","question":"True or false: If x is not a generator under <img src=./images/ngon_symbol.png style=width:14px;height:14px>, x must be a multiple of a divisor of n. Please explain in words how you got your answer.","response_type":"multi","response_choices":["True","False"],"correct_response":"True","response":"True","explain":true,"explanation":"If its  not one,  it must be the other.","explanation_history":["If it s","If it s","If it ","If its not one, it must be the other."],"orientation_history":[[0]],"response_history":["True"],"rt":22433,"trial_type":"polygon-arrow-question","trial_index":0,"trial_index_global":72,"time_elapsed":857152,"internal_chunk_id":"0-0.14-0"},{"nsides":"n","question":"If an element x is a generator under <img src=./images/ngon_symbol.png style=width:14px;height:14px>, is its inverse a generator under <img src=./images/ngon_symbol.png style=width:14px;height:14px> always, sometimes, or never?","response_type":"multi","response_choices":["Always","Sometimes","Never"],"correct_response":"Always","response":"Sometimes","explain":false,"explanation":"","explanation_history":[],"orientation_history":[[0]],"response_history":["Sometimes"],"rt":5883,"trial_type":"polygon-arrow-question","trial_index":0,"trial_index_global":73,"time_elapsed":863037,"internal_chunk_id":"0-0.14-0"},{"nsides":"n","question":"if an element x is a generator under <img src=./images/ngon_symbol.png style=width:14px;height:14px>, is x <img src=./images/ngon_symbol.png style=width:14px;height:14px> x a generator under <img src=./images/ngon_symbol.png style=width:14px;height:14px> always, sometimes, or never? Please explain in words how you got your answer.","response_type":"multi","response_choices":["Always","Sometimes","Never"],"correct_response":"Sometimes","response":"Sometimes","explain":true,"explanation":"I would think it'd depend on the size of n. ","explanation_history":["I would think it'd be someti","I would think it'd be somet","I would think it'd be some","I would think it'd be som","I would think it'd be so","I would think it'd be s","I would think it'd be ","I would think it'd d ","I would think it'd de ","I would think it'd dep ","I would think it'd depe ","I would think it'd depen ","I would think it'd depend  ","I would think it'd depend o ","I would think  it'd dep end on  ","I would think it'd depend on t ","I would think it'd depend on th ","I would think it'd depend on the  ","I would think it'd depend on the s ","I would think it'd depend on the si ","I would think it'd depend on the siz ","I would think it'd depend on the size  ","I would think it'd depend on the size o ","I would think it'd depend on the size of  ","I would think it'd depend on the size of n ","I would think it'd depend on the size of n. "],"orientation_history":[[0]],"response_history":["Sometimes","Always","Sometimes"],"rt":53024,"trial_type":"polygon-arrow-question","trial_index":0,"trial_index_global":74,"time_elapsed":916061,"internal_chunk_id":"0-0.14-0"},{"nsides":"n","question":"If an element x is not a generator under <img src=./images/ngon_symbol.png style=width:14px;height:14px>, is x <img src=./images/ngon_symbol.png style=width:14px;height:14px> x a generator under <img src=./images/ngon_symbol.png style=width:14px;height:14px > always , sometimes, or never?","response_type":"multi","response_choices":["Always","Sometimes","Never"],"correct_response":"Never","response":"Sometimes","explain":false,"explanation":"","explanation_history":[],"orientation_history":[[0]],"response_history":["Sometimes"],"rt":8790,"trial_type":"polygon-arrow-question","trial_index":0,"trial_index_global":75,"time_elapsed":924853,"internal_chunk_id":"0-0.14-0"},{"instructions":"Now we'd like you to do a few of the questions and tell us how much you're using the arithmetic and polygon methods to solve them. We'll give you a demonstration of the response screen first.<br /><br />Press continue when you're ready to begin.","rt":12472,"trial_type":"instructions","trial_index":0,"trial_index_global":76,"time_elapsed":937326,"internal_chunk_id":"0-0.15-0"},{"nsides":9,"added_prompt":"<i>This is a demo response screen. You can respond independently to both questions, so it's okay to say you used both methods.</i><br /><br />","polygon_response":"4","modular_response":"2","rt":799343,"trial_type":"polygon-arrow-which-representation","trial_index":0,"trial_index_global":77,"time_elapsed":1736676,"internal_chunk_id":"0-0.15-0"},{"question":"<i>This is a demo response screen.</i><br /><br />Please describe in as much detail as possible how you used the arithmetic method, polygon method, or both for the problem.","response_type":"free","response_choices":[],"correct_response":"","response":"I mainly used the polygon method as I understood it better.","explain":false,"explanation":"","explanation_history":[],"response_history":["I mainly used the ploygon method as I understood it better.","I mainly used the polygon method as I understood it better."],"rt":24978,"trial_type":"question","trial_index":0,"trial_index_global":78,"time_elapsed":1761656,"internal_chunk_id":"0-0.15-0"},{"instructions":"Great! Now we have a few questions for you to do (some of which you may have seen earlier), and after each question you will tel l us how  much you used the polygon and arithmetic methods.<br /><br />Press continue when you're ready to begin.","rt":1736,"trial_type":"instructions","trial_index":0,"trial_index_global":79,"time_elapsed":1763393,"internal_chunk_id":"0-0.15-0"},{"nsides":9,"question":"Please answer the following question:<br /><br />What is the inverse of 4 under <img src=./images/nonagon_symbol.png style=width:14px;height:14px>?","response_type":"free","response_choices":[],"correct_response":"5","response":"5","explain":false,"explanation":"","explanation_history":[],"orientation_history":[[0],[2.8394474300503556,2.8394474300503556,2.792526803190927]],"response_history":["5"],"rt":22817,"trial_type":"polygon-arrow-question","trial_index":0,"trial_index_global":80,"time_elapsed":1786211,"internal_chunk_id":"0-0.15-0"},{"nsides":9,"question":"Please answer the following question:<br /><br />What is the inverse of 4 under <img src=./images/nonagon_symbol.png style=width:14px;height:14 px>?","added_prompt":"","polygon_response":"4","modular_response":"2","rt":4347,"trial_type":"polygon-arrow-which-representation","trial_index":0,"trial_index_global":81,"time_elapsed":1790559,"internal_chunk_id":"0-0.15-0"},{"question":"Please describe in as much detail as possible how you used the arithmetic method, polygon method, or both for the problem.","response_type":"free","response_choices":[],"correct_response":"","response":"I used the polygon method as it was more intuitive.","explain":false,"explanation":"","explanation_history":[],"response_history":["I used the ploygon methhod as it was more inut","I used the ploygon methhod as it was more inuitive.","I used the polygon method as it was more intuitive."],"rt":51766,"trial_type":"question","trial_index":0,"trial_index_global":82,"time_elapsed":1842328,"internal_chunk_id":"0-0.15-0"},{"nsides":9,"question":"Please answer the following question:<br /><br />What is the inverse of 0 under <img src=./images/nonagon_sym bol.png style=width:14px;height:14px>?","response_type":"free","response_choices":[],"correct_response":"0","response":"0","explain":false,"explanation":"","explanation_history":[],"orientation_history":[[0]],"response_history":["0"],"rt":11157,"trial_type":"polygon-arrow-question","trial_index":0,"trial_index_global":83,"time_elapsed":1853486,"internal_chunk_id":"0-0.15-0"},{"nsides":9,"question":"Please answer the following question:<br /><br />What is the inverse of 0 under <img src=./images/nonagon_symbol.png style=width:14px;height:14px>?","added_prompt":"","polygon_response":"2","modular_response":"2","rt":4230,"trial_type":"polygon-arrow-which-representation","trial_index":0,"trial_index_global":84,"time_elapsed":1857717,"internal_chunk_id":"0-0.15-0"},{"question":"Please describe in as much detail as possible how you used the arithmetic method, polygon method, or both for the problem.","response_type":"free","response_choices":[],"correct_response":"","response":"Eithe r method worked in this situation as 0 was always 0.","explain":false,"explanation":"","explanation_history":[],"response_history":["Either method wa","Either method worked in this siua","Either method worked in this siu","Either method worked in this situatu","Either method worked in this situation as 0 was always 0."],"rt":26450,"trial_type":"question","trial_index":0,"trial_index_global":85,"time_elapsed":1884168,"internal_chunk_id":"0-0.15-0"},{"nsides":9,"question":"Please answer the following question:<br /><br />Is 4 a generator under <img src=./images/nonagon_symbol.png style=width:14px;height:14px>?","response_type":"Multi","response_choices":["Yes","No"],"correct_response":"Yes","response":"No","explain":false,"explanation":"","explanation_history":[],"orientation_history":[[0]],"response_history":["No"],"rt":13372,"trial_type":"polygon-arrow-question","trial_index":0,"trial_index_global":86,"time_elapsed":1897540,"internal_chunk_id":"0-0.15-0"},{"nsides":9,"question":"Please answer the following question:<br /><br />Is 4 a generator under <img src=./images/nonagon_symbol.png style=width:14px;height:14px>?","added_prompt":"","polygon_response":"2","modular_response":"2","rt":3515,"trial_type":"polygon-arrow-which-representation","trial_index":0,"trial_index_global":87,"time_elapsed":1901056,"internal_chunk_id":"0-0.15-0"},{"question":"Please describe in as much detail as possible how you used the arithmetic method, polygon method, or both for the problem.","response_type":"free","response_choices":[],"correct_response":"","response":"I used the polygon method as it was quicker.","explain":false,"explanation":"","explanation_history":[],"response_history":["I mainly used ","I mainly used","I mainly use","I mainly us","I mainly u","I mainly ","I mainly","I mainl","I main","I mai","I ma","I m","I used the polygon methid as it was quicker.","I used the polygon method as it was quicker."],"rt":23461,"trial_type":"question","trial_index":0,"trial_index_global":88,"time_elapsed":1924519,"internal_chunk_id":"0-0.15-0"},{"nsides":"n","question":"Please answer the following question:<br /><br />True or false: If x divides n, it must not be a generator under <img src=./images/ngon_symbol.png style=width:14px;height:14px>.","response_type":"multi","response_choices":["True","False"],"correct_response":"True","response":"False","explain":false,"explanation":"","explanation_history":[],"orientation_history":[[0]],"response_history":["False"],"rt":15944,"trial_type":"polygon-arrow-question","trial_index":0,"trial_index_global":89,"time_elapsed":1940464,"internal_chunk_id":"0-0.15-0"},{"nsides":"n","question":"Please answer the following question:<br /><br />True or false: If x divides n, it must not be a generator under <img src=./images/ngon_symbol.png style=width:14px;height:14px>.","added_prompt":"","polygon_response":"2","modular_response":"2","rt":4808,"trial_type":"polygon-arrow-which-representati on","trial_index":0,"trial_index_global":90,"time_elapsed":1945274,"internal_chunk_id":"0-0.15-0"},{"question":"Please describe in as much detail as possible how you used the arithmetic method, polygon method, or both for the problem.","response_type":"free","response_choices":[],"correct_response":"","response":"This is false because x would divide n if it were an integer. Arithmetic would be easier in this case.","explain":false,"explanation":"","explanation_history":[],"response_history":["This is false because x would dvide n if it were an integer.","This is false because x would divide n if it were an integer. Arithmetic would be easier in this case."],"rt":30325,"trial_type":"question","trial_index":0,"trial_index_global":91,"time_elapsed":1975601,"internal_chunk_id":"0-0.15-0"},{"instructions":"We would like to ask you some questions about your background. Please press Continue to continue.","rt":1678,"trial_type":"instructions","trial_index":0,"trial_index_global":92,"time_elapsed":1977280,"internal_chunk_id":"0-0.16-0"},{"question":"What is your age?","response_type":"free","response_choices":[],"correct_response":"","response":"28","explain":false,"explanation":"","explanation_history":[],"response_history":["28"],"rt":467042,"trial_type":"question","trial_index":0,"trial_index_global":93,"time_elapsed":2444324,"internal_chunk_id":"0-0.16-0"},{"question":"What is your level of education?","response_type":"multi","response_choices":["Did not graduate high school","High school diploma","Some college, no degree","Associates Degree","Bachelors Degree","Some graduate school, no degree","Masters Degree","Doctorate, M.D., etc."],"correct_response":"","response":"Bachelors Degree","explain":false,"explanation":"","explanation_history":[],"response_history":["Bachelors Degree"],"rt":3321,"trial_type":"question","trial_index":0,"trial_index_global":94,"time_elapsed":2447646,"internal_chunk_id":"0-0.16-0"},{"question":"What is the most advanced math class y ou've co mpleted? If you have multiple classes and you're not sure which one is most advanced, please list them.","response_type":"free","response_choices":[],"correct_response":"","response":"Algebra II, some trigonometry, some calculus.  ","explain":false,"explanation":"","explanation_history":[],"response_history":["Algebra II, some trigonomtery ","Algebra II, some trigonometry,  ","Algebra II, some trigonometry, s ","Algebra II, some trigonometry, so ","Algebra II, some trigonometry, som ","Algebra II, some trigonometry, some  ","Algebra II, some trigonometry, some c ","Algebra II, some trigonometry, some ca ","Algebra II, some trigonometry, some cal ","Algebra II, some trigonometry, some calc ","Algebra II, some trigonometry, some calcu ","Algebra II, some trigonometry, some calcul ","Algebra II, some trigonometry, some calculs ","Algebra II, some trigonometry, some calcul ","Algebra II, some trigonometry, some calculu ","Algebra II, some trigonometry, some calculus ","Algebra I I, some  trigonometry, some calculus.  "],"rt":40480,"trial_type":"question","trial_index":0,"trial_index_global":95,"time_elapsed":2488127,"internal_chunk_id":"0-0.16-0"},{"question":"How familiar are you with the concept of modular arithmetic?","response_type":"multi","response_choices":["1 - never heard of it","2 - heard of it but didn't know what it was","3 - seen it used or explained","4 - used it but not often or recently","5 - used it, remember and understand it"],"correct_response":"1","response":"4 - used it but not often or recently","explain":false,"explanation":"","explanation_history":[],"response_history":["3 - seen it used or explained","4 - used it but not often or recently"],"rt":8447,"trial_type":"question","trial_index":0,"trial_index_global":96,"time_elapsed":2496575,"internal_chunk_id":"0-0.16-0"},{"question":"How familiar are you with the concept of a mathematical group?","response_type":"multi","response_choices":["1 - never heard of it","2 - heard of it but di dn't kno w what it was","3 - seen it used or explained","4 - used it but not often or recently","5 - used it, remember and understand it"],"correct_response":"1","response":"3 - seen it used or explained","explain":false,"explanation":"","explanation_history":[],"response_history":["3 - seen it used or explained"],"rt":3851,"trial_type":"question","trial_index":0,"trial_index_global":97,"time_elapsed":2500427,"internal_chunk_id":"0-0.16-0"},{"question":"Do you feel you learned something from this HIT?","response_type":"multi","response_choices":["1 - not at all","2 - somewhat","3 - definitely"],"correct_response":"1","response":"2 - somewhat","explain":false,"explanation":"","explanation_history":[],"response_history":["2 - somewhat"],"rt":5954,"trial_type":"question","trial_index":0,"trial_index_global":98,"time_elapsed":2506382,"internal_chunk_id":"0-0.16-0"},{"question":"Do you feel you understood the concepts in this HIT?","response_type":"multi","response_choices":["1 - not at a ll","2 -  somewhat","3 - definitely"],"correct_response":"1","response":"2 - somewhat","explain":false,"explanation":"","explanation_history":[],"response_history":["2 - somewhat"],"rt":3175,"trial_type":"question","trial_index":0,"trial_index_global":99,"time_elapsed":2509558,"internal_chunk_id":"0-0.16-0"},{"question":"Did you enjoy this HIT?","response_type":"multi","response_choices":["1 - not at all","2 - somewhat","3 - definitely"],"correct_response":"1","response":"3 - definitely","explain":false,"explanation":"","explanation_history":[],"response_history":["3 - definitely"],"rt":2909,"trial_type":"question","trial_index":0,"trial_index_global":100,"time_elapsed":2512472,"internal_chunk_id":"0-0.16-0"},{"question":"What is your gender?","response_type":"multi","response_choices":["Female","Male","Other"],"correct_response":"","response":"Male","explain":false,"explanation":"","explanation_history":[],"response_history":["Male"],"rt":2534,"trial_type":"question","trial_index":0,"trial_index_global":101,"time_elapsed":2515007,"internal_chunk_id":"0-0.16-0"},{"question":"What is/are your native language(s)? (The languages spoken in your household when you were a child.)","response_type":"free","response_choices":[],"correct_response":"","response":"english","explain":false,"explanation":"","explanation_history":[],"response_history":["english"],"rt":6783,"trial_type":"question","trial_index":0,"trial_index_global":102,"time_elapsed":2521790,"internal_chunk_id":"0-0.16-0"},{"question":"Did you use pen and paper at any point on this HIT?","response_type":"free","response_choices":[],"correct_response":"","response":"no","explain":false,"explanation":"","explanation_history":[],"response_history":["no"],"rt":187682,"trial_type":"question","trial_index":0,"trial_index_global":103,"time_elapsed":2709473,"internal_chunk_id":"0-0.16-0"},{"question":"Do you have any comments on this HIT?","response_type":"free","response_choices":[],"correct_response":"","response":"Intere sting math hit.  Math isn't my best subject, but I understood the concepts.  The arithmetic and polygon methods made the most sense as did the inverse.  I feel like finding the generators could have been explained further in detail with more examples. ","explain":false,"explanation":"","explanation_history":[],"response_history":["Interesting math hit.  Math isn't my best subject, but I understood the voncepts","Interesting math hit.  Math isn't my best subject, but I understood the oncepts","Interesting math hit.  Math isn't my best subject, but I understood the concepts.  The arithmatic ","Interesting math hit.  Math isn't my best subject, but I understood the concepts.  The arithmetic  ","Interesting math hit.  Math isn't my best subject, but I understood the concepts.  The arithmetic a ","Interesting math hit.  Math isn't my best subject, but I understood the concepts.  The arithmetic an ","Interesting math hit.  Math isn't my best subject, but I understood the concepts.   The ar ithmetic and  ","Interesting math hit.  Math isn't my best subject, but I understood the concepts.  The arithmetic and p ","Interesting math hit.  Math isn't my best subject, but I understood the concepts.  The arithmetic and po ","Interesting math hit.  Math isn't my best subject, but I understood the concepts.  The arithmetic and pol ","Interesting math hit.  Math isn't my best subject, but I understood the concepts.  The arithmetic and poly ","Interesting math hit.  Math isn't my best subject, but I understood the concepts.  The arithmetic and polyg ","Interesting math hit.  Math isn't my best subject, but I understood the concepts.  The arithmetic and polygo ","Interesting math hit.  Math isn't my best subject, but I understood the concepts.  The arithmetic and polygon  ","Interesting math hit.  Math isn't my best subject, but I understood the concepts.  The arithmetic and polygon m ","Interesting math hit.  Math isn't my best subject, but I understood the concepts.  The  arithme tic and polygon me ","Interesting math hit.  Math isn't my best subject, but I understood the concepts.  The arithmetic and polygon met ","Interesting math hit.  Math isn't my best subject, but I understood the concepts.  The arithmetic and polygon meth ","Interesting math hit.  Math isn't my best subject, but I understood the concepts.  The arithmetic and polygon metho ","Interesting math hit.  Math isn't my best subject, but I understood the concepts.  The arithmetic and polygon method ","Interesting math hit.  Math isn't my best subject, but I understood the concepts.  The arithmetic and polygon methods  ","Interesting math hit.  Math isn't my best subject, but I understood the concepts.  The arithmetic and polygon methods m ","Interesting math hit.  Math isn't my best subject, but I understood the concepts.  The arithmetic and polygon methods ma ","Interesting math hit.  Math isn't my best subject, but I understood the concepts.  The arithmetic and polygon methods mad ","Interes ting math hit.  Math isn't my best subject, but I understood the concepts.  The arithmetic and polygon methods made  ","Interesting math hit.  Math isn't my best subject, but I understood the concepts.  The arithmetic and polygon methods made t ","Interesting math hit.  Math isn't my best subject, but I understood the concepts.  The arithmetic and polygon methods made th ","Interesting math hit.  Math isn't my best subject, but I understood the concepts.  The arithmetic and polygon methods made the  ","Interesting math hit.  Math isn't my best subject, but I understood the concepts.  The arithmetic and polygon methods made the m ","Interesting math hit.  Math isn't my best subject, but I understood the concepts.  The arithmetic and polygon methods made the mo ","Interesting math hit.  Math isn't my best subject, but I understood the concepts.  The arithmetic and polygon methods made the mos ","Interesting math hit.  Math isn't my best subject, but I understood the concepts.   The ari thmetic and polygon methods made the most  ","Interesting math hit.  Math isn't my best subject, but I understood the concepts.  The arithmetic and polygon methods made the most s ","Interesting math hit.  Math isn't my best subject, but I understood the concepts.  The arithmetic and polygon methods made the most se ","Interesting math hit.  Math isn't my best subject, but I understood the concepts.  The arithmetic and polygon methods made the most sen ","Interesting math hit.  Math isn't my best subject, but I understood the concepts.  The arithmetic and polygon methods made the most sens ","Interesting math hit.  Math isn't my best subject, but I understood the concepts.  The arithmetic and polygon methods made the most sense  ","Interesting math hit.  Math isn't my best subject, but I understood the concepts.  The arithmetic and polygon methods made the most sense a ","Interesting math hit.  Math isn't my best subject, but I understood the concepts.  The arithmetic and po lygon me thods made the most sense as  ","Interesting math hit.  Math isn't my best subject, but I understood the concepts.  The arithmetic and polygon methods made the most sense as d ","Interesting math hit.  Math isn't my best subject, but I understood the concepts.  The arithmetic and polygon methods made the most sense as di ","Interesting math hit.  Math isn't my best subject, but I understood the concepts.  The arithmetic and polygon methods made the most sense as did  ","Interesting math hit.  Math isn't my best subject, but I understood the concepts.  The arithmetic and polygon methods made the most sense as did t ","Interesting math hit.  Math isn't my best subject, but I understood the concepts.  The arithmetic and polygon methods made the most sense as did th ","Interesting math hit.  Math isn't my best subject, but I understood the concepts.  The arithmetic and polygon methods made the most sense as did the  ","Interesting math hit.  Math isn't my best subject, but I und erstood  the concepts.  The arithmetic and polygon methods made the most sense as did the i ","Interesting math hit.  Math isn't my best subject, but I understood the concepts.  The arithmetic and polygon methods made the most sense as did the in ","Interesting math hit.  Math isn't my best subject, but I understood the concepts.  The arithmetic and polygon methods made the most sense as did the inv ","Interesting math hit.  Math isn't my best subject, but I understood the concepts.  The arithmetic and polygon methods made the most sense as did the inve ","Interesting math hit.  Math isn't my best subject, but I understood the concepts.  The arithmetic and polygon methods made the most sense as did the inver ","Interesting math hit.  Math isn't my best subject, but I understood the concepts.  The arithmetic and polygon methods made the most sense as did the invers ","Interesting math hit.  Math isn't my best subject, but I understood the concepts.  The arithmetic and polygon methods  made the  most sense as did the inverse ","Interesting math hit.  Math isn't my best subject, but I understood the concepts.  The arithmetic and polygon methods made the most sense as did the inverse.   ","Interesting math hit.  Math isn't my best subject, but I understood the concepts.  The arithmetic and polygon methods made the most sense as did the inverse.  I  ","Interesting math hit.  Math isn't my best subject, but I understood the concepts.  The arithmetic and polygon methods made the most sense as did the inverse.  I f ","Interesting math hit.  Math isn't my best subject, but I understood the concepts.  The arithmetic and polygon methods made the most sense as did the inverse.  I fe ","Interesting math hit.  Math isn't my best subject, but I understood the concepts.  The arithmetic and polygon methods made the most sense as did the inverse.  I fee ","Interesting math hit.  Math isn't my best subject, but I understood the concepts.  The arithmetic and polygon methods made the  most se nse as did the inverse.  I feel  ","Interesting math hit.  Math isn't my best subject, but I understood the concepts.  The arithmetic and polygon methods made the most sense as did the inverse.  I feel l ","Interesting math hit.  Math isn't my best subject, but I understood the concepts.  The arithmetic and polygon methods made the most sense as did the inverse.  I feel li ","Interesting math hit.  Math isn't my best subject, but I understood the concepts.  The arithmetic and polygon methods made the most sense as did the inverse.  I feel lik ","Interesting math hit.  Math isn't my best subject, but I understood the concepts.  The arithmetic and polygon methods made the most sense as did the inverse.  I feel like  ","Interesting math hit.  Math isn't my best subject, but I understood the concepts.  The arithmetic and polygon methods made the most sense as did the inverse.  I feel like f ","Interesting math hit.  Math isn't my best subject, but I understood the concepts.  The  arithme tic and polygon methods made the most sense as did the inverse.  I feel like fi ","Interesting math hit.  Math isn't my best subject, but I understood the concepts.  The arithmetic and polygon methods made the most sense as did the inverse.  I feel like fin ","Interesting math hit.  Math isn't my best subject, but I understood the concepts.  The arithmetic and polygon methods made the most sense as did the inverse.  I feel like find ","Interesting math hit.  Math isn't my best subject, but I understood the concepts.  The arithmetic and polygon methods made the most sense as did the inverse.  I feel like findi ","Interesting math hit.  Math isn't my best subject, but I understood the concepts.  The arithmetic and polygon methods made the most sense as did the inverse.  I feel like findin ","Interesting math hit.  Math isn't my best subject, but I understood the concepts.  The arithmetic and polygon methods made the most sense as did the inverse.  I feel like finding  ","Inter esting m ath hit.  Math isn't my best subject, but I understood the concepts.  The arithmetic and polygon methods made the most sense as did the inverse.  I feel like finding t ","Interesting math hit.  Math isn't my best subject, but I understood the concepts.  The arithmetic and polygon methods made the most sense as did the inverse.  I feel like finding th ","Interesting math hit.  Math isn't my best subject, but I understood the concepts.  The arithmetic and polygon methods made the most sense as did the inverse.  I feel like finding the  ","Interesting math hit.  Math isn't my best subject, but I understood the concepts.  The arithmetic and polygon methods made the most sense as did the inverse.  I feel like finding the h ","Interesting math hit.  Math isn't my best subject, but I understood the concepts.  The arithmetic and polygon methods made the most sense as did the inverse.  I feel like finding the he ","Interesting math hit.  Math isn't my best subject, but I understood t he conce pts.  The arithmetic and polygon methods made the most sense as did the inverse.  I feel like finding the hen ","Interesting math hit.  Math isn't my best subject, but I understood the concepts.  The arithmetic and polygon methods made the most sense as did the inverse.  I feel like finding the hene ","Interesting math hit.  Math isn't my best subject, but I understood the concepts.  The arithmetic and polygon methods made the most sense as did the inverse.  I feel like finding the hener ","Interesting math hit.  Math isn't my best subject, but I understood the concepts.  The arithmetic and polygon methods made the most sense as did the inverse.  I feel like finding the henert ","Interesting math hit.  Math isn't my best subject, but I understood the concepts.  The arithmetic and polygon methods made the most sense as did the inverse.  I feel like finding the henerto ","Interesting math hit.  Math isn't my best subject, but I understood the concepts.  The arithmetic and poly gon meth ods made the most sense as did the inverse.  I feel like finding the henertor ","Interesting math hit.  Math isn't my best subject, but I understood the concepts.  The arithmetic and polygon methods made the most sense as did the inverse.  I feel like finding the henertors  ","Interesting math hit.  Math isn't my best subject, but I understood the concepts.  The arithmetic and polygon methods made the most sense as did the inverse.  I feel like finding the henertors c ","Interesting math hit.  Math isn't my best subject, but I understood the concepts.  The arithmetic and polygon methods made the most sense as did the inverse.  I feel like finding the henertors co ","Interesting math hit.  Math isn't my best subject, but I understood the concepts.  The arithmetic and polygon methods made the most sense as did the inverse.  I feel like finding the henertors cou ","Interesting math hit.  Math isn't my best subject, but I understood the concepts.  The arithmetic and polygon meth ods made  the most sense as did the inverse.  I feel like finding the henertors coul ","Interesting math hit.  Math isn't my best subject, but I understood the concepts.  The arithmetic and polygon methods made the most sense as did the inverse.  I feel like finding the henertors could  ","Interesting math hit.  Math isn't my best subject, but I understood the concepts.  The arithmetic and polygon methods made the most sense as did the inverse.  I feel like finding the henertors could h ","Interesting math hit.  Math isn't my best subject, but I understood the concepts.  The arithmetic and polygon methods made the most sense as did the inverse.  I feel like finding the henertors could ha ","Interesting math hit.  Math isn't my best subject, but I understood the concepts.  The arithmetic and polygon methods made the most sense as did the inverse.  I feel like finding the henertors could hav ","Interesting math hit.  Math isn't my best subject, but I understood the concepts.  The arith metic an d polygon methods made the most sense as did the inverse.  I feel like finding the henertors could have  ","Interesting math hit.  Math isn't my best subject, but I understood the concepts.  The arithmetic and polygon methods made the most sense as did the inverse.  I feel like finding the henertors could have b ","Interesting math hit.  Math isn't my best subject, but I understood the concepts.  The arithmetic and polygon methods made the most sense as did the inverse.  I feel like finding the henertors could have be ","Interesting math hit.  Math isn't my best subject, but I understood the concepts.  The arithmetic and polygon methods made the most sense as did the inverse.  I feel like finding the henertors could have bee ","Interesting math hit.  Math isn't my best subject, but I understood the concepts.  The arithmetic and polygon methods made the most sense as did the inverse.  I feel like finding the henertors could have been  ","Interesting math hit.  Math isn't my b est subj ect, but I understood the concepts.  The arithmetic and polygon methods made the most sense as did the inverse.  I feel like finding the henertors could have been e ","Interesting math hit.  Math isn't my best subject, but I understood the concepts.  The arithmetic and polygon methods made the most sense as did the inverse.  I feel like finding the henertors could have been ex ","Interesting math hit.  Math isn't my best subject, but I understood the concepts.  The arithmetic and polygon methods made the most sense as did the inverse.  I feel like finding the henertors could have been exp ","Interesting math hit.  Math isn't my best subject, but I understood the concepts.  The arithmetic and polygon methods made the most sense as did the inverse.  I feel like finding the henertors could have been expl ","Interesting math hit.  Math isn't my best subject, but I understood the concepts.  The arithmetic and polygon methods made the most sense as did the inverse.  I feel like fi nding th e henertors could have been expla ","Interesting math hit.  Math isn't my best subject, but I understood the concepts.  The arithmetic and polygon methods made the most sense as did the inverse.  I feel like finding the henertors could have been explai ","Interesting math hit.  Math isn't my best subject, but I understood the concepts.  The arithmetic and polygon methods made the most sense as did the inverse.  I feel like finding the henertors could have been explain ","Interesting math hit.  Math isn't my best subject, but I understood the concepts.  The arithmetic and polygon methods made the most sense as did the inverse.  I feel like finding the henertors could have been explaine ","Interesting math hit.  Math isn't my best subject, but I understood the concepts.  The arithmetic and polygon methods made the most sense as did the inverse.  I feel like finding the henertors could have been explained  ","Interesting math hit.  Math isn't my best subject, but I understood t he conce pts.  The arithmetic and polygon methods made the most sense as did the inverse.  I feel like finding the henertors could have been explained f ","Interesting math hit.  Math isn't my best subject, but I understood the concepts.  The arithmetic and polygon methods made the most sense as did the inverse.  I feel like finding the henertors could have been explained fu ","Interesting math hit.  Math isn't my best subject, but I understood the concepts.  The arithmetic and polygon methods made the most sense as did the inverse.  I feel like finding the henertors could have been explained fur ","Interesting math hit.  Math isn't my best subject, but I understood the concepts.  The arithmetic and polygon methods made the most sense as did the inverse.  I feel like finding the henertors could have been explained furt ","Interesting math hit.  Math isn't my best subject, but I understood the concepts.  The arithmetic and polygon methods made the most sense as did the inverse.  I fee l like f inding the henertors could have been explained furth ","Interesting math hit.  Math isn't my best subject, but I understood the concepts.  The arithmetic and polygon methods made the most sense as did the inverse.  I feel like finding the henertors could have been explained furthe ","Interesting math hit.  Math isn't my best subject, but I understood the concepts.  The arithmetic and polygon methods made the most sense as did the inverse.  I feel like finding the henertors could have been explained further  ","Interesting math hit.  Math isn't my best subject, but I understood the concepts.  The arithmetic and polygon methods made the most sense as did the inverse.  I feel like finding the henertors could have been explained further i ","Interesting math hit.  Math isn't my best subject, but I understood the concepts.  The arithmetic and polygon methods made the most sense as did the inverse.  I feel like finding the henertors could have been explained further in d ","Intere sting ma th hit.  Math isn't my best subject, but I understood the concepts.  The arithmetic and polygon methods made the most sense as did the inverse.  I feel like finding the henertors could have been explained further in de ","Interesting math hit.  Math isn't my best subject, but I understood the concepts.  The arithmetic and polygon methods made the most sense as did the inverse.  I feel like finding the henertors could have been explained further in det ","Interesting math hit.  Math isn't my best subject, but I understood the concepts.  The arithmetic and polygon methods made the most sense as did the inverse.  I feel like finding the henertors could have been explained further in deta ","Interesting math hit.  Math isn't my best subject, but I understood the concepts.  The arithmetic and polygon methods made the most sense as did the inverse.  I feel like finding the henertors could have been explained further in detai ","Interesting math hit.  Math isn't my best subject, bu t I unde rstood the concepts.  The arithmetic and polygon methods made the most sense as did the inverse.  I feel like finding the henertors could have been explained further in detail  ","Interesting math hit.  Math isn't my best subject, but I understood the concepts.  The arithmetic and polygon methods made the most sense as did the inverse.  I feel like finding the henertors could have been explained further in detail w ","Interesting math hit.  Math isn't my best subject, but I understood the concepts.  The arithmetic and polygon methods made the most sense as did the inverse.  I feel like finding the henertors could have been explained further in detail wi ","Interesting math hit.  Math isn't my best subject, but I understood the concepts.  The arithmetic and polygon methods made the most sense as did the inverse.  I feel like finding the henertors could have been explained further in detail wit ","Interesting math hit.  Math isn't my best subject, but I understood the concepts .  The a rithmetic and polygon methods made the most sense as did the inverse.  I feel like finding the henertors could have been explained further in detail with  ","Interesting math hit.  Math isn't my best subject, but I understood the concepts.  The arithmetic and polygon methods made the most sense as did the inverse.  I feel like finding the henertors could have been explained further in detail with m ","Interesting math hit.  Math isn't my best subject, but I understood the concepts.  The arithmetic and polygon methods made the most sense as did the inverse.  I feel like finding the henertors could have been explained further in detail with mo ","Interesting math hit.  Math isn't my best subject, but I understood the concepts.  The arithmetic and polygon methods made the most sense as did the inverse.  I feel like finding the henertors could have been explained further in detail with mor ","Interesting math hit.  Math isn't my best subject, but I understood the concepts.  The  arithmet ic and polygon methods made the most sense as did the inverse.  I feel like finding the henertors could have been explained further in detail with more  ","Interesting math hit.  Math isn't my best subject, but I understood the concepts.  The arithmetic and polygon methods made the most sense as did the inverse.  I feel like finding the henertors could have been explained further in detail with more e ","Interesting math hit.  Math isn't my best subject, but I understood the concepts.  The arithmetic and polygon methods made the most sense as did the inverse.  I feel like finding the henertors could have been explained further in detail with more ex ","Interesting math hit.  Math isn't my best subject, but I understood the concepts.  The arithmetic and polygon methods made the most sense as did the inverse.  I feel like finding the henertors could have been explained further in detail with more exa ","Interesting math hit.  Math isn't my best subject, but I understood the co ncepts.   The arithmetic and polygon methods made the most sense as did the inverse.  I feel like finding the henertors could have been explained further in detail with more exam ","Interesting math hit.  Math isn't my best subject, but I understood the concepts.  The arithmetic and polygon methods made the most sense as did the inverse.  I feel like finding the henertors could have been explained further in detail with more examp ","Interesting math hit.  Math isn't my best subject, but I understood the concepts.  The arithmetic and polygon methods made the most sense as did the inverse.  I feel like finding the henertors could have been explained further in detail with more exampl ","Interesting math hit.  Math isn't my best subject, but I understood the concepts.  The arithmetic and polygon methods made the most sense as did the inverse.  I feel like finding the henertors could have been explained further in detail with more example ","Interesting math hit.  Math isn't my best sub ject, bu t I understood the concepts.  The arithmetic and polygon methods made the most sense as did the inverse.  I feel like finding the henertors could have been explained further in detail with more examples ","Interesting math hit.  Math isn't my best subject, but I understood the concepts.  The arithmetic and polygon methods made the most sense as did the inverse.  I feel like finding the henertors could have been explained further in detail with more examples. ","Interesting math hit.  Math isn't my best subject, but I understood the concepts.  The arithmetic and polygon methods made the most sense as did the inverse.  I feel like finding the generators could have been explained further in detail with more examples. "],"rt":99446,"trial_type":"question","trial_index":0,"trial_index_global":104,"time_elapsed":2808919,"internal_chunk_id":"0-0.16-0"}]