[{"nsides":6,"instructions":"Let's define a new operation <img src=./images/hexagon_symbol.png style=width:14px;height:14px>. This operation will give us a way of combining two of the numbers 0, 1, 2, 3, 4, 5 to get another one of them back. To perform <img src=./images/hexagon_symbol.png style=width:14px;height:14px>, you can either use a method based on the hexagon at right, or a method based on arithmetic.<br /><b>Hexagon method:</b> you can use the interactive diagram on the right, or perform the operation in your mind. Point the arrow at the first number on the hexagon by clicking, then click (or click and drag) to move the arrow the second number of points clockwise around the hexagon. The number the arrow arrives at is your result. (The operation is called <img src=./images/hexagon_symbol.png style=width:14px;height:14px> because it uses the hexagon, which has 6 sides.) <br ><b>Arithmetic method:</b> you start with the first number, and then add  the sec ond one to it. If the sum is smaller than 6, that's your result. If the sum is 6 or bigger, you subtract 6 to get your result. <br /><br />For example, 3 <img src=./images/hexagon_symbol.png style=width:14px;height:14px> 5 = 2, because 5 steps clockwise from 3 on the hexagon brings us to 2. Equivalently, 3 + 5 = 8, and 8 is bigger than 6, so we subtract 6, and 8 - 6 = 2. So 3 <img src=./images/hexagon_symbol.png style=width:14px;height:14px> 5 = 2.<br /><br />Similarly, 1 <img src=./images/hexagon_symbol.png style=width:14px;height:14px> 4 = 5, because 1 + 4 = 5, and 5 is less than 6 so we leave it alone. Equivalently, 4 steps clockwise from 1 on the hexagon brings us to 5. <br /><br />Click Continue when you're ready to move on.","orientation_history":[0],"rt":56713,"trial_type":"polygon-arrow-instructions","trial_index":0,"trial_index_global":1,"time_elapsed":75702,"internal_chunk_id":"0-0"},{"nsides":6,"instructions":"Do you see how the differe nt ways  of performing <img src=./images/hexagon_symbol.png style=width:14px;height:14px> give the same result? By labeling the points of the hexagon with the numbers from 0 to 5, we ensure that when we combine two numbers using the hexagon, we only produce numbers between 0 and 5. When we use the arithmetic strategy, adding the second number to the first mimics counting around the hexagon, and subtracting 6 each time we get above 5 makes sure the results correspond to the numbers on the points of the hexagon. <br /><br />Click Continue when you're ready to move on.","orientation_history":[0],"rt":15912,"trial_type":"polygon-arrow-instructions","trial_index":0,"trial_index_global":2,"time_elapsed":91615,"internal_chunk_id":"0-0"},{"nsides":6,"question":"Now try one on your own! What is 4 <img src=./images/hexagon_symbol.png style=width:14px;height:14px> 5? <br /><br /> (Remember, to perform <img src=./images/hexagon_symbol.png style=width:14px;height:14px> , you ca n either use a method based on the hexagon at right, or a method based on arithmetic.<br /><br /><b>Hexagon method:</b> you can use the interactive diagram on the right, or perform the operation in your mind. Point the arrow at the first number, then move the arrow the second number of points clockwise around the hexagon. The number the arrow arrives at is your result. <br /><br /><b>Arithmetic method:</b> you start with the first number, and then add the second one to it. If the sum is smaller than 6, that's your result. If the sum is 6 or bigger, you subtract 6 to get your result.)","response_type":"free","response_choices":[],"correct_response":"3","response":"3","orientation_history":[[0]],"response_history":["3"],"rt":37794,"trial_type":"polygon-arrow-question","trial_index":0,"trial_index_global":3,"time_elapsed":129411,"internal_chunk_id":"0-0.3-0"},{"nsides":6,"feedback":"Correct! 4 <img src=./images/hexagon_symbol.png style=width:14px;height:14px> 5 = 3 beca use 5 st eps clockwise on the hexagon from 4 brings us to 3. Equivalently, 4 + 5 = 9 and 9 - 6 = 3.","orientation_history":[0],"rt":4046,"trial_type":"polygon-arrow-feedback","trial_index":0,"trial_index_global":4,"time_elapsed":133460,"internal_chunk_id":"0-0.3-0"},{"nsides":6,"question":"What is 3 <img src=./images/hexagon_symbol.png style=width:14px;height:14px> 2? Try to solve this problem using the hexagon. <br /><br /> (Remember, to perform <img src=./images/hexagon_symbol.png style=width:14px;height:14px> on the hexagon, you can use the interactive diagram on the right, or perform the operation in your mind. Point the arrow at the first number on the hexagon, and then move the arrow the second number of points clockwise around the hexagon.)","response_type":"free","response_choices":[],"correct_response":"5","response":"5","orientation_history":[[0]],"response_history":["5"],"rt":10539,"trial_type":"polygon-arrow-question","trial_index":0,"trial_index_global":5,"time_elapsed":143999,"internal_chunk_id":"0-0.3-0"},{"nsides":6,"feedback":"Correct! 3 <img src=./images/hexagon_symbol.png style=width:14px;height:14px> 2 = 5 because 2 steps clockwise on the hexagon from 3 brings us to 5. Equivalently, 3 + 2 = 5 and 5 is less than 6.","orientation_history":[0],"rt":1498,"trial_type":"polygon-arrow-feedback","trial_index":0,"trial_index_global":6,"time_elapsed":145498,"internal_chunk_id":"0-0.3-0"},{"nsides":6,"question":"What is 1 <img src=./images/hexagon_symbol.png style=width:14px;height:14px> 5? Try to solve this probem using the arithmetic technique. <br /><br /> (Remember, to perform <img src=./images/hexagon_symbol.png style=width:14px;height:14px> by arithmetic, you start with the first number, and then add the second one to it. If the sum is smaller than 6, that's your result. If the sum is 6 or bigger, you subtract 6 to get your result.)","response_type":"free","response_choices":[],"correct_response":"0","response":"6","orientation_history":[[0]],"response_history":["6"],"rt":7974,"trial_type":"polygon-arrow-question","trial_index":0,"trial_index_global":7,"time_elapsed":153472,"internal_chunk_id":"0-0.3-0"},{"nsides":6,"feedback":"Sorry, that was incorrect. 1 <img src=./images/hexagon_symbol.png style=width:14px;height:14px> 5 = 0 because 1 + 5 = 6 and 6 - 6 = 0.  Equivalently, 5 steps clockwise on the hexagon from 1 brings us to 0.","orientation_history":[0],"rt":6757,"trial_type":"polygon-arrow-feedback","trial_index":0,"trial_index_global":8,"time_elapsed":160230,"internal_chunk_id":"0-0.3-0"},{"nsides":6,"question":"What is 1 <img src=./images/hexagon_symbol.png style=width:14px;height:14px> 1? Try to solve this problem using the hexagon. <br /><br /> (Remember, to perform <img src=./images/hexagon_symbol.png style=width:14px;height:14px> on the hexagon, you can use the interactive diagram on the right, or perform the operation in your mind. Point the arrow at  the fir st number on the hexagon, and then move the arrow the second number of points clockwise around the hexagon.)","response_type":"free","response_choices":[],"correct_response":"2","response":"2","orientation_history":[[0]],"response_history":["2"],"rt":7628,"trial_type":"polygon-arrow-question","trial_index":0,"trial_index_global":9,"time_elapsed":167858,"internal_chunk_id":"0-0.3-0"},{"nsides":6,"feedback":"Correct! 1 <img src=./images/hexagon_symbol.png style=width:14px;height:14px> 1 = 2 because 1 step clockwise on the hexagon from 1 brings us to 2. Equivalently, 1 + 1 = 2 and 2 is less than 6.","orientation_history":[0],"rt":1630,"trial_type":"polygon-arrow-feedback","trial_index":0,"trial_index_global":10,"time_elapsed":169489,"internal_chunk_id":"0-0.3-0"},{"nsides":6,"question":"What is 3 <img src=./images/hexagon_symbol.png style=width:14px;height:14px> 0? Try to solve this problem using the arithmetic technique. <br /><br /> (Remember, to perform <img  src=./ images/hexagon_symbol.png style=width:14px;height:14px> using arithmetic, you start with the first number, and then add the second one to it. If the sum is smaller than 6, that's your result. If the sum is 6 or bigger, you subtract 6 to get your result.)","response_type":"free","response_choices":[],"correct_response":"3","response":"3","orientation_history":[[0]],"response_history":["3"],"rt":13000,"trial_type":"polygon-arrow-question","trial_index":0,"trial_index_global":11,"time_elapsed":182490,"internal_chunk_id":"0-0.3-0"},{"nsides":6,"feedback":"Correct! 3 <img src=./images/hexagon_symbol.png style=width:14px;height:14px> 0 = 3 because 3 + 0 = 3 and 3 - 6 = 3.  Equivalently, 0 steps clockwise on the hexagon from 3 brings us to 3.","orientation_history":[0],"rt":1396,"trial_type":"polygon-arrow-feedback","trial_index":0,"trial_index_global":12,"time_elapsed":183887,"internal_chunk_id":"0-0.3-0"},{"nsides":6,"question":"What is 4 <img src=./images/hexagon _symbol. png style=width:14px;height:14px> 4? Try to solve this problem using the hexagon. <br /><br /> (Remember, to perform <img src=./images/hexagon_symbol.png style=width:14px;height:14px> on the hexagon, you can use the interactive diagram on the right, or perform the operation in your mind. Point the arrow at the first number on the hexagon, and then move the arrow the second number of points clockwise around the hexagon.)","response_type":"free","response_choices":[],"correct_response":"2","response":"2","orientation_history":[[0]],"response_history":["2"],"rt":8493,"trial_type":"polygon-arrow-question","trial_index":0,"trial_index_global":13,"time_elapsed":192381,"internal_chunk_id":"0-0.3-0"},{"nsides":6,"feedback":"Correct! 4 <img src=./images/hexagon_symbol.png style=width:14px;height:14px> 4 = 2 because 4 steps clockwise on the hexagon from 4 brings us to 2. Equivalently, 4 + 4 = 8 and 8 - 6 = 2.","orientation_history":[0],"rt":1071,"trial_type":"pol ygon-arr ow-feedback","trial_index":0,"trial_index_global":14,"time_elapsed":193453,"internal_chunk_id":"0-0.3-0"},{"nsides":6,"question":"What is 1 <img src=./images/hexagon_symbol.png style=width:14px;height:14px> 3? Try to solve this problem using the arithmetic technique. <br /><br /> (Remember, to perform <img src=./images/hexagon_symbol.png style=width:14px;height:14px> by arithmetic, you start with the first number, and then add the second one to it. If the sum is smaller than 6, that's your result. If the sum is 6 or bigger, you subtract 6 to get your result.)","response_type":"free","response_choices":[],"correct_response":"4","response":"4","orientation_history":[[0]],"response_history":["4"],"rt":4109,"trial_type":"polygon-arrow-question","trial_index":0,"trial_index_global":15,"time_elapsed":197563,"internal_chunk_id":"0-0.3-0"},{"nsides":6,"feedback":"Correct! 1 <img src=./images/hexagon_symbol.png style=width:14px;height:14px> 3 = 4 because 1 + 3  = 4 and  4 - 6 = 4.  Equivalently, 3 steps clockwise on the hexagon from 1 brings us to 4.","orientation_history":[0],"rt":1031,"trial_type":"polygon-arrow-feedback","trial_index":0,"trial_index_global":16,"time_elapsed":198595,"internal_chunk_id":"0-0.3-0"},{"nsides":6,"question":"What is 4 <img src=./images/hexagon_symbol.png style=width:14px;height:14px> 3? <br /><br /> (Remember, to perform <img src=./images/hexagon_symbol.png style=width:14px;height:14px>, you can either use a method based on the hexagon at right, or a method based on arithmetic.<br /><br /><b>Hexagon method:</b> you can use the interactive diagram on the right, or perform the operation in your mind. Point the arrow at the first number, then move the arrow the second number of points clockwise around the hexagon. The number the arrow arrives at is your result. <br /><br /><b>Arithmetic method:</b> you start with the first number, and then add the second one to it. If the sum is smaller than 6, t hat's yo ur result. If the sum is 6 or bigger, you subtract 6 to get your result.)","response_type":"free","response_choices":[],"correct_response":"1","response":"1","orientation_history":[[0]],"response_history":["1"],"rt":7642,"trial_type":"polygon-arrow-question","trial_index":0,"trial_index_global":17,"time_elapsed":206238,"internal_chunk_id":"0-0.3-0"},{"nsides":6,"feedback":"Correct! 4 <img src=./images/hexagon_symbol.png style=width:14px;height:14px> 3 = 1 because 3 steps clockwise on the hexagon from 4 brings us to 1. Equivalently, 4 + 3 = 7 and 7 - 6 = 1.","orientation_history":[0],"rt":1103,"trial_type":"polygon-arrow-feedback","trial_index":0,"trial_index_global":18,"time_elapsed":207341,"internal_chunk_id":"0-0.3-0"},{"nsides":6,"question":"What is 0 <img src=./images/hexagon_symbol.png style=width:14px;height:14px> 5? <br /><br /> (Remember, to perform <img src=./images/hexagon_symbol.png style=width:14px;height:14px>, you can either use a method  based o n the hexagon at right, or a method based on arithmetic.<br /><br /><b>Hexagon method:</b> you can use the interactive diagram on the right, or perform the operation in your mind. Point the arrow at the first number, then move the arrow the second number of points clockwise around the hexagon. The number the arrow arrives at is your result. <br /><br /><b>Arithmetic method:</b> you start with the first number, and then add the second one to it. If the sum is smaller than 6, that's your result. If the sum is 6 or bigger, you subtract 6 to get your result.)","response_type":"free","response_choices":[],"correct_response":"5","response":"5","orientation_history":[[0]],"response_history":["5"],"rt":10315,"trial_type":"polygon-arrow-question","trial_index":0,"trial_index_global":19,"time_elapsed":217657,"internal_chunk_id":"0-0.3-0"},{"nsides":6,"feedback":"Correct! 0 <img src=./images/hexagon_symbol.png style=width:14px;height:14px> 5 = 5 because 5 steps clockwise on the  hexagon  from 0 brings us to 5. Equivalently, 0 + 5 = 5 and 5 is less than 6.","orientation_history":[0],"rt":1001,"trial_type":"polygon-arrow-feedback","trial_index":0,"trial_index_global":20,"time_elapsed":218661,"internal_chunk_id":"0-0.3-0"},{"nsides":6,"question":"What is 2 <img src=./images/hexagon_symbol.png style=width:14px;height:14px> 5? <br /><br /> (Remember, to perform <img src=./images/hexagon_symbol.png style=width:14px;height:14px>, you can either use a method based on the hexagon at right, or a method based on arithmetic.<br /><br /><b>Hexagon method:</b> you can use the interactive diagram on the right, or perform the operation in your mind. Point the arrow at the first number, then move the arrow the second number of points clockwise around the hexagon. The number the arrow arrives at is your result. <br /><br /><b>Arithmetic method:</b> you start with the first number, and then add the second one to it. If the sum is smaller than 6, that's your re sult. If  the sum is 6 or bigger, you subtract 6 to get your result.)","response_type":"free","response_choices":[],"correct_response":"1","response":"1","orientation_history":[[0]],"response_history":["1"],"rt":3159,"trial_type":"polygon-arrow-question","trial_index":0,"trial_index_global":21,"time_elapsed":221821,"internal_chunk_id":"0-0.3-0"},{"nsides":6,"feedback":"Correct! 2 <img src=./images/hexagon_symbol.png style=width:14px;height:14px> 5 = 1 because 5 steps clockwise on the hexagon from 2 brings us to 1. Equivalently, 2 + 5 = 7 and 7 - 6 = 1.","orientation_history":[0],"rt":954,"trial_type":"polygon-arrow-feedback","trial_index":0,"trial_index_global":22,"time_elapsed":222776,"internal_chunk_id":"0-0.3-0"},{"nsides":6,"instructions":"Now we're going to discuss a couple special properties of this new operation, <img src=./images/hexagon_symbol.png style=width:14px;height:14px> that we've learned. First, notice that the number 0 behaves in a special way under  <img src =./images/hexagon_symbol.png style=width:14px;height:14px>. Whenever we combine 0 with anything else, we get that same thing back. We'll say that 0 is the <i>identity</i> under <img src=./images/hexagon_symbol.png style=width:14px;height:14px>, because when you combine it with something it gives you that identical thing back.","orientation_history":[0],"rt":9938,"trial_type":"polygon-arrow-instructions","trial_index":0,"trial_index_global":23,"time_elapsed":232716,"internal_chunk_id":"0-0"},{"nsides":6,"instructions":"Now that we know 0 is the identity under <img src=./images/hexagon_symbol.png style=width:14px;height:14px>, we're going to make a new definition. We'll say that the <i>inverse</i> of a number is the element that you combine with it to produce the identity. For example, 5 <img src=./images/hexagon_symbol.png style=width:14px;height:14px> 1 = 0, so we say 1 is the inverse of 5 under <img src=./images/hexagon_symbol.png style=width:1 4px;height:14px>, (remember 0 is the identity under <img src=./images/hexagon_symbol.png style=width:14px;height:14px>). Similarly, 3 is its own inverse under <img src=./images/hexagon_symbol.png style=width:14px;height:14px>, because 3 <img src=./images/hexagon_symbol.png style=width:14px;height:14px> 3 = 0.","orientation_history":[0],"rt":35784,"trial_type":"polygon-arrow-instructions","trial_index":0,"trial_index_global":24,"time_elapsed":268501,"internal_chunk_id":"0-0"},{"nsides":6,"question":"Now you try! What is the inverse of 4 under <img src=./images/hexagon_symbol.png style=width:14px;height:14px>? <br /><br /> (Remember, the inverse of an element is the thing which you combine with it to produce the identity.)","response_type":"free","response_choices":[],"correct_response":"2","response":"2","orientation_history":[[0]],"response_history":["2"],"rt":15442,"trial_type":"polygon-arrow-question","trial_index":0,"trial_index_global":25,"time_elapsed":283944,"internal_chunk_id":"0-0.7-0"},{"nsides":6,"feedback":"Correct! The inverse of 4 under <img src=./images/hexagon_symbol.png style=width:14px;height:14px> is 2 because 4 <img src=./images/hexagon_symbol.png style=width:14px;height:14px> 2 = 0, and 0 is the identity under <img src=./images/hexagon_symbol.png style=width:14px;height:14px>.","orientation_history":[0],"rt":1517,"trial_type":"polygon-arrow-feedback","trial_index":0,"trial_index_global":26,"time_elapsed":285461,"internal_chunk_id":"0-0.7-0"},{"nsides":6,"question":"What is the inverse of 1 under <img src=./images/hexagon_symbol.png style=width:14px;height:14px>? <br /><br /> (Remember, the inverse of an element is the thing which you combine with it to produce the identity.)","response_type":"free","response_choices":[],"correct_response":"5","response":"5","orientation_history":[[0]],"response_history":["5"],"rt":9400,"trial_type":"polygon-arrow-question","trial_index":0,"trial_index_global":27,"time_elapsed":294864,"internal_chunk_id":"0-0.7-0"},{"nsides":6,"feedback":"Correct! The inverse of 1 under <img src=./images/hexagon_symbol.png style=width:14px;height:14px> is 5 because 1 <img src=./images/hexagon_symbol.png style=width:14px;height:14px> 5 = 0, and 0 is the identity under <img src=./images/hexagon_symbol.png style=width:14px;height:14px>.","orientation_history":[0],"rt":1071,"trial_type":"polygon-arrow-feedback","trial_index":0,"trial_index_global":28,"time_elapsed":295936,"internal_chunk_id":"0-0.7-0"},{"nsides":6,"question":"What is the inverse of 3 under <img src=./images/hexagon_symbol.png style=width:14px;height:14px>? <br /><br /> (Remember, the inverse of an element is the thing which you combine with it to produce the identity.)","response_type":"free","response_choices":[],"correct_response":"3","response":"3","orientation_history":[[0]],"response_history":["3"],"rt":2175,"trial_type":"polygon- arrow-qu estion","trial_index":0,"trial_index_global":29,"time_elapsed":298112,"internal_chunk_id":"0-0.7-0"},{"nsides":6,"feedback":"Correct! The inverse of 3 under <img src=./images/hexagon_symbol.png style=width:14px;height:14px> is 3 because 3 <img src=./images/hexagon_symbol.png style=width:14px;height:14px> 3 = 0, and 0 is the identity under <img src=./images/hexagon_symbol.png style=width:14px;height:14px>.","orientation_history":[0],"rt":773,"trial_type":"polygon-arrow-feedback","trial_index":0,"trial_index_global":30,"time_elapsed":298886,"internal_chunk_id":"0-0.7-0"},{"nsides":6,"question":"What is the inverse of 2 under <img src=./images/hexagon_symbol.png style=width:14px;height:14px>? <br /><br /> (Remember, the inverse of an element is the thing which you combine with it to produce the identity.)","response_type":"free","response_choices":[],"correct_response":"4","response":"4","orientation_history":[[0]],"response_history":["4"],"rt":2445,"trial_type":"polygon-arrow-question","trial_index":0,"trial_index_global":31,"time_elapsed":301332,"internal_chunk_id":"0-0.7-0"},{"nsides":6,"feedback":"Correct! The inverse of 2 under <img src=./images/hexagon_symbol.png style=width:14px;height:14px> is 4 because 2 <img src=./images/hexagon_symbol.png style=width:14px;height:14px> 4 = 0, and 0 is the identity under <img src=./images/hexagon_symbol.png style=width:14px;height:14px>.","orientation_history":[0],"rt":811,"trial_type":"polygon-arrow-feedback","trial_index":0,"trial_index_global":32,"time_elapsed":302144,"internal_chunk_id":"0-0.7-0"},{"nsides":6,"question":"What is the inverse of 0 under <img src=./images/hexagon_symbol.png style=width:14px;height:14px>? <br /><br /> (Remember, the inverse of an element is the thing which you combine with it to produce the identity.)","response_type":"free","response_choices":[],"correct_response":"0","response":"0","orientation_history":[[0]],"response_history":["0"],"rt":4977,"trial_type":"polygon-arrow-question","trial_index":0,"trial_index_global":33,"time_elapsed":307122,"internal_chunk_id":"0-0.7-0"},{"nsides":6,"feedback":"Correct! The inverse of 0 under <img src=./images/hexagon_symbol.png style=width:14px;height:14px> is 0 because 0 <img src=./images/hexagon_symbol.png style=width:14px;height:14px> 0 = 0, and 0 is the identity under <img src=./images/hexagon_symbol.png style=width:14px;height:14px>.","orientation_history":[0],"rt":921,"trial_type":"polygon-arrow-feedback","trial_index":0,"trial_index_global":34,"time_elapsed":308045,"internal_chunk_id":"0-0.7-0"},{"nsides":6,"instructions":"It is also possible to successively apply <img src=./images/hexagon_symbol.png style=width:14px;height:14px>, and the operation can simply be performed starting with the left-most pair. For example, 2 <img src=./images/hexagon_symbol.png style=width:14px;height:14px> 3 <img src=./images/hex agon_sym bol.png style=width:14px;height:14px> 4 = 5 <img src=./images/hexagon_symbol.png style=width:14px;height:14px> 4 = 3.","orientation_history":[0],"rt":28363,"trial_type":"polygon-arrow-instructions","trial_index":0,"trial_index_global":35,"time_elapsed":336408,"internal_chunk_id":"0-0"},{"nsides":6,"instructions":"We have one last definition to learn today, using the successive operations we just learned. Let's start with an example. Under our operation <img src=./images/hexagon_symbol.png style=width:14px;height:14px> we can make every other number using just 1: 2 = 1 <img src=./images/hexagon_symbol.png style=width:14px;height:14px> 1, 3 = 1 <img src=./images/hexagon_symbol.png style=width:14px;height:14px> 1 <img src=./images/hexagon_symbol.png style=width:14px;height:14px> 1, 4 = 1 <img src=./images/hexagon_symbol.png style=width:14px;height:14px> 1 <img src=./images/hexagon_symbol.png style=width:14px;height:14p x> 1 < img src=./images/hexagon_symbol.png style=width:14px;height:14px> 1, 5 = 1 <img src=./images/hexagon_symbol.png style=width:14px;height:14px> 1 <img src=./images/hexagon_symbol.png style=width:14px;height:14px> 1 <img src=./images/hexagon_symbol.png style=width:14px;height:14px> 1 <img src=./images/hexagon_symbol.png style=width:14px;height:14px> 1, and 0 = 1 <img src=./images/hexagon_symbol.png style=width:14px;height:14px> 1 <img src=./images/hexagon_symbol.png style=width:14px;height:14px> 1 <img src=./images/hexagon_symbol.png style=width:14px;height:14px> 1 <img src=./images/hexagon_symbol.png style=width:14px;height:14px> 1 <img src=./images/hexagon_symbol.png style=width:14px;height:14px> 1. Because 1 can make every other element under <img src=./images/hexagon_symbol.png style=width:14px;height:14px>, we say that 1 is a <i>generator</i> under <img src=./images/hexagon_symbol.png  style =width:14px;height:14px>. <br /><br /> However, 2 is not a generator under <img src=./images/hexagon_symbol.png style=width:14px;height:14px>, because 4 = 2 <img src=./images/hexagon_symbol.png style=width:14px;height:14px> 2, and 0 = 2 <img src=./images/hexagon_symbol.png style=width:14px;height:14px> 2 <img src=./images/hexagon_symbol.png style=width:14px;height:14px> 2, but there is no way to make 1, 3, or 5 using just 2.","orientation_history":[0],"rt":33361,"trial_type":"polygon-arrow-instructions","trial_index":0,"trial_index_global":36,"time_elapsed":369770,"internal_chunk_id":"0-0"},{"nsides":6,"question":"Now you try! Is 3 a generator under <img src=./images/hexagon_symbol.png style=width:14px;height:14px>? <br /><br /> (Remember, a generator is an element which can make every other element.)","response_type":"multi","response_choices":["Yes","No"],"correct_response":"No","response":"No","orientation_history":[[0]],"response_history":["No"],"rt":15701,"trial_type":"polygon-arrow-question","trial_index":0,"trial_index_global":37,"time_elapsed":385473,"internal_chunk_id":"0-0.10-0"},{"nsides":6,"feedback":"Correct! 3 is not a generator under <img src=./images/hexagon_symbol.png style=width:14px;height:14px>, because 3 = 3, 0 = 3 <img src=./images/hexagon_symbol.png style=width:14px;height:14px> 3, but there is no way to make 1, 2, 4, or 5 using just 3.","orientation_history":[0],"rt":4402,"trial_type":"polygon-arrow-feedback","trial_index":0,"trial_index_global":38,"time_elapsed":389875,"internal_chunk_id":"0-0.10-0"},{"nsides":6,"question":"Is 5 a generator under <img src=./images/hexagon_symbol.png style=width:14px;height:14px>? <br /><br /> (Remember, a generator is an element which can make every other element.)","response_type":"multi","response_choices":["Yes","No"],"correct_response":"Yes","response":"No","orientation_history":[[0]],"response_history":["No"],"rt":4627,"trial_type":"polygon-arrow-question","trial_index":0,"trial_index_global":39,"time_elapsed":394503,"internal_chunk_id":"0-0.10-0"},{"nsides":6,"feedback":"Sorry, that's incorrect. 5 is a generator under <img src=./images/hexagon_symbol.png style=width:14px;height:14px>, because 5 = 5, 4 = 5 <img src=./images/hexagon_symbol.png style=width:14px;height:14px> 5, 3 = 5 <img src=./images/hexagon_symbol.png style=width:14px;height:14px> 5 <img src=./images/hexagon_symbol.png style=width:14px;height:14px> 5, 2 = 5 <img src=./images/hexagon_symbol.png style=width:14px;height:14px> 5 <img src=./images/hexagon_symbol.png style=width:14px;height:14px> 5 <img src=./images/hexagon_symbol.png style=width:14px;height:14px> 5, 1 = 5 <img src=./images/hexagon_symbol.png style=width:14px;height:14px> 5 <img src=./images/hexagon_symbol.png style=width:14px;height:14px> 5 <img src=./images/hexagon_symbol.png style=width:14px;he ight:14p x> 5 <img src=./images/hexagon_symbol.png style=width:14px;height:14px> 5, and 0 = 5 <img src=./images/hexagon_symbol.png style=width:14px;height:14px> 5 <img src=./images/hexagon_symbol.png style=width:14px;height:14px> 5 <img src=./images/hexagon_symbol.png style=width:14px;height:14px> 5 <img src=./images/hexagon_symbol.png style=width:14px;height:14px> 5 <img src=./images/hexagon_symbol.png style=width:14px;height:14px> 5, so you can make all of the numbers under <img src=./images/hexagon_symbol.png style=width:14px;height:14px> using 5","orientation_history":[0],"rt":12162,"trial_type":"polygon-arrow-feedback","trial_index":0,"trial_index_global":40,"time_elapsed":406665,"internal_chunk_id":"0-0.10-0"},{"nsides":6,"question":"Is 4 a generator under <img src=./images/hexagon_symbol.png style=width:14px;height:14px>? <br /><br /> (Remember, a generator is an element which can make every other element.)","response_type":"multi","response_choices":["Yes","No"],"correct_response":"No","response":"Yes","orientation_history":[[0]],"response_history":["Yes"],"rt":5991,"trial_type":"polygon-arrow-question","trial_index":0,"trial_index_global":41,"time_elapsed":412657,"internal_chunk_id":"0-0.10-0"},{"nsides":6,"feedback":"Sorry, that's incorrect. 4 is not a generator under <img src=./images/hexagon_symbol.png style=width:14px;height:14px>, because 4 = 4, 2 = 4 <img src=./images/hexagon_symbol.png style=width:14px;height:14px> 4, and 0 = 4 <img src=./images/hexagon_symbol.png style=width:14px;height:14px> 4 <img src=./images/hexagon_symbol.png style=width:14px;height:14px> 4, but there is no way to make 1, 3, or 5 using just 4.","orientation_history":[0],"rt":2024,"trial_type":"polygon-arrow-feedback","trial_index":0,"trial_index_global":42,"time_elapsed":414683,"internal_chunk_id":"0-0.10-0"},{"nsides":6,"question":"Is 0 a generator under <img src=./images/h exagon_s ymbol.png style=width:14px;height:14px>? <br /><br /> (Remember, a generator is an element which can make every other element.)","response_type":"multi","response_choices":["Yes","No"],"correct_response":"No","response":"Yes","orientation_history":[[0]],"response_history":["Yes"],"rt":5034,"trial_type":"polygon-arrow-question","trial_index":0,"trial_index_global":43,"time_elapsed":419718,"internal_chunk_id":"0-0.10-0"},{"nsides":6,"feedback":"Sorry, that's incorrect. 0 is not a generator under <img src=./images/hexagon_symbol.png style=width:14px;height:14px>, because 0 = 0, but there is no way to make 1, 2, 3, 4, or 5 using just 0.","orientation_history":[0],"rt":2900,"trial_type":"polygon-arrow-feedback","trial_index":0,"trial_index_global":44,"time_elapsed":422619,"internal_chunk_id":"0-0.10-0"},{"nsides":9,"instructions":"Now we are going to ask you some questions about a new operation, <img src=./images/nonagon_symbol.png style=width:14px;height:14px >, on  the numbers 0, 1, 2, 3, 4, 5, 6, 7, 8. It works exactly like <img src=./images/hexagon_symbol.png style=width:14px;height:14px>, except now you use the nonagon shown at the right. Equivalently, after adding the two numbers you subtract 9 if your result is 9 or greater.<br /><br />Do you see how the different ways of performing <img src=./images/nonagon_symbol.png style=width:14px;height:14px> give the same result, just like with <img src=./images/hexagon_symbol.png style=width:14px;height:14px>? By labeling the points of the nonagon with the numbers from 0 to 8, we ensure that when we combine two numbers under <img src=./images/nonagon_symbol.png style=width:14px;height:14px>, we only produce numbers between 0 and 8. When we use the arithmetic strategy, adding the second number to the first mimics counting around the nonagon, and subtracting 9 each time we get above 8 makes sure the results correspond to the numbers on the points of the nonago n.<br /> <br />We'll give you one practice question with feedback to make sure you understand the new operation. After that, try to complete the remaining questions as accurately as possible.","orientation_history":[0],"rt":13038,"trial_type":"polygon-arrow-instructions","trial_index":0,"trial_index_global":45,"time_elapsed":435658,"internal_chunk_id":"0-0"},{"nsides":9,"question":"Practice: What is 5 <img src=./images/nonagon_symbol.png style=width:14px;height:14px> 5?","response_type":"free","response_choices":[],"correct_response":"1","response":"1","orientation_history":[[0]],"response_history":["1"],"rt":4457,"trial_type":"polygon-arrow-question","trial_index":0,"trial_index_global":46,"time_elapsed":440116,"internal_chunk_id":"0-0.12-0"},{"nsides":9,"feedback":"Correct! 5 <img src=./images/nonagon_symbol.png style=width:14px;height:14px> 5 = 1 because 5 steps clockwise on the nonagon from 5 brings us to 1. Equivalently, 5 + 5 = 10 and 10 - 9 = 1.","orientation_history":[0],"rt":1791,"trial_type":"polygon-arrow-feedback","trial_index":0,"trial_index_global":47,"time_elapsed":441908,"internal_chunk_id":"0-0.12-0"},{"nsides":9,"question":"What is 3 <img src=./images/nonagon_symbol.png style=width:14px;height:14px> 3?","response_type":"free","response_choices":[],"correct_response":"6","response":"6","orientation_history":[[0]],"response_history":["6"],"rt":3241,"trial_type":"polygon-arrow-question","trial_index":0,"trial_index_global":48,"time_elapsed":445150,"internal_chunk_id":"0-0.12-0"},{"nsides":9,"question":"What is 7 <img src=./images/nonagon_symbol.png style=width:14px;height:14px> 4?","response_type":"free","response_choices":[],"correct_response":"2","response":"2","orientation_history":[[0]],"response_history":["2"],"rt":2983,"trial_type":"polygon-arrow-question","trial_index":0,"trial_index_global":49,"time_elapsed":448134,"internal_chunk_id":"0-0.12-0"},{"nsides":9,"question":"What is 1 <img src=./images/nonagon _symbol. png style=width:14px;height:14px> 8?","response_type":"free","response_choices":[],"correct_response":"0","response":"0","orientation_history":[[0]],"response_history":["0"],"rt":5503,"trial_type":"polygon-arrow-question","trial_index":0,"trial_index_global":50,"time_elapsed":453638,"internal_chunk_id":"0-0.12-0"},{"nsides":9,"question":"What is 5 <img src=./images/nonagon_symbol.png style=width:14px;height:14px> 4?","response_type":"free","response_choices":[],"correct_response":"0","response":"0","orientation_history":[[0]],"response_history":["1","0"],"rt":8585,"trial_type":"polygon-arrow-question","trial_index":0,"trial_index_global":51,"time_elapsed":462224,"internal_chunk_id":"0-0.12-0"},{"nsides":9,"question":"What is 6 <img src=./images/nonagon_symbol.png style=width:14px;height:14px> 6?","response_type":"free","response_choices":[],"correct_response":"3","response":"3","orientation_history":[[0]],"response_history":["3"],"rt":3391,"trial_type":"polygon -arrow-question","trial_index":0,"trial_index_global":52,"time_elapsed":465617,"internal_chunk_id":"0-0.12-0"},{"nsides":9,"question":"What is 4 <img src=./images/nonagon_symbol.png style=width:14px;height:14px> 1? Please explain in words how you got your answer.","response_type":"free","response_choices":[],"correct_response":"","response":"4+1=5. 5<9 so the result is 9","orientation_history":[[0]],"response_history":["I added","I","4+1=5. 5<9 so the result is 9"],"rt":31150,"trial_type":"polygon-arrow-question","trial_index":0,"trial_index_global":53,"time_elapsed":496767,"internal_chunk_id":"0-0.12-0"},{"nsides":9,"question":"What is 8 <img src=./images/nonagon_symbol.png style=width:14px;height:14px> 4? Please explain in words how you got your answer.","response_type":"free","response_choices":[],"correct_response":"","response":"8+4=12, 12>9 so 12-9=3","orientation_history":[[0]],"response_history":["8+4=12, 12>9 so 12-9=3"],"rt":19658,"trial_type":"poly gon-arro w-question","trial_index":0,"trial_index_global":54,"time_elapsed":516426,"internal_chunk_id":"0-0.12-0"},{"nsides":9,"question":"What is the identity under <img src=./images/nonagon_symbol.png style=width:14px;height:14px>? Please explain in words how you got your answer.","response_type":"free","response_choices":[],"correct_response":"0","response":"0, 0 can result from every other number","orientation_history":[[0]],"response_history":["0, 0 can result from every other number"],"rt":20851,"trial_type":"polygon-arrow-question","trial_index":0,"trial_index_global":55,"time_elapsed":537278,"internal_chunk_id":"0-0.12-0"},{"nsides":9,"question":"What is the inverse of 5 under <img src=./images/nonagon_symbol.png style=width:14px;height:14px>?","response_type":"free","response_choices":[],"correct_response":"4","response":"5","orientation_history":[[0]],"response_history":["5"],"rt":26123,"trial_type":"polygon-arrow-question","trial_index":0,"trial_index_global":56,"time_elapsed":563402,"internal_chunk_id":"0-0.12-0"},{"nsides":9,"question":"What is the inverse of 2 under <img src=./images/nonagon_symbol.png style=width:14px;height:14px>?","response_type":"free","response_choices":[],"correct_response":"7","response":"7","orientation_history":[[0]],"response_history":["7"],"rt":10547,"trial_type":"polygon-arrow-question","trial_index":0,"trial_index_global":57,"time_elapsed":573950,"internal_chunk_id":"0-0.12-0"},{"nsides":9,"question":"What is the inverse of 0 under <img src=./images/nonagon_symbol.png style=width:14px;height:14px>?","response_type":"free","response_choices":[],"correct_response":"0","response":"0","orientation_history":[[0]],"response_history":["0"],"rt":3662,"trial_type":"polygon-arrow-question","trial_index":0,"trial_index_global":58,"time_elapsed":577612,"internal_chunk_id":"0-0.12-0"},{"nsides":9,"question":"What is the inverse of 3 under <img src=./images/nonagon_symbol.png style=width:14px;h eight:14 px>? Please explain in words how you got your answer.","response_type":"free","response_choices":[],"correct_response":"","response":"To get to 0 I would need to add 6 to 3","orientation_history":[[0]],"response_history":["To get to 0 I would need to add 6 to 3"],"rt":17120,"trial_type":"polygon-arrow-question","trial_index":0,"trial_index_global":59,"time_elapsed":594732,"internal_chunk_id":"0-0.12-0"},{"nsides":9,"question":"Is 2 a generator under <img src=./images/nonagon_symbol.png style=width:14px;height:14px>? Please explain in words how you got your answer.","response_type":"free","response_choices":[],"correct_response":"","response":"Yes, I can generate every number using 2","orientation_history":[[0]],"response_history":["Yes, I can generate every number using 2"],"rt":29658,"trial_type":"polygon-arrow-question","trial_index":0,"trial_index_global":60,"time_elapsed":624391,"internal_chunk_id":"0-0.12-0"},{"nsides":9,"question":"Is 3 a generator under <img  src=. /images/nonagon_symbol.png style=width:14px;height:14px>? Please explain in words how you got your answer.","response_type":"free","response_choices":[],"correct_response":"","response":"No, there isn't a way to get 1 using 3","orientation_history":[[0]],"response_history":["T","No, there isn't a way to get 1 using 3"],"rt":37099,"trial_type":"polygon-arrow-question","trial_index":0,"trial_index_global":61,"time_elapsed":661491,"internal_chunk_id":"0-0.12-0"},{"nsides":9,"question":"Is 5 a generator under <img src=./images/nonagon_symbol.png style=width:14px;height:14px>? Please explain in words how you got your answer.","response_type":"free","response_choices":[],"correct_response":"","response":"No, there is not a way to get 5 when starting with 5","orientation_history":[[0]],"response_history":["No","N","Yes, I can generate every nu","Yes,","Yes","Ye","Y","No, I","No, there is not a way to get 5 when strting with 5","No, there is not a way to get 5 when sta rting wi th 5"],"rt":71637,"trial_type":"polygon-arrow-question","trial_index":0,"trial_index_global":62,"time_elapsed":733130,"internal_chunk_id":"0-0.12-0"},{"nsides":9,"question":"Is 6 a generator under <img src=./images/nonagon_symbol.png style=width:14px;height:14px>? Please explain in words how you got your answer.","response_type":"free","response_choices":[],"correct_response":"","response":"Yes, I can get all other numbers from 6","orientation_history":[[0]],"response_history":["Yes, I can get all other numbers from 6"],"rt":62260,"trial_type":"polygon-arrow-question","trial_index":0,"trial_index_global":63,"time_elapsed":795391,"internal_chunk_id":"0-0.12-0"},{"nsides":"n","instructions":"Now we'd like to ask you some questions about <img src=./images/ngon_symbol.png style=width:14px;height:14px>, where n could be any postive counting number. For example, n could be 3, and the polygon a triangle, or n could be any other counting number you can think of, in w hich cas e the corresponding polygon would have n sides. Just as before, you can use either the polygon or arithmetic methods. If you need to write the operation, you can use (n), and your answers can include n to stand in for the arbitrary value if necessary. (You can use the polygon at the right to think, but it doesn't necessarily correspond to the real polygon, which is why we've left most of it dashed.)","orientation_history":[0],"rt":26316,"trial_type":"polygon-arrow-instructions","trial_index":0,"trial_index_global":64,"time_elapsed":821708,"internal_chunk_id":"0-0"},{"nsides":"n","question":"What is the formula for the inverse of 1 under <img src=./images/ngon_symbol.png style=width:14px;height:14px>?","response_type":"free","response_choices":[],"correct_response":"n-1","response":"1+n=n","orientation_history":[[0]],"response_history":["1=","1+n=n"],"rt":38674,"trial_type":"polygon-arrow-question","trial_index":0,"trial_index_global":65,"time_elapsed":860383,"internal_chunk_id":"0-0.14-0"},{"nsides":"n","question":"What is the formula for the inverse of an element x under <img src=./images/ngon_symbol.png style=width:14px;height:14px>? Please explain in words how you got your answer.","response_type":"free","response_choices":[],"correct_response":"n-x","response":"To get the inverse, you would need to add n-x to x. I think my previous answer was wrong. It should be 1+(n-1)","orientation_history":[[0]],"response_history":["To get the inves","To get the inverse, you would need to add n-x to x. I think my previous answer was wrong. It should be 1+(n-1)"],"rt":91197,"trial_type":"polygon-arrow-question","trial_index":0,"trial_index_global":66,"time_elapsed":951583,"internal_chunk_id":"0-0.14-0"},{"nsides":"n","question":"Is there a pattern to which elements are generators? How can you know if an element x is a generator under <img src=./images/ngon_symbol.png style=width:14px;height:14px> without seeing whether it can make all  the elem ents?.","response_type":"free","response_choices":[],"correct_response":"","response":"I think you need to know the value of N to know if it can ge a generator","orientation_history":[[0]],"response_history":["I think you need to know the value of N to know if it can ge a generator"],"rt":34217,"trial_type":"polygon-arrow-question","trial_index":0,"trial_index_global":67,"time_elapsed":985801,"internal_chunk_id":"0-0.14-0"},{"nsides":"n","question":"True or false: If x is an odd number, it must be a generator under <img src=./images/ngon_symbol.png style=width:14px;height:14px>.","response_type":"multi","response_choices":["True","False"],"correct_response":"False","response":"False","orientation_history":[[0]],"response_history":["False"],"rt":6767,"trial_type":"polygon-arrow-question","trial_index":0,"trial_index_global":68,"time_elapsed":992569,"internal_chunk_id":"0-0.14-0"},{"nsides":"n","question":"True or false: If x is an even number, it must not be a generat or under  <img src=./images/ngon_symbol.png style=width:14px;height:14px>.","response_type":"multi","response_choices":["True","False"],"correct_response":"False","response":"False","orientation_history":[[0]],"response_history":["False"],"rt":5535,"trial_type":"polygon-arrow-question","trial_index":0,"trial_index_global":69,"time_elapsed":998105,"internal_chunk_id":"0-0.14-0"},{"nsides":"n","question":"True or false: If x is not a generator under <img src=./images/ngon_symbol.png style=width:14px;height:14px>, x must be a divisor of n, that is, x must divide n evenly, with no remainder.","response_type":"multi","response_choices":["True","False"],"correct_response":"False","response":"True","orientation_history":[[0]],"response_history":["True"],"rt":6523,"trial_type":"polygon-arrow-question","trial_index":0,"trial_index_global":70,"time_elapsed":1004629,"internal_chunk_id":"0-0.14-0"},{"nsides":"n","question":"True or false: If x is not a generator under <img src= ./images /ngon_symbol.png style=width:14px;height:14px>, x must be a multiple of a divisor of n. Please explain in words why your answer is correct.","response_type":"free","response_choices":[],"correct_response":"True","response":"I'm not totally positive but I think x must be a multiple of n in order to reach every point on the polygon.","orientation_history":[[0]],"response_history":["I'm not totally clear ","I'm not totally clear","I'm not totally clea","I'm not totally cle","I'm not totally cl","I'm not totally c","I'm not totally positive but I think x must be a multiple of n in order to reach every point on the polygon."],"rt":41676,"trial_type":"polygon-arrow-question","trial_index":0,"trial_index_global":71,"time_elapsed":1046307,"internal_chunk_id":"0-0.14-0"},{"nsides":"n","question":"If an element x is a generator under <img src=./images/ngon_symbol.png style=width:14px;height:14px>, is its inverse a generator under <img src=./images/ngon_symbol.png sty le=wid th:14px;height:14px> always, sometimes, or never?","response_type":"multi","response_choices":["Always","Sometimes","Never"],"correct_response":"Always","response":"Always","orientation_history":[[0]],"response_history":["Sometimes","Always"],"rt":15185,"trial_type":"polygon-arrow-question","trial_index":0,"trial_index_global":72,"time_elapsed":1061493,"internal_chunk_id":"0-0.14-0"},{"nsides":"n","question":"if an element x is a generator under <img src=./images/ngon_symbol.png style=width:14px;height:14px>, is x <img src=./images/ngon_symbol.png style=width:14px;height:14px> x a generator under <img src=./images/ngon_symbol.png style=width:14px;height:14px> always, sometimes, or never? Please explain in words why your answer is correct.","response_type":"free","response_choices":[],"correct_response":"sometimes","response":"If x is a generator, it must be able to generate every number which would include itself.","orientation_history":[[0]],"response_history":["If x is a generator, it must be able to generate every number which would include intself.","If x is a generator, it must be able to generate every number which would include itself."],"rt":23846,"trial_type":"polygon-arrow-question","trial_index":0,"trial_index_global":73,"time_elapsed":1085339,"internal_chunk_id":"0-0.14-0"},{"nsides":"n","question":"If an element x is not a generator under <img src=./images/ngon_symbol.png style=width:14px;height:14px>, is x <img src=./images/ngon_symbol.png style=width:14px;height:14px> x a generator under <img src=./images/ngon_symbol.png style=width:14px;height:14px> always, sometimes, or never?","response_type":"multi","response_choices":["Always","Sometimes","Never"],"correct_response":"Never","response":"Never","orientation_history":[[0]],"response_history":["Never"],"rt":44436,"trial_type":"polygon-arrow-question","trial_index":0,"trial_index_global":74,"time_elapsed":1129776,"internal_chunk_id":"0-0. 14-0"},{"instructions":"We would like to ask you some questions about your background. Please press Continue to continue.","rt":1586,"trial_type":"instructions","trial_index":0,"trial_index_global":75,"time_elapsed":1131363,"internal_chunk_id":"0-0.15-0"},{"question":"What is your age?","response_type":"free","response_choices":[],"correct_response":"","response":"33","response_history":["33"],"rt":2751,"trial_type":"question","trial_index":0,"trial_index_global":76,"time_elapsed":1134115,"internal_chunk_id":"0-0.15-0"},{"question":"What is your level of education?","response_type":"multi","response_choices":["Did not graduate high school","High school diploma","Some college, no degree","Associates Degree","Bachelors Degree","Some graduate school, no degree","Masters Degree","Doctorate, M.D., etc."],"correct_response":"","response":"Masters Degree","response_history":["Masters Degree"],"rt":2811,"trial_type":"question","trial_index":0,"trial_index_global":77,"time_elapsed":1136927,"internal_chunk_id":"0-0.15-0"},{"question":"What is the most advanced math class you've completed? If you have multiple classes and you're not sure which one is most advanced, please list them.","response_type":"free","response_choices":[],"correct_response":"","response":"My most advanced classical math is Algebra 3 / Trig in high school. I took 2 classes of statistics in undergrad as well as accounting and finance classes in both college and grad school.","response_history":["My most advanced math is Algebra 3 / Trig in high school. ","My most advanced cmath is Algebra 3 / Trig in high school. ","My most advanced clamath is Algebra 3 / Trig in high school. ","My most advanced clasmath is Algebra 3 / Trig in high school. ","My most advanced classmath is Algebra 3 / Trig in high school. ","My most advanced classicmath is Algebra 3 / Trig in high school. ","My most advanced classicalmath is Algebra 3 / Trig in high school. ","My most advanced classical math is Algebra 3 / Trig in  high sc hool. I took 2 classes of statistics in undergrad as well as accounting and finance classes in both college and grad school."],"rt":77348,"trial_type":"question","trial_index":0,"trial_index_global":78,"time_elapsed":1214277,"internal_chunk_id":"0-0.15-0"},{"question":"How familiar are you with the concept of modular arithmetic?","response_type":"multi","response_choices":["1 - never heard of it","2 - heard of it but didn't know what it was","3 - seen it used or explained","4 - used it but not often or recently","5 - used it, remember and understand it"],"correct_response":"1","response":"2 - heard of it but didn't know what it was","response_history":["2 - heard of it but didn't know what it was"],"rt":4536,"trial_type":"question","trial_index":0,"trial_index_global":79,"time_elapsed":1218813,"internal_chunk_id":"0-0.15-0"},{"question":"How familiar are you with the concept of a mathematical group?","response_type":"multi","response_choices":["1 - never heard of it","2 - he ard of i t but didn't know what it was","3 - seen it used or explained","4 - used it but not often or recently","5 - used it, remember and understand it"],"correct_response":"1","response":"1 - never heard of it","response_history":["2 - heard of it but didn't know what it was","1 - never heard of it"],"rt":5829,"trial_type":"question","trial_index":0,"trial_index_global":80,"time_elapsed":1224643,"internal_chunk_id":"0-0.15-0"},{"question":"Do you feel you learned something from this HIT?","response_type":"multi","response_choices":["1 - not at all","2 - somewhat","3 - definitely"],"correct_response":"1","response":"3 - definitely","response_history":["3 - definitely"],"rt":3321,"trial_type":"question","trial_index":0,"trial_index_global":81,"time_elapsed":1227965,"internal_chunk_id":"0-0.15-0"},{"question":"Do you feel you understood the concepts in this HIT?","response_type":"multi","response_choices":["1 - not at all","2 - somewhat","3 - definitely"],"correct_response":"1","response":"2  - somewhat","response_history":["2 - somewhat"],"rt":2561,"trial_type":"question","trial_index":0,"trial_index_global":82,"time_elapsed":1230527,"internal_chunk_id":"0-0.15-0"},{"question":"Did you enjoy this HIT?","response_type":"multi","response_choices":["1 - not at all","2 - somewhat","3 - definitely"],"correct_response":"1","response":"3 - definitely","response_history":["3 - definitely"],"rt":1955,"trial_type":"question","trial_index":0,"trial_index_global":83,"time_elapsed":1232483,"internal_chunk_id":"0-0.15-0"},{"question":"What is your gender?","response_type":"multi","response_choices":["Female","Male","Other"],"correct_response":"","response":"Male","response_history":["Male"],"rt":4833,"trial_type":"question","trial_index":0,"trial_index_global":84,"time_elapsed":1237317,"internal_chunk_id":"0-0.15-0"},{"question":"What is/are your native language(s)? (The languages spoken in your household when you were a child.)","response_type":"free","response_choices":[],"correct_response":"","response":"English","response_history":["English"],"rt":5213,"trial_type":"question","trial_index":0,"trial_index_global":85,"time_elapsed":1242531,"internal_chunk_id":"0-0.15-0"},{"question":"Did you use pen and paper at any point on this HIT?","response_type":"free","response_choices":[],"correct_response":"","response":"No","response_history":["No"],"rt":7211,"trial_type":"question","trial_index":0,"trial_index_global":86,"time_elapsed":1249743,"internal_chunk_id":"0-0.15-0"},{"question":"Do you have any comments on this HIT?","response_type":"free","response_choices":[],"correct_response":"","response":"Fun and well designed study, even though I don't believe I performed well","response_history":["Fun and well designed study, even though I performed poorly","Fun and well designed study, even though I p","Fun and well designed study, even though I ","Fun and well designed study, even though I don't believe I performed well"],"rt":36681,"trial_type":"question ","trial_index":0,"trial_index_global":87,"time_elapsed":1286425,"internal_chunk_id":"0-0.15-0"}]