[{"nsides":6,"instructions":"Let's define a new operation <img src=./images/hexagon_symbol.png style=width:14px;height:14px>. This operation will give us a way of combining two of the numbers 0, 1, 2, 3, 4, 5 to get another one of them back. Consider the hexagon at the right, where I've labeled each point with one of the numbers. To perform <img src=./images/hexagon_symbol.png style=width:14px;height:14px>, you can use the interactive diagram on the right, or perform the operation in your mind. Point the arrow at the first number on the hexagon by clicking, then click (or click and drag) to move the arrow the second number of points clockwise around the hexagon. The number the arrow arrives at is your result. (The operation is called <img src=./images/hexagon_symbol.png style=width:14px;height:14px> because it uses the hexagon, which has 6 sides.) <br /><br />For example, 3 <img src=./images/hexagon_symbol.png style=width:14px;height:14px> 5 =  2, becau se 5 steps clockwise from 3 on the hexagon brings us to 2. So 3 <img src=./images/hexagon_symbol.png style=width:14px;height:14px> 5 = 2.<br /><br />Similarly, 1 <img src=./images/hexagon_symbol.png style=width:14px;height:14px> 4 = 5, because 4 steps clockwise from 1 brings us to 5. <br /><br />Click Continue when you're ready to move on.","orientation_history":[0],"rt":21895,"trial_type":"polygon-arrow-instructions","trial_index":0,"trial_index_global":1,"time_elapsed":30188,"internal_chunk_id":"0-0"},{"nsides":6,"instructions":"Do you see how <img src=./images/hexagon_symbol.png style=width:14px;height:14px> works? By labeling the points of the hexagon with the numbers from 0 to 5, we ensure that when we combine two numbers under <img src=./images/hexagon_symbol.png style=width:14px;height:14px>, we only produce numbers between 0 and 5.<br /><br />Click Continue when you are ready to move on.","orientation_history":[0],"rt":7633,"trial_type":"polygon-arrow-instructions","trial_index":0,"trial_index_global":2,"time_elapsed":37825,"internal_chunk_id":"0-0"},{"nsides":6,"question":"Now try one on your own! What is 4 <img src=./images/hexagon_symbol.png style=width:14px;height:14px> 5? <br /><br /> (Remember, to perform <img src=./images/hexagon_symbol.png style=width:14px;height:14px>, you can use the interactive diagram on the right, or perform the operation in your mind. Point the arrow at the first number on the hexagon, then move the arrow the second number of points clockwise around the hexagon. The number the arrow arrives at is your result.)","response_type":"free","response_choices":[],"correct_response":"3","response":"3","orientation_history":[[0]],"response_history":["3"],"rt":26659,"trial_type":"polygon-arrow-question","trial_index":0,"trial_index_global":3,"time_elapsed":64490,"internal_chunk_id":"0-0.3-0"},{"nsides":6,"feedback":"Correct! 4 <img src=./images/hexagon_symbol.png st yle=wi dth:14px;height:14px> 5 = 3 because 5 steps clockwise on the hexagon from 4 brings us to 3","orientation_history":[0],"rt":2042,"trial_type":"polygon-arrow-feedback","trial_index":0,"trial_index_global":4,"time_elapsed":66538,"internal_chunk_id":"0-0.3-0"},{"nsides":6,"question":"What is 3 <img src=./images/hexagon_symbol.png style=width:14px;height:14px> 2? <br /><br /> (Remember, to perform <img src=./images/hexagon_symbol.png style=width:14px;height:14px>, you can use the interactive diagram on the right, or perform the operation in your mind. Point the arrow at the first number on the hexagon, then move the arrow the second number of points clockwise around the hexagon. The number the arrow arrives at is your result.)","response_type":"free","response_choices":[],"correct_response":"5","response":"5","orientation_history":[[0]],"response_history":["5"],"rt":6654,"trial_type":"polygon-arrow-question","trial_index":0,"trial_index_global":5,"time_elapsed":73193,"internal_chunk_id":"0-0.3-0"},{"nsides":6,"feedback":"Correct! 3 <img src=./images/hexagon_symbol.png style=width:14px;height:14px> 2 = 5 because 2 steps clockwise on the hexagon from 3 brings us to 5","orientation_history":[0],"rt":1405,"trial_type":"polygon-arrow-feedback","trial_index":0,"trial_index_global":6,"time_elapsed":74601,"internal_chunk_id":"0-0.3-0"},{"nsides":6,"question":"What is 1 <img src=./images/hexagon_symbol.png style=width:14px;height:14px> 5? <br /><br /> (Remember, to perform <img src=./images/hexagon_symbol.png style=width:14px;height:14px>, you can use the interactive diagram on the right, or perform the operation in your mind. Point the arrow at the first number on the hexagon, then move the arrow the second number of points clockwise around the hexagon. The number the arrow arrives at is your result.)","response_type":"free","response_choices":[],"correct_response":"0","response":"0","orientation_history":[[0]],"response_history":["0"],"rt":8374,"trial_type":"polygon-arrow-question","trial_index":0,"trial_index_global":7,"time_elapsed":82977,"internal_chunk_id":"0-0.3-0"},{"nsides":6,"feedback":"Correct! 1 <img src=./images/hexagon_symbol.png style=width:14px;height:14px> 5 = 0 because 5 steps clockwise on the hexagon from 1 brings us to 0","orientation_history":[0],"rt":2230,"trial_type":"polygon-arrow-feedback","trial_index":0,"trial_index_global":8,"time_elapsed":85209,"internal_chunk_id":"0-0.3-0"},{"nsides":6,"question":"What is 1 <img src=./images/hexagon_symbol.png style=width:14px;height:14px> 1? <br /><br /> (Remember, to perform <img src=./images/hexagon_symbol.png style=width:14px;height:14px>, you can use the interactive diagram on the right, or perform the operation in your mind. Point the arrow at the first number on the hexagon, then move the arrow the second number of points clockwise around the hexagon. The number the arrow arrives at is your result.)","response_type":"free","response_choices":[],"correct_response":"2","response":"2","orientation_history":[[0]],"response_history":["2"],"rt":7294,"trial_type":"polygon-arrow-question","trial_index":0,"trial_index_global":9,"time_elapsed":92505,"internal_chunk_id":"0-0.3-0"},{"nsides":6,"feedback":"Correct! 1 <img src=./images/hexagon_symbol.png style=width:14px;height:14px> 1 = 2 because 1 step clockwise on the hexagon from 1 brings us to 2","orientation_history":[0],"rt":1446,"trial_type":"polygon-arrow-feedback","trial_index":0,"trial_index_global":10,"time_elapsed":93954,"internal_chunk_id":"0-0.3-0"},{"nsides":6,"question":"What is 3 <img src=./images/hexagon_symbol.png style=width:14px;height:14px> 0? <br /><br /> (Remember, to perform <img src=./images/hexagon_symbol.png style=width:14px;height:14px>, you can use the interactive diagram on the right, or perform the operation in your mind. Point the arrow at the first number on the hexagon, then move the arrow t he secon d number of points clockwise around the hexagon. The number the arrow arrives at is your result.)","response_type":"free","response_choices":[],"correct_response":"3","response":"3","orientation_history":[[0]],"response_history":["33","3"],"rt":5564,"trial_type":"polygon-arrow-question","trial_index":0,"trial_index_global":11,"time_elapsed":99521,"internal_chunk_id":"0-0.3-0"},{"nsides":6,"feedback":"Correct! 3 <img src=./images/hexagon_symbol.png style=width:14px;height:14px> 0 = 3 because 0 steps clockwise on the hexagon from 3 brings us to 3","orientation_history":[0],"rt":1598,"trial_type":"polygon-arrow-feedback","trial_index":0,"trial_index_global":12,"time_elapsed":101121,"internal_chunk_id":"0-0.3-0"},{"nsides":6,"question":"What is 4 <img src=./images/hexagon_symbol.png style=width:14px;height:14px> 4? <br /><br /> (Remember, to perform <img src=./images/hexagon_symbol.png style=width:14px;height:14px>, you can use the interactive diagram on  the righ t, or perform the operation in your mind. Point the arrow at the first number on the hexagon, then move the arrow the second number of points clockwise around the hexagon. The number the arrow arrives at is your result.)","response_type":"free","response_choices":[],"correct_response":"2","response":"2","orientation_history":[[0]],"response_history":["2"],"rt":5230,"trial_type":"polygon-arrow-question","trial_index":0,"trial_index_global":13,"time_elapsed":106353,"internal_chunk_id":"0-0.3-0"},{"nsides":6,"feedback":"Correct! 4 <img src=./images/hexagon_symbol.png style=width:14px;height:14px> 4 = 2 because 4 steps clockwise on the hexagon from 4 brings us to 2","orientation_history":[0],"rt":1814,"trial_type":"polygon-arrow-feedback","trial_index":0,"trial_index_global":14,"time_elapsed":108169,"internal_chunk_id":"0-0.3-0"},{"nsides":6,"question":"What is 1 <img src=./images/hexagon_symbol.png style=width:14px;height:14px> 3? <br /><br /> (Remember, to perf orm <img  src=./images/hexagon_symbol.png style=width:14px;height:14px>, you can use the interactive diagram on the right, or perform the operation in your mind. Point the arrow at the first number on the hexagon, then move the arrow the second number of points clockwise around the hexagon. The number the arrow arrives at is your result.)","response_type":"free","response_choices":[],"correct_response":"4","response":"4","orientation_history":[[0]],"response_history":["4"],"rt":6167,"trial_type":"polygon-arrow-question","trial_index":0,"trial_index_global":15,"time_elapsed":114337,"internal_chunk_id":"0-0.3-0"},{"nsides":6,"feedback":"Correct! 1 <img src=./images/hexagon_symbol.png style=width:14px;height:14px> 3 = 4 because 3 steps clockwise on the hexagon from 1 brings us to 4","orientation_history":[0],"rt":1334,"trial_type":"polygon-arrow-feedback","trial_index":0,"trial_index_global":16,"time_elapsed":115673,"internal_chunk_id":"0-0.3-0"},{"nsides":6,"question":" What is  4 <img src=./images/hexagon_symbol.png style=width:14px;height:14px> 3? <br /><br /> (Remember, to perform <img src=./images/hexagon_symbol.png style=width:14px;height:14px>, you can use the interactive diagram on the right, or perform the operation in your mind. Point the arrow at the first number on the hexagon, then move the arrow the second number of points clockwise around the hexagon. The number the arrow arrives at is your result.)","response_type":"free","response_choices":[],"correct_response":"1","response":"1","orientation_history":[[0]],"response_history":["1"],"rt":4975,"trial_type":"polygon-arrow-question","trial_index":0,"trial_index_global":17,"time_elapsed":120649,"internal_chunk_id":"0-0.3-0"},{"nsides":6,"feedback":"Correct! 4 <img src=./images/hexagon_symbol.png style=width:14px;height:14px> 3 = 1 because 3 steps clockwise on the hexagon from 4 brings us to 1","orientation_history":[0],"rt":1134,"trial_type":"polygon-arrow-feedback ","trial_index":0,"trial_index_global":18,"time_elapsed":121786,"internal_chunk_id":"0-0.3-0"},{"nsides":6,"question":"What is 0 <img src=./images/hexagon_symbol.png style=width:14px;height:14px> 5? <br /><br /> (Remember, to perform <img src=./images/hexagon_symbol.png style=width:14px;height:14px>, you can use the interactive diagram on the right, or perform the operation in your mind. Point the arrow at the first number on the hexagon, then move the arrow the second number of points clockwise around the hexagon. The number the arrow arrives at is your result.)","response_type":"free","response_choices":[],"correct_response":"5","response":"5","orientation_history":[[0]],"response_history":["5"],"rt":6869,"trial_type":"polygon-arrow-question","trial_index":0,"trial_index_global":19,"time_elapsed":128657,"internal_chunk_id":"0-0.3-0"},{"nsides":6,"feedback":"Correct! 0 <img src=./images/hexagon_symbol.png style=width:14px;height:14px> 5 = 5 because 5 steps c lockwise  on the hexagon from 0 brings us to 5","orientation_history":[0],"rt":1325,"trial_type":"polygon-arrow-feedback","trial_index":0,"trial_index_global":20,"time_elapsed":129985,"internal_chunk_id":"0-0.3-0"},{"nsides":6,"question":"What is 2 <img src=./images/hexagon_symbol.png style=width:14px;height:14px> 5? <br /><br /> (Remember, to perform <img src=./images/hexagon_symbol.png style=width:14px;height:14px>, you can use the interactive diagram on the right, or perform the operation in your mind. Point the arrow at the first number on the hexagon, then move the arrow the second number of points clockwise around the hexagon. The number the arrow arrives at is your result.)","response_type":"free","response_choices":[],"correct_response":"1","response":"1","orientation_history":[[0]],"response_history":["1"],"rt":6239,"trial_type":"polygon-arrow-question","trial_index":0,"trial_index_global":21,"time_elapsed":136225,"internal_chunk_id":"0-0.3-0"},{"nsides":6,"feedback":"Correct! 2 <img src=./images/hexagon_symbol.png style=width:14px;height:14px> 5 = 1 because 5 steps clockwise on the hexagon from 2 brings us to 1","orientation_history":[0],"rt":1446,"trial_type":"polygon-arrow-feedback","trial_index":0,"trial_index_global":22,"time_elapsed":137673,"internal_chunk_id":"0-0.3-0"},{"nsides":6,"instructions":"Now we're going to discuss a couple special properties of this new operation, <img src=./images/hexagon_symbol.png style=width:14px;height:14px> that we've learned. First, notice that the number 0 behaves in a special way under <img src=./images/hexagon_symbol.png style=width:14px;height:14px>. Whenever we combine 0 with anything else, we get that same thing back. We'll say that 0 is the <i>identity</i> under <img src=./images/hexagon_symbol.png style=width:14px;height:14px>, because when you combine it with something it gives you that identical thing back.","orientation_history":[0],"rt":13355,"trial_type":"poly gon-arrow-instructions","trial_index":0,"trial_index_global":23,"time_elapsed":151033,"internal_chunk_id":"0-0"},{"nsides":6,"instructions":"Now that we know 0 is the identity under <img src=./images/hexagon_symbol.png style=width:14px;height:14px>, we're going to make a new definition. We'll say that the <i>inverse</i> of a number is the element that you combine with it to produce the identity under our operation. For example, 5 <img src=./images/hexagon_symbol.png style=width:14px;height:14px> 1 = 0, so we say 1 is the inverse of 5 under <img src=./images/hexagon_symbol.png style=width:14px;height:14px>, (remember 0 is the identity under <img src=./images/hexagon_symbol.png style=width:14px;height:14px>). Similarly, 3 is its own inverse under <img src=./images/hexagon_symbol.png style=width:14px;height:14px>, because 3 <img src=./images/hexagon_symbol.png style=width:14px;height:14px> 3 = 0.","orientation_history":[0],"rt":23214,"trial_type":"polygon-arrow-instructions","trial_index":0,"trial_index_global":24,"time_elapsed":174249,"internal_chunk_id":"0-0"},{"nsides":6,"question":"Now you try! What is the inverse of 4 under <img src=./images/hexagon_symbol.png style=width:14px;height:14px>? <br /><br /> (Remember, the inverse of an element is the thing which you combine with it to produce the identity.)","response_type":"free","response_choices":[],"correct_response":"2","response":"6","orientation_history":[[0]],"response_history":["6"],"rt":25006,"trial_type":"polygon-arrow-question","trial_index":0,"trial_index_global":25,"time_elapsed":199256,"internal_chunk_id":"0-0.7-0"},{"nsides":6,"feedback":"Sorry, that was incorrect. The inverse of 4 under <img src=./images/hexagon_symbol.png style=width:14px;height:14px> is 2 because 4 <img src=./images/hexagon_symbol.png style=width:14px;height:14px> 2 = 0, and 0 is the identity under <img src=./images/hexagon_symbol.png style=w idth:14p x;height:14px>.","orientation_history":[0],"rt":5030,"trial_type":"polygon-arrow-feedback","trial_index":0,"trial_index_global":26,"time_elapsed":204288,"internal_chunk_id":"0-0.7-0"},{"nsides":6,"question":"What is the inverse of 1 under <img src=./images/hexagon_symbol.png style=width:14px;height:14px>? <br /><br /> (Remember, the inverse of an element is the thing which you combine with it to produce the identity.)","response_type":"free","response_choices":[],"correct_response":"5","response":"5","orientation_history":[[0]],"response_history":["5"],"rt":5814,"trial_type":"polygon-arrow-question","trial_index":0,"trial_index_global":27,"time_elapsed":210104,"internal_chunk_id":"0-0.7-0"},{"nsides":6,"feedback":"Correct! The inverse of 1 under <img src=./images/hexagon_symbol.png style=width:14px;height:14px> is 5 because 1 <img src=./images/hexagon_symbol.png style=width:14px;height:14px> 5 = 0, and 0 is the identity under <img src=./images/hex agon_sym bol.png style=width:14px;height:14px>.","orientation_history":[0],"rt":1413,"trial_type":"polygon-arrow-feedback","trial_index":0,"trial_index_global":28,"time_elapsed":211520,"internal_chunk_id":"0-0.7-0"},{"nsides":6,"question":"What is the inverse of 3 under <img src=./images/hexagon_symbol.png style=width:14px;height:14px>? <br /><br /> (Remember, the inverse of an element is the thing which you combine with it to produce the identity.)","response_type":"free","response_choices":[],"correct_response":"3","response":"3","orientation_history":[[0]],"response_history":["3"],"rt":3990,"trial_type":"polygon-arrow-question","trial_index":0,"trial_index_global":29,"time_elapsed":215512,"internal_chunk_id":"0-0.7-0"},{"nsides":6,"feedback":"Correct! The inverse of 3 under <img src=./images/hexagon_symbol.png style=width:14px;height:14px> is 3 because 3 <img src=./images/hexagon_symbol.png style=width:14px;height:14px> 3 = 0, and 0 is the identity un der <img  src=./images/hexagon_symbol.png style=width:14px;height:14px>.","orientation_history":[0],"rt":1198,"trial_type":"polygon-arrow-feedback","trial_index":0,"trial_index_global":30,"time_elapsed":216712,"internal_chunk_id":"0-0.7-0"},{"nsides":6,"question":"What is the inverse of 2 under <img src=./images/hexagon_symbol.png style=width:14px;height:14px>? <br /><br /> (Remember, the inverse of an element is the thing which you combine with it to produce the identity.)","response_type":"free","response_choices":[],"correct_response":"4","response":"4","orientation_history":[[0]],"response_history":["4"],"rt":5038,"trial_type":"polygon-arrow-question","trial_index":0,"trial_index_global":31,"time_elapsed":221752,"internal_chunk_id":"0-0.7-0"},{"nsides":6,"feedback":"Correct! The inverse of 2 under <img src=./images/hexagon_symbol.png style=width:14px;height:14px> is 4 because 2 <img src=./images/hexagon_symbol.png style=width:14px;height:14px> 4 =  0, and 0  is the identity under <img src=./images/hexagon_symbol.png style=width:14px;height:14px>.","orientation_history":[0],"rt":1310,"trial_type":"polygon-arrow-feedback","trial_index":0,"trial_index_global":32,"time_elapsed":223064,"internal_chunk_id":"0-0.7-0"},{"nsides":6,"question":"What is the inverse of 0 under <img src=./images/hexagon_symbol.png style=width:14px;height:14px>? <br /><br /> (Remember, the inverse of an element is the thing which you combine with it to produce the identity.)","response_type":"free","response_choices":[],"correct_response":"0","response":"0","orientation_history":[[0]],"response_history":["0"],"rt":8294,"trial_type":"polygon-arrow-question","trial_index":0,"trial_index_global":33,"time_elapsed":231360,"internal_chunk_id":"0-0.7-0"},{"nsides":6,"feedback":"Correct! The inverse of 0 under <img src=./images/hexagon_symbol.png style=width:14px;height:14px> is 0 because 0 <img src=./images/hexagon_symbol.png style=wid th:14px; height:14px> 0 = 0, and 0 is the identity under <img src=./images/hexagon_symbol.png style=width:14px;height:14px>.","orientation_history":[0],"rt":1230,"trial_type":"polygon-arrow-feedback","trial_index":0,"trial_index_global":34,"time_elapsed":232592,"internal_chunk_id":"0-0.7-0"},{"instructions":"It is also possible to successively apply <img src=./images/hexagon_symbol.png style=width:14px;height:14px>, and the operation can simply be performed starting with the left-most pair. For example, 2 <img src=./images/hexagon_symbol.png style=width:14px;height:14px> 3 <img src=./images/hexagon_symbol.png style=width:14px;height:14px> 4 = 5 <img src=./images/hexagon_symbol.png style=width:14px;height:14px> 4 = 3.","rt":9527,"trial_type":"instructions","trial_index":0,"trial_index_global":35,"time_elapsed":242121,"internal_chunk_id":"0-0"},{"nsides":6,"instructions":"We have one last definition to learn today. Let's start with an example.  Under ou r operation <img src=./images/hexagon_symbol.png style=width:14px;height:14px> we can make every other number using just 1: 2 = 1 <img src=./images/hexagon_symbol.png style=width:14px;height:14px> 1, 3 = 1 <img src=./images/hexagon_symbol.png style=width:14px;height:14px> 1 <img src=./images/hexagon_symbol.png style=width:14px;height:14px> 1, 4 = 1 <img src=./images/hexagon_symbol.png style=width:14px;height:14px> 1 <img src=./images/hexagon_symbol.png style=width:14px;height:14px> 1 <img src=./images/hexagon_symbol.png style=width:14px;height:14px> 1, 5 = 1 <img src=./images/hexagon_symbol.png style=width:14px;height:14px> 1 <img src=./images/hexagon_symbol.png style=width:14px;height:14px> 1 <img src=./images/hexagon_symbol.png style=width:14px;height:14px> 1 <img src=./images/hexagon_symbol.png style=width:14px;height:14px> 1, and 0 = 1 <img src=./images/hexagon_symbol.png style= width:14 px;height:14px> 1 <img src=./images/hexagon_symbol.png style=width:14px;height:14px> 1 <img src=./images/hexagon_symbol.png style=width:14px;height:14px> 1 <img src=./images/hexagon_symbol.png style=width:14px;height:14px> 1 <img src=./images/hexagon_symbol.png style=width:14px;height:14px> 1. Because 1 can make every other element under <img src=./images/hexagon_symbol.png style=width:14px;height:14px>, we say that 1 is a <i>generator</i> under <img src=./images/hexagon_symbol.png style=width:14px;height:14px>. <br /><br /> However, 2 is not a generator under <img src=./images/hexagon_symbol.png style=width:14px;height:14px>, because 4 = 2 <img src=./images/hexagon_symbol.png style=width:14px;height:14px> 2, and 0 = 2 <img src=./images/hexagon_symbol.png style=width:14px;height:14px> 2 <img src=./images/hexagon_symbol.png style=width:14px;height:14px> 2, but there is no way to make 1, 3, or 5  using ju st 2.","orientation_history":[0],"rt":25029,"trial_type":"polygon-arrow-instructions","trial_index":0,"trial_index_global":36,"time_elapsed":267152,"internal_chunk_id":"0-0"},{"nsides":6,"question":"Now you try! Is 3 a generator under <img src=./images/hexagon_symbol.png style=width:14px;height:14px>? <br /><br /> (Remember, a generator is an element which can make every other element.)","response_type":"multi","response_choices":["Yes","No"],"correct_response":"No","response":"Yes","orientation_history":[[0]],"response_history":["Yes"],"rt":8949,"trial_type":"polygon-arrow-question","trial_index":0,"trial_index_global":37,"time_elapsed":276104,"internal_chunk_id":"0-0.10-0"},{"nsides":6,"feedback":"Sorry, that's incorrect. 3 is not a generator under <img src=./images/hexagon_symbol.png style=width:14px;height:14px>, because 3 = 3, 0 = 3 <img src=./images/hexagon_symbol.png style=width:14px;height:14px> 3, but there is no way to make 1, 2, 4, or 5 usi ng just  3.","orientation_history":[0],"rt":7844,"trial_type":"polygon-arrow-feedback","trial_index":0,"trial_index_global":38,"time_elapsed":283952,"internal_chunk_id":"0-0.10-0"},{"nsides":6,"question":"Is 5 a generator under <img src=./images/hexagon_symbol.png style=width:14px;height:14px>? <br /><br /> (Remember, a generator is an element which can make every other element.)","response_type":"multi","response_choices":["Yes","No"],"correct_response":"Yes","response":"No","orientation_history":[[0]],"response_history":["No"],"rt":4118,"trial_type":"polygon-arrow-question","trial_index":0,"trial_index_global":39,"time_elapsed":288072,"internal_chunk_id":"0-0.10-0"},{"nsides":6,"feedback":"Sorry, that's incorrect. 5 is a generator under <img src=./images/hexagon_symbol.png style=width:14px;height:14px>, because 5 = 5, 4 = 5 <img src=./images/hexagon_symbol.png style=width:14px;height:14px> 5, 3 = 5 <img src=./images/hexagon_symbol.png style=width:14px; height:1 4px> 5 <img src=./images/hexagon_symbol.png style=width:14px;height:14px> 5, 2 = 5 <img src=./images/hexagon_symbol.png style=width:14px;height:14px> 5 <img src=./images/hexagon_symbol.png style=width:14px;height:14px> 5 <img src=./images/hexagon_symbol.png style=width:14px;height:14px> 5, 1 = 5 <img src=./images/hexagon_symbol.png style=width:14px;height:14px> 5 <img src=./images/hexagon_symbol.png style=width:14px;height:14px> 5 <img src=./images/hexagon_symbol.png style=width:14px;height:14px> 5 <img src=./images/hexagon_symbol.png style=width:14px;height:14px> 5, and 0 = 5 <img src=./images/hexagon_symbol.png style=width:14px;height:14px> 5 <img src=./images/hexagon_symbol.png style=width:14px;height:14px> 5 <img src=./images/hexagon_symbol.png style=width:14px;height:14px> 5 <img src=./images/hexagon_symbol.png style=width:14px;height:14px> 5 <img src=./images/hexagon_sym bol.png style=width:14px;height:14px> 5, so you can make all of the numbers under <img src=./images/hexagon_symbol.png style=width:14px;height:14px> using 5","orientation_history":[0],"rt":1894,"trial_type":"polygon-arrow-feedback","trial_index":0,"trial_index_global":40,"time_elapsed":289968,"internal_chunk_id":"0-0.10-0"},{"nsides":6,"question":"Is 4 a generator under <img src=./images/hexagon_symbol.png style=width:14px;height:14px>? <br /><br /> (Remember, a generator is an element which can make every other element.)","response_type":"multi","response_choices":["Yes","No"],"correct_response":"No","response":"No","orientation_history":[[0]],"response_history":["No"],"rt":3014,"trial_type":"polygon-arrow-question","trial_index":0,"trial_index_global":41,"time_elapsed":292984,"internal_chunk_id":"0-0.10-0"},{"nsides":6,"feedback":"Correct! 4 is not a generator under <img src=./images/hexagon_symbol.png style=width:14px;height:14px>, because 4 = 4, 2 =  4 <img  src=./images/hexagon_symbol.png style=width:14px;height:14px> 4, and 0 = 4 <img src=./images/hexagon_symbol.png style=width:14px;height:14px> 4 <img src=./images/hexagon_symbol.png style=width:14px;height:14px> 4, but there is no way to make 1, 3, or 5 using just 4.","orientation_history":[0],"rt":1054,"trial_type":"polygon-arrow-feedback","trial_index":0,"trial_index_global":42,"time_elapsed":294040,"internal_chunk_id":"0-0.10-0"},{"nsides":6,"question":"Is 0 a generator under <img src=./images/hexagon_symbol.png style=width:14px;height:14px>? <br /><br /> (Remember, a generator is an element which can make every other element.)","response_type":"multi","response_choices":["Yes","No"],"correct_response":"No","response":"No","orientation_history":[[0]],"response_history":["No"],"rt":5127,"trial_type":"polygon-arrow-question","trial_index":0,"trial_index_global":43,"time_elapsed":299168,"internal_chunk_id":"0-0.10-0"},{"nsides":6,"feedback":"Co rrect! 0  is not a generator under <img src=./images/hexagon_symbol.png style=width:14px;height:14px>, because 0 = 0, but there is no way to make 1, 2, 3, 4, or 5 using just 0.","orientation_history":[0],"rt":1238,"trial_type":"polygon-arrow-feedback","trial_index":0,"trial_index_global":44,"time_elapsed":300408,"internal_chunk_id":"0-0.10-0"},{"nsides":9,"instructions":"Now we are going to ask you some questions about a new operation, <img src=./images/nonagon_symbol.png style=width:14px;height:14px>, on the numbers 0, 1, 2, 3, 4, 5, 6, 7, 8. It works exactly like <img src=./images/hexagon_symbol.png style=width:14px;height:14px>, except now you use the nonagon shown at the right. <br /><br />Do you see how <img src=./images/nonagon_symbol.png style=width:14px;height:14px> works just like <img src=./images/hexagon_symbol.png style=width:14px;height:14px>? By labeling the points of the nonagon with the numbers from 0 to 8, we ensure that when w e combin e two numbers under <img src=./images/nonagon_symbol.png style=width:14px;height:14px>, we only produce numbers between 0 and 8. <br /><br />We'll give you one practice question with feedback to make sure you understand the new operation. After that, try to complete the remaining questions as accurately as possible.","orientation_history":[0],"rt":14192,"trial_type":"polygon-arrow-instructions","trial_index":0,"trial_index_global":45,"time_elapsed":314601,"internal_chunk_id":"0-0"},{"nsides":9,"question":"Practice: What is 5 <img src=./images/nonagon_symbol.png style=width:14px;height:14px> 5?","response_type":"free","response_choices":[],"correct_response":"1","response":"1","orientation_history":[[0]],"response_history":["1"],"rt":10700,"trial_type":"polygon-arrow-question","trial_index":0,"trial_index_global":46,"time_elapsed":325304,"internal_chunk_id":"0-0.12-0"},{"nsides":9,"feedback":"Correct! 5 <img src=./images/nonagon_symbol.png style=width:14 px;heigh t:14px> 5 = 1 because 5 steps clockwise on the nonagon from 5 brings us to 1","orientation_history":[0],"rt":2030,"trial_type":"polygon-arrow-feedback","trial_index":0,"trial_index_global":47,"time_elapsed":327336,"internal_chunk_id":"0-0.12-0"},{"nsides":9,"question":"What is 3 <img src=./images/nonagon_symbol.png style=width:14px;height:14px> 3?","response_type":"free","response_choices":[],"correct_response":"6","response":"6","orientation_history":[[0]],"response_history":["6"],"rt":4589,"trial_type":"polygon-arrow-question","trial_index":0,"trial_index_global":48,"time_elapsed":331928,"internal_chunk_id":"0-0.12-0"},{"nsides":9,"question":"What is 7 <img src=./images/nonagon_symbol.png style=width:14px;height:14px> 4?","response_type":"free","response_choices":[],"correct_response":"2","response":"2","orientation_history":[[0]],"response_history":["2"],"rt":6103,"trial_type":"polygon-arrow-question","trial_index":0,"trial_index_global":49,"time_elapsed":338032,"internal_chunk_id":"0-0.12-0"},{"nsides":9,"question":"What is 1 <img src=./images/nonagon_symbol.png style=width:14px;height:14px> 8?","response_type":"free","response_choices":[],"correct_response":"0","response":"0","orientation_history":[[0]],"response_history":["0"],"rt":7558,"trial_type":"polygon-arrow-question","trial_index":0,"trial_index_global":50,"time_elapsed":345592,"internal_chunk_id":"0-0.12-0"},{"nsides":9,"question":"What is 5 <img src=./images/nonagon_symbol.png style=width:14px;height:14px> 4?","response_type":"free","response_choices":[],"correct_response":"0","response":"0","orientation_history":[[0]],"response_history":["0"],"rt":5063,"trial_type":"polygon-arrow-question","trial_index":0,"trial_index_global":51,"time_elapsed":350656,"internal_chunk_id":"0-0.12-0"},{"nsides":9,"question":"What is 6 <img src=./images/nonagon_symbol.png style=width:14px;height:14px> 6?","response_type":"free","response_choices":[],"correct_response":"3","response":"3","orientation_history":[[0]],"response_history":["3"],"rt":5879,"trial_type":"polygon-arrow-question","trial_index":0,"trial_index_global":52,"time_elapsed":356536,"internal_chunk_id":"0-0.12-0"},{"nsides":9,"question":"What is 4 <img src=./images/nonagon_symbol.png style=width:14px;height:14px> 1? Please explain in words how you got your answer.","response_type":"free","response_choices":[],"correct_response":"","response":"5, by going clockwise one spot from 4","orientation_history":[[0]],"response_history":["5, by co","5, by c","5, by going clockwise one spot from 4"],"rt":18694,"trial_type":"polygon-arrow-question","trial_index":0,"trial_index_global":53,"time_elapsed":375232,"internal_chunk_id":"0-0.12-0"},{"nsides":9,"question":"What is 8 <img src=./images/nonagon_symbol.png style=width:14px;height:14px> 4? Please explain in words how you got your answer.","response_type":"free","response_choices":[],"correct_response":"","response":"3, by  going cl ockwise 4 spots from 8","orientation_history":[[0]],"response_history":["3, but ","3, but","3, bu","3, by c","3, by gon","3, by going clco","3, by going clc","3, by going clockwise 4 spots from 8"],"rt":21275,"trial_type":"polygon-arrow-question","trial_index":0,"trial_index_global":54,"time_elapsed":396508,"internal_chunk_id":"0-0.12-0"},{"nsides":9,"question":"What is the identity under <img src=./images/nonagon_symbol.png style=width:14px;height:14px>? Please explain in words how you got your answer.","response_type":"free","response_choices":[],"correct_response":"0","response":"0, because that is the starting point.","orientation_history":[[0]],"response_history":["0, because that is the starting point."],"rt":11681,"trial_type":"polygon-arrow-question","trial_index":0,"trial_index_global":55,"time_elapsed":408192,"internal_chunk_id":"0-0.12-0"},{"nsides":9,"question":"What is the inverse of 5 under <img src=./images/nonagon_symbol.png style=width:14px;hei ght:14px >?","response_type":"free","response_choices":[],"correct_response":"4","response":"4, because that will return to the starting point","orientation_history":[[0]],"response_history":["4, becus","4, becu","4, because that will return to hte ","4, because that will return to hte","4, because that will return to ht","4, because that will return to h","4, because that will return to the starting point"],"rt":21175,"trial_type":"polygon-arrow-question","trial_index":0,"trial_index_global":56,"time_elapsed":429369,"internal_chunk_id":"0-0.12-0"},{"nsides":9,"question":"What is the inverse of 2 under <img src=./images/nonagon_symbol.png style=width:14px;height:14px>?","response_type":"free","response_choices":[],"correct_response":"7","response":"7, because that will return to the starting point.","orientation_history":[[0]],"response_history":["8","6","7, because that will return to the starting point."],"rt":16070,"trial_type":"polygon-arrow-question","trial_index":0,"trial_index_global":57,"time_elapsed":445441,"internal_chunk_id":"0-0.12-0"},{"nsides":9,"question":"What is the inverse of 0 under <img src=./images/nonagon_symbol.png style=width:14px;height:14px>?","response_type":"free","response_choices":[],"correct_response":"0","response":"0, because that will return to the starting point.","orientation_history":[[0]],"response_history":["0, because that will return to the starting point."],"rt":10113,"trial_type":"polygon-arrow-question","trial_index":0,"trial_index_global":58,"time_elapsed":455555,"internal_chunk_id":"0-0.12-0"},{"nsides":9,"question":"What is the inverse of 3 under <img src=./images/nonagon_symbol.png style=width:14px;height:14px>? Please explain in words how you got your answer.","response_type":"free","response_choices":[],"correct_response":"","response":"5, because that will be the on the opposite of the circle.","orientation_history":[[0]],"response_history":["a","6 ","6, ","6,","6","5, because that wil l be the  o","5, because that will be the ","5, because that will be the on ","5, because that will be the one","5, because that will be the on the opposite of the s","5, because that will be the on the opposite of the cirl","5, because that will be the on the opposite of the circle."],"rt":36916,"trial_type":"polygon-arrow-question","trial_index":0,"trial_index_global":59,"time_elapsed":492473,"internal_chunk_id":"0-0.12-0"},{"nsides":9,"question":"Is 2 a generator under <img src=./images/nonagon_symbol.png style=width:14px;height:14px>? Please explain in words how you got your answer.","response_type":"free","response_choices":[],"correct_response":"","response":"No, because it won't match all number destinations.","orientation_history":[[0]],"response_history":["no","n","No, because it won't match all n","No, because it won't match all number desit","No, because it won't match all number desi","No, because it won't match all number destinations."],"rt":17525,"trial_type":" polygon- arrow-question","trial_index":0,"trial_index_global":60,"time_elapsed":510000,"internal_chunk_id":"0-0.12-0"},{"nsides":9,"question":"Is 3 a generator under <img src=./images/nonagon_symbol.png style=width:14px;height:14px>? Please explain in words how you got your answer.","response_type":"free","response_choices":[],"correct_response":"","response":"yes, because there is a match for all numbers","orientation_history":[[0]],"response_history":["3","yes, because there is a match for all numbers"],"rt":9336,"trial_type":"polygon-arrow-question","trial_index":0,"trial_index_global":61,"time_elapsed":519338,"internal_chunk_id":"0-0.12-0"},{"nsides":9,"question":"Is 5 a generator under <img src=./images/nonagon_symbol.png style=width:14px;height:14px>? Please explain in words how you got your answer.","response_type":"free","response_choices":[],"correct_response":"","response":"no, because there is not a match for all numbers.","orientation_history":[[0]],"response_history":["no, because there is not a match for all numbers."],"rt":8761,"trial_type":"polygon-arrow-question","trial_index":0,"trial_index_global":62,"time_elapsed":528100,"internal_chunk_id":"0-0.12-0"},{"nsides":9,"question":"Is 6 a generator under <img src=./images/nonagon_symbol.png style=width:14px;height:14px>? Please explain in words how you got your answer.","response_type":"free","response_choices":[],"correct_response":"","response":"no, because there is not a match for all numbers.","orientation_history":[[0]],"response_history":["no, bu","no, because there is not a match for all numbers."],"rt":9245,"trial_type":"polygon-arrow-question","trial_index":0,"trial_index_global":63,"time_elapsed":537347,"internal_chunk_id":"0-0.12-0"},{"nsides":"n","instructions":"Now we'd like to ask you some questions about <img src=./images/ngon_symbol.png style=width:14px;height:14px>, where n could be any positive counting number. For example, n could be 3, and the po lygon a  triangle, or n could be any other counting number you can think of. If you need to write the operation, you can use (n), and your answers can include n to stand in for the arbitrary value if necessary. (You can use the polygon at the right to think, but it doesn't necessarily correspond to the real polygon, which is why we've left most of it dashed.)","orientation_history":[0],"rt":12107,"trial_type":"polygon-arrow-instructions","trial_index":0,"trial_index_global":64,"time_elapsed":549455,"internal_chunk_id":"0-0"},{"nsides":"n","question":"What is the formula for the inverse of 1 under <img src=./images/ngon_symbol.png style=width:14px;height:14px>?","response_type":"free","response_choices":[],"correct_response":"n-1","response":"2-n","orientation_history":[[0]],"response_history":["2-n"],"rt":9647,"trial_type":"polygon-arrow-question","trial_index":0,"trial_index_global":65,"time_elapsed":559104,"internal_chunk_id":"0-0.14-0"},{"nsides":"n","question":"What i s the fo rmula for the inverse of an element x under <img src=./images/ngon_symbol.png style=width:14px;height:14px>? Please explain in words why your answer is correct.","response_type":"free","response_choices":[],"correct_response":"n-x","response":"x - 2.  Because that will return the spot to zero.","orientation_history":[[0]],"response_history":["x - 2.  Because that will return to ","x - 2.  Because that will return to","x - 2.  Because that will return t","x - 2.  Because that will return the spot to 2","x - 2.  Because that will return the spot to zero."],"rt":16970,"trial_type":"polygon-arrow-question","trial_index":0,"trial_index_global":66,"time_elapsed":576077,"internal_chunk_id":"0-0.14-0"},{"nsides":"n","question":"Is there a pattern to which elements are generators? How can you know if an element x is a generator under <img src=./images/ngon_symbol.png style=width:14px;height:14px> without seeing whether it can make all the elements?.","response_type":" free","response_choices":[],"correct_response":"","response":"No, I don't think there is a pattern.","orientation_history":[[0]],"response_history":["I don't think ","No, I don't think there is a pattern."],"rt":17054,"trial_type":"polygon-arrow-question","trial_index":0,"trial_index_global":67,"time_elapsed":593133,"internal_chunk_id":"0-0.14-0"},{"nsides":"n","question":"True or false: If x is an odd number, it must be a generator under <img src=./images/ngon_symbol.png style=width:14px;height:14px>.","response_type":"multi","response_choices":["True","False"],"correct_response":"False","response":"False","orientation_history":[[0]],"response_history":["False"],"rt":4951,"trial_type":"polygon-arrow-question","trial_index":0,"trial_index_global":68,"time_elapsed":598088,"internal_chunk_id":"0-0.14-0"},{"nsides":"n","question":"True or false: If x is an even number, it must not be a generator under <img src=./images/ngon_symbol.png style=width:14px;height:14px>.","response_type":"multi","response_choices":["True","False"],"correct_response":"False","response":"False","orientation_history":[[0]],"response_history":["False"],"rt":4223,"trial_type":"polygon-arrow-question","trial_index":0,"trial_index_global":69,"time_elapsed":602312,"internal_chunk_id":"0-0.14-0"},{"nsides":"n","question":"True or false: If x is not a generator under <img src=./images/ngon_symbol.png style=width:14px;height:14px>, x must be a divisor of n, that is, x must divide n evenly, with no remainder.","response_type":"multi","response_choices":["True","False"],"correct_response":"False","response":"False","orientation_history":[[0]],"response_history":["False"],"rt":7366,"trial_type":"polygon-arrow-question","trial_index":0,"trial_index_global":70,"time_elapsed":609679,"internal_chunk_id":"0-0.14-0"},{"nsides":"n","question":"True or false: If x is not a generator under <img src=./images/ngon_symbol.png style=width:14px;height:14px>, x must be a multiple of  a divis or of n. Please explain in words why your answer is correct.","response_type":"free","response_choices":[],"correct_response":"True","response":"Because the rule will not hold true in all circumstances.","orientation_history":[[0]],"response_history":["Because the rule will not hold true in all cer","Because the rule will not hold true in all ce","Because the rule will not hold true in all circumstances."],"rt":23646,"trial_type":"polygon-arrow-question","trial_index":0,"trial_index_global":71,"time_elapsed":633328,"internal_chunk_id":"0-0.14-0"},{"nsides":"n","question":"If an element x is a generator under <img src=./images/ngon_symbol.png style=width:14px;height:14px>, is its inverse a generator under <img src=./images/ngon_symbol.png style=width:14px;height:14px> always, sometimes, or never?","response_type":"multi","response_choices":["Always","Sometimes","Never"],"correct_response":"Always","response":"Sometimes","orientation_history":[[0]],"response_history":["Sometimes"],"rt":5484,"trial_type":"polygon-arrow-question","trial_index":0,"trial_index_global":72,"time_elapsed":638815,"internal_chunk_id":"0-0.14-0"},{"nsides":"n","question":"If an element x is a generator under <img src=./images/ngon_symbol.png style=width:14px;height:14px>, is x <img src=./images/ngon_symbol.png style=width:14px;height:14px> x a generator under <img src=./images/ngon_symbol.png style=width:14px;height:14px> always, sometimes, or never? Please explain in words why your answer is correct.","response_type":"free","response_choices":[],"correct_response":"Sometimes","response":"Sometimes, because it will not match the proper number in all cases.","orientation_history":[[0]],"response_history":["Becauser ","Becauser","Because som","Because so","Because s","Because ","Because","Sometimes, because it will not match the proper no","Sometimes, because it will not match the proper number in all cases."],"rt":23029,"trial_type":"polygon- arrow-qu estion","trial_index":0,"trial_index_global":73,"time_elapsed":661847,"internal_chunk_id":"0-0.14-0"},{"nsides":"n","question":"If an element x is not a generator under <img src=./images/ngon_symbol.png style=width:14px;height:14px>, is x <img src=./images/ngon_symbol.png style=width:14px;height:14px> x a generator under <img src=./images/ngon_symbol.png style=width:14px;height:14px> always, sometimes, or never?","response_type":"multi","response_choices":["Always","Sometimes","Never"],"correct_response":"Never","response":"Sometimes","orientation_history":[[0]],"response_history":["Sometimes"],"rt":5766,"trial_type":"polygon-arrow-question","trial_index":0,"trial_index_global":74,"time_elapsed":667615,"internal_chunk_id":"0-0.14-0"},{"instructions":"We would like to ask you some questions about your background. Please press Continue to continue.","rt":1806,"trial_type":"instructions","trial_index":0,"trial_index_global":75,"time_elapsed":669423,"internal_chunk_id":"0-0.15-0"},{"question":"What is your age?","response_type":"free","response_choices":[],"correct_response":"","response":"46","response_history":["46"],"rt":8062,"trial_type":"question","trial_index":0,"trial_index_global":76,"time_elapsed":677488,"internal_chunk_id":"0-0.15-0"},{"question":"What is your level of education?","response_type":"multi","response_choices":["Did not graduate high school","High school diploma","Some college, no degree","Associates Degree","Bachelors Degree","Some graduate school, no degree","Masters Degree","Doctorate, M.D., etc."],"correct_response":"","response":"Some college, no degree","response_history":["Some college, no degree"],"rt":3397,"trial_type":"question","trial_index":0,"trial_index_global":77,"time_elapsed":680887,"internal_chunk_id":"0-0.15-0"},{"question":"What is the most advanced math class you've completed? If you have multiple classes and you're not sure which one is most advanced, please list them.","response_type":"free","response_choices":[],"correct_response":"","response":"Calculus","response_history":["Calculus"],"rt":8582,"trial_type":"question","trial_index":0,"trial_index_global":78,"time_elapsed":689471,"internal_chunk_id":"0-0.15-0"},{"question":"How familiar are you with the concept of modular arithmetic?","response_type":"multi","response_choices":["1 - never heard of it","2 - heard of it but didn't know what it was","3 - seen it used or explained","4 - used it but not often or recently","5 - used it, remember and understand it"],"correct_response":"1","response":"1 - never heard of it","response_history":["1 - never heard of it"],"rt":5406,"trial_type":"question","trial_index":0,"trial_index_global":79,"time_elapsed":694879,"internal_chunk_id":"0-0.15-0"},{"question":"How familiar are you with the concept of a mathematical group?","response_type":"multi","response_choices":["1 - never heard of it","2 - heard of it but didn't know what it was","3 - seen it used or explained","4 -  used it  but not often or recently","5 - used it, remember and understand it"],"correct_response":"1","response":"1 - never heard of it","response_history":["1 - never heard of it"],"rt":3718,"trial_type":"question","trial_index":0,"trial_index_global":80,"time_elapsed":698599,"internal_chunk_id":"0-0.15-0"},{"question":"Do you feel you learned something from this HIT?","response_type":"multi","response_choices":["1 - not at all","2 - somewhat","3 - definitely"],"correct_response":"1","response":"2 - somewhat","response_history":["2 - somewhat"],"rt":4006,"trial_type":"question","trial_index":0,"trial_index_global":81,"time_elapsed":702607,"internal_chunk_id":"0-0.15-0"},{"question":"Do you feel you understood the concepts in this HIT?","response_type":"multi","response_choices":["1 - not at all","2 - somewhat","3 - definitely"],"correct_response":"1","response":"2 - somewhat","response_history":["2 - somewhat"],"rt":2678,"trial_type":"question","trial_index":0,"trial_index_global":82,"time_elapsed":705287,"internal_chunk_id":"0-0.15-0"},{"question":"Did you enjoy this HIT?","response_type":"multi","response_choices":["1 - not at all","2 - somewhat","3 - definitely"],"correct_response":"1","response":"2 - somewhat","response_history":["2 - somewhat"],"rt":2534,"trial_type":"question","trial_index":0,"trial_index_global":83,"time_elapsed":707823,"internal_chunk_id":"0-0.15-0"},{"question":"What is your gender?","response_type":"multi","response_choices":["Female","Male","Other"],"correct_response":"","response":"Male","response_history":["Male"],"rt":3238,"trial_type":"question","trial_index":0,"trial_index_global":84,"time_elapsed":711063,"internal_chunk_id":"0-0.15-0"},{"question":"What is/are your native language(s)? (The languages spoken in your household when you were a child.)","response_type":"free","response_choices":[],"correct_response":"","response":"English.","response_history":["English."],"rt":7278,"trial_type":"question","trial_index":0,"trial_index_global":85,"time_elapsed":718343,"internal_chunk_id":"0-0.15-0"},{"question":"Did you use pen and paper at any point on this HIT?","response_type":"free","response_choices":[],"correct_response":"","response":"No.","response_history":["No."],"rt":5654,"trial_type":"question","trial_index":0,"trial_index_global":86,"time_elapsed":723999,"internal_chunk_id":"0-0.15-0"},{"question":"Do you have any comments on this HIT?","response_type":"free","response_choices":[],"correct_response":"","response":"This study was interesting.","response_history":["This study was interesting."],"rt":8382,"trial_type":"question","trial_index":0,"trial_index_global":87,"time_elapsed":732383,"internal_chunk_id":"0-0.15-0"}]