[{"nsides":6,"instructions":"Let's define a new operation <img src=./images/hexagon_symbol.png style=width:14px;height:14px>. This operation will give us a way of combining two of the numbers 0, 1, 2, 3, 4, 5 to get another one of them back. Consider the hexagon at the right, where I've labeled each point with one of the numbers. To perform <img src=./images/hexagon_symbol.png style=width:14px;height:14px>, you can use the interactive diagram on the right, or perform the operation in your mind. Point the arrow at the first number on the hexagon by clicking, then click (or click and drag) to move the arrow the second number of points clockwise around the hexagon. The number the arrow arrives at is your result. (The operation is called <img src=./images/hexagon_symbol.png style=width:14px;height:14px> because it uses the hexagon, which has 6 sides.) <br /><br />For example, 3 <img src=./images/hexagon_symbol.png style=width:14px;height:14px> 5 =  2, becau se 5 steps clockwise from 3 on the hexagon brings us to 2. So 3 <img src=./images/hexagon_symbol.png style=width:14px;height:14px> 5 = 2.<br /><br />Similarly, 1 <img src=./images/hexagon_symbol.png style=width:14px;height:14px> 4 = 5, because 4 steps clockwise from 1 brings us to 5. <br /><br />Click Continue when you're ready to move on.","orientation_history":[0],"rt":118021,"trial_type":"polygon-arrow-instructions","trial_index":0,"trial_index_global":1,"time_elapsed":521733,"internal_chunk_id":"0-0"},{"nsides":6,"instructions":"Do you see how <img src=./images/hexagon_symbol.png style=width:14px;height:14px> works? By labeling the points of the hexagon with the numbers from 0 to 5, we ensure that when we combine two numbers under <img src=./images/hexagon_symbol.png style=width:14px;height:14px>, we only produce numbers between 0 and 5.<br /><br />Click Continue when you are ready to move on.","orientation_history":[0],"rt":11908,"trial_type":"polygon-arrow-instructions","trial_index":0,"trial_index_global":2,"time_elapsed":533648,"internal_chunk_id":"0-0"},{"nsides":6,"question":"Now try one on your own! What is 4 <img src=./images/hexagon_symbol.png style=width:14px;height:14px> 5? <br /><br /> (Remember, to perform <img src=./images/hexagon_symbol.png style=width:14px;height:14px>, you can use the interactive diagram on the right, or perform the operation in your mind. Point the arrow at the first number on the hexagon, then move the arrow the second number of points clockwise around the hexagon. The number the arrow arrives at is your result.)","response_type":"free","response_choices":[],"correct_response":"3","response":"3","orientation_history":[[0]],"response_history":["3"],"rt":17833,"trial_type":"polygon-arrow-question","trial_index":0,"trial_index_global":3,"time_elapsed":551487,"internal_chunk_id":"0-0.3-0"},{"nsides":6,"feedback":"Correct! 4 <img src=./images/hexagon_symbol.png  style =width:14px;height:14px> 5 = 3 because 5 steps clockwise on the hexagon from 4 brings us to 3","orientation_history":[0],"rt":3611,"trial_type":"polygon-arrow-feedback","trial_index":0,"trial_index_global":4,"time_elapsed":555103,"internal_chunk_id":"0-0.3-0"},{"nsides":6,"question":"What is 3 <img src=./images/hexagon_symbol.png style=width:14px;height:14px> 2? <br /><br /> (Remember, to perform <img src=./images/hexagon_symbol.png style=width:14px;height:14px>, you can use the interactive diagram on the right, or perform the operation in your mind. Point the arrow at the first number on the hexagon, then move the arrow the second number of points clockwise around the hexagon. The number the arrow arrives at is your result.)","response_type":"free","response_choices":[],"correct_response":"5","response":"5","orientation_history":[[0]],"response_history":["5"],"rt":7830,"trial_type":"polygon-arrow-question","trial_index":0,"trial_index_global":5,"time_elapsed":562937,"internal_chunk_id":"0-0.3-0"},{"nsides":6,"feedback":"Correct! 3 <img src=./images/hexagon_symbol.png style=width:14px;height:14px> 2 = 5 because 2 steps clockwise on the hexagon from 3 brings us to 5","orientation_history":[0],"rt":1323,"trial_type":"polygon-arrow-feedback","trial_index":0,"trial_index_global":6,"time_elapsed":564263,"internal_chunk_id":"0-0.3-0"},{"nsides":6,"question":"What is 1 <img src=./images/hexagon_symbol.png style=width:14px;height:14px> 5? <br /><br /> (Remember, to perform <img src=./images/hexagon_symbol.png style=width:14px;height:14px>, you can use the interactive diagram on the right, or perform the operation in your mind. Point the arrow at the first number on the hexagon, then move the arrow the second number of points clockwise around the hexagon. The number the arrow arrives at is your result.)","response_type":"free","response_choices":[],"correct_response":"0","response":"0","orientation_history":[[0]],"response_history":["0"],"rt":14414,"trial_type":"polygon-arrow-question","trial_index":0,"trial_index_global":7,"time_elapsed":578679,"internal_chunk_id":"0-0.3-0"},{"nsides":6,"feedback":"Correct! 1 <img src=./images/hexagon_symbol.png style=width:14px;height:14px> 5 = 0 because 5 steps clockwise on the hexagon from 1 brings us to 0","orientation_history":[0],"rt":892,"trial_type":"polygon-arrow-feedback","trial_index":0,"trial_index_global":8,"time_elapsed":579575,"internal_chunk_id":"0-0.3-0"},{"nsides":6,"question":"What is 1 <img src=./images/hexagon_symbol.png style=width:14px;height:14px> 1? <br /><br /> (Remember, to perform <img src=./images/hexagon_symbol.png style=width:14px;height:14px>, you can use the interactive diagram on the right, or perform the operation in your mind. Point the arrow at the first number on the hexagon, then move the arrow the second number of points clockwise around the hexagon. The number the arrow arrives at is your result.) ","response_type":"free","response_choices":[],"correct_response":"2","response":"2","orientation_history":[[0]],"response_history":["2"],"rt":2767,"trial_type":"polygon-arrow-question","trial_index":0,"trial_index_global":9,"time_elapsed":582343,"internal_chunk_id":"0-0.3-0"},{"nsides":6,"feedback":"Correct! 1 <img src=./images/hexagon_symbol.png style=width:14px;height:14px> 1 = 2 because 1 step clockwise on the hexagon from 1 brings us to 2","orientation_history":[0],"rt":1565,"trial_type":"polygon-arrow-feedback","trial_index":0,"trial_index_global":10,"time_elapsed":583910,"internal_chunk_id":"0-0.3-0"},{"nsides":6,"question":"What is 3 <img src=./images/hexagon_symbol.png style=width:14px;height:14px> 0? <br /><br /> (Remember, to perform <img src=./images/hexagon_symbol.png style=width:14px;height:14px>, you can use the interactive diagram on the right, or perform the operation in your mind. Point the arrow at the first number on the hexagon, then move  the arr ow the second number of points clockwise around the hexagon. The number the arrow arrives at is your result.)","response_type":"free","response_choices":[],"correct_response":"3","response":"3","orientation_history":[[0]],"response_history":["3"],"rt":4430,"trial_type":"polygon-arrow-question","trial_index":0,"trial_index_global":11,"time_elapsed":588343,"internal_chunk_id":"0-0.3-0"},{"nsides":6,"feedback":"Correct! 3 <img src=./images/hexagon_symbol.png style=width:14px;height:14px> 0 = 3 because 0 steps clockwise on the hexagon from 3 brings us to 3","orientation_history":[0],"rt":878,"trial_type":"polygon-arrow-feedback","trial_index":0,"trial_index_global":12,"time_elapsed":589222,"internal_chunk_id":"0-0.3-0"},{"nsides":6,"question":"What is 4 <img src=./images/hexagon_symbol.png style=width:14px;height:14px> 4? <br /><br /> (Remember, to perform <img src=./images/hexagon_symbol.png style=width:14px;height:14px>, you can use the interactive diag ram on t he right, or perform the operation in your mind. Point the arrow at the first number on the hexagon, then move the arrow the second number of points clockwise around the hexagon. The number the arrow arrives at is your result.)","response_type":"free","response_choices":[],"correct_response":"2","response":"2","orientation_history":[[0]],"response_history":["2"],"rt":5063,"trial_type":"polygon-arrow-question","trial_index":0,"trial_index_global":13,"time_elapsed":594287,"internal_chunk_id":"0-0.3-0"},{"nsides":6,"feedback":"Correct! 4 <img src=./images/hexagon_symbol.png style=width:14px;height:14px> 4 = 2 because 4 steps clockwise on the hexagon from 4 brings us to 2","orientation_history":[0],"rt":1758,"trial_type":"polygon-arrow-feedback","trial_index":0,"trial_index_global":14,"time_elapsed":596047,"internal_chunk_id":"0-0.3-0"},{"nsides":6,"question":"What is 1 <img src=./images/hexagon_symbol.png style=width:14px;height:14px> 3? <br /><br /> (Remember,  to perfo rm <img src=./images/hexagon_symbol.png style=width:14px;height:14px>, you can use the interactive diagram on the right, or perform the operation in your mind. Point the arrow at the first number on the hexagon, then move the arrow the second number of points clockwise around the hexagon. The number the arrow arrives at is your result.)","response_type":"free","response_choices":[],"correct_response":"4","response":"4","orientation_history":[[0]],"response_history":["4"],"rt":5094,"trial_type":"polygon-arrow-question","trial_index":0,"trial_index_global":15,"time_elapsed":601142,"internal_chunk_id":"0-0.3-0"},{"nsides":6,"feedback":"Correct! 1 <img src=./images/hexagon_symbol.png style=width:14px;height:14px> 3 = 4 because 3 steps clockwise on the hexagon from 1 brings us to 4","orientation_history":[0],"rt":919,"trial_type":"polygon-arrow-feedback","trial_index":0,"trial_index_global":16,"time_elapsed":602063,"internal_chunk_id":"0-0.3-0"},{"nsides":6,"question":"Wh at is 4 <img src=./images/hexagon_symbol.png style=width:14px;height:14px> 3? <br /><br /> (Remember, to perform <img src=./images/hexagon_symbol.png style=width:14px;height:14px>, you can use the interactive diagram on the right, or perform the operation in your mind. Point the arrow at the first number on the hexagon, then move the arrow the second number of points clockwise around the hexagon. The number the arrow arrives at is your result.)","response_type":"free","response_choices":[],"correct_response":"1","response":"1","orientation_history":[[0]],"response_history":["1"],"rt":6421,"trial_type":"polygon-arrow-question","trial_index":0,"trial_index_global":17,"time_elapsed":608486,"internal_chunk_id":"0-0.3-0"},{"nsides":6,"feedback":"Correct! 4 <img src=./images/hexagon_symbol.png style=width:14px;height:14px> 3 = 1 because 3 steps clockwise on the hexagon from 4 brings us to 1","orientation_history":[0],"rt":846,"trial_type":"polygon-arrow-fee dback","trial_index":0,"trial_index_global":18,"time_elapsed":609334,"internal_chunk_id":"0-0.3-0"},{"nsides":6,"question":"What is 0 <img src=./images/hexagon_symbol.png style=width:14px;height:14px> 5? <br /><br /> (Remember, to perform <img src=./images/hexagon_symbol.png style=width:14px;height:14px>, you can use the interactive diagram on the right, or perform the operation in your mind. Point the arrow at the first number on the hexagon, then move the arrow the second number of points clockwise around the hexagon. The number the arrow arrives at is your result.)","response_type":"free","response_choices":[],"correct_response":"5","response":"5","orientation_history":[[0]],"response_history":["5"],"rt":5582,"trial_type":"polygon-arrow-question","trial_index":0,"trial_index_global":19,"time_elapsed":614918,"internal_chunk_id":"0-0.3-0"},{"nsides":6,"feedback":"Correct! 0 <img src=./images/hexagon_symbol.png style=width:14px;height:14px> 5 = 5 because 5 st eps cloc kwise on the hexagon from 0 brings us to 5","orientation_history":[0],"rt":894,"trial_type":"polygon-arrow-feedback","trial_index":0,"trial_index_global":20,"time_elapsed":615814,"internal_chunk_id":"0-0.3-0"},{"nsides":6,"question":"What is 2 <img src=./images/hexagon_symbol.png style=width:14px;height:14px> 5? <br /><br /> (Remember, to perform <img src=./images/hexagon_symbol.png style=width:14px;height:14px>, you can use the interactive diagram on the right, or perform the operation in your mind. Point the arrow at the first number on the hexagon, then move the arrow the second number of points clockwise around the hexagon. The number the arrow arrives at is your result.)","response_type":"free","response_choices":[],"correct_response":"1","response":"1","orientation_history":[[0]],"response_history":["1"],"rt":6806,"trial_type":"polygon-arrow-question","trial_index":0,"trial_index_global":21,"time_elapsed":622622,"internal_chunk_id":"0-0.3-0"},{"nsides":6,"feedback":"Correct! 2 <img src=./images/hexagon_symbol.png style=width:14px;height:14px> 5 = 1 because 5 steps clockwise on the hexagon from 2 brings us to 1","orientation_history":[0],"rt":1087,"trial_type":"polygon-arrow-feedback","trial_index":0,"trial_index_global":22,"time_elapsed":623711,"internal_chunk_id":"0-0.3-0"},{"nsides":6,"instructions":"Now we're going to discuss a couple special properties of this new operation, <img src=./images/hexagon_symbol.png style=width:14px;height:14px> that we've learned. First, notice that the number 0 behaves in a special way under <img src=./images/hexagon_symbol.png style=width:14px;height:14px>. Whenever we combine 0 with anything else, we get that same thing back. We'll say that 0 is the <i>identity</i> under <img src=./images/hexagon_symbol.png style=width:14px;height:14px>, because when you combine it with something it gives you that identical thing back.","orientation_history":[0],"rt":32770,"trial_type":" polygon-arrow-instructions","trial_index":0,"trial_index_global":23,"time_elapsed":656487,"internal_chunk_id":"0-0"},{"nsides":6,"instructions":"Now that we know 0 is the identity under <img src=./images/hexagon_symbol.png style=width:14px;height:14px>, we're going to make a new definition. We'll say that the <i>inverse</i> of a number is the element that you combine with it to produce the identity under our operation. For example, 5 <img src=./images/hexagon_symbol.png style=width:14px;height:14px> 1 = 0, so we say 1 is the inverse of 5 under <img src=./images/hexagon_symbol.png style=width:14px;height:14px>, (remember 0 is the identity under <img src=./images/hexagon_symbol.png style=width:14px;height:14px>). Similarly, 3 is its own inverse under <img src=./images/hexagon_symbol.png style=width:14px;height:14px>, because 3 <img src=./images/hexagon_symbol.png style=width:14px;height:14px> 3 = 0.","orientation_history":[0],"rt":41744,"trial_type":"polygon-arrow-instructions","trial_index":0,"trial_index_global":24,"time_elapsed":698232,"internal_chunk_id":"0-0"},{"nsides":6,"question":"Now you try! What is the inverse of 4 under <img src=./images/hexagon_symbol.png style=width:14px;height:14px>? <br /><br /> (Remember, the inverse of an element is the thing which you combine with it to produce the identity.)","response_type":"free","response_choices":[],"correct_response":"2","response":"2","orientation_history":[[0]],"response_history":["2"],"rt":6853,"trial_type":"polygon-arrow-question","trial_index":0,"trial_index_global":25,"time_elapsed":705087,"internal_chunk_id":"0-0.7-0"},{"nsides":6,"feedback":"Correct! The inverse of 4 under <img src=./images/hexagon_symbol.png style=width:14px;height:14px> is 2 because 4 <img src=./images/hexagon_symbol.png style=width:14px;height:14px> 2 = 0, and 0 is the identity under <img src=./images/hexagon_symbol.png style=width:14px;heigh t:14px >.","orientation_history":[0],"rt":1204,"trial_type":"polygon-arrow-feedback","trial_index":0,"trial_index_global":26,"time_elapsed":706294,"internal_chunk_id":"0-0.7-0"},{"nsides":6,"question":"What is the inverse of 1 under <img src=./images/hexagon_symbol.png style=width:14px;height:14px>? <br /><br /> (Remember, the inverse of an element is the thing which you combine with it to produce the identity.)","response_type":"free","response_choices":[],"correct_response":"5","response":"5","orientation_history":[[0]],"response_history":["5"],"rt":2926,"trial_type":"polygon-arrow-question","trial_index":0,"trial_index_global":27,"time_elapsed":709222,"internal_chunk_id":"0-0.7-0"},{"nsides":6,"feedback":"Correct! The inverse of 1 under <img src=./images/hexagon_symbol.png style=width:14px;height:14px> is 5 because 1 <img src=./images/hexagon_symbol.png style=width:14px;height:14px> 5 = 0, and 0 is the identity under <img src=./images/hexagon_symbol.png  style =width:14px;height:14px>.","orientation_history":[0],"rt":766,"trial_type":"polygon-arrow-feedback","trial_index":0,"trial_index_global":28,"time_elapsed":709990,"internal_chunk_id":"0-0.7-0"},{"nsides":6,"question":"What is the inverse of 3 under <img src=./images/hexagon_symbol.png style=width:14px;height:14px>? <br /><br /> (Remember, the inverse of an element is the thing which you combine with it to produce the identity.)","response_type":"free","response_choices":[],"correct_response":"3","response":"3","orientation_history":[[0]],"response_history":["3"],"rt":2142,"trial_type":"polygon-arrow-question","trial_index":0,"trial_index_global":29,"time_elapsed":712134,"internal_chunk_id":"0-0.7-0"},{"nsides":6,"feedback":"Correct! The inverse of 3 under <img src=./images/hexagon_symbol.png style=width:14px;height:14px> is 3 because 3 <img src=./images/hexagon_symbol.png style=width:14px;height:14px> 3 = 0, and 0 is the identity under <img src=. /images/ hexagon_symbol.png style=width:14px;height:14px>.","orientation_history":[0],"rt":862,"trial_type":"polygon-arrow-feedback","trial_index":0,"trial_index_global":30,"time_elapsed":712998,"internal_chunk_id":"0-0.7-0"},{"nsides":6,"question":"What is the inverse of 2 under <img src=./images/hexagon_symbol.png style=width:14px;height:14px>? <br /><br /> (Remember, the inverse of an element is the thing which you combine with it to produce the identity.)","response_type":"free","response_choices":[],"correct_response":"4","response":"4","orientation_history":[[0]],"response_history":["4"],"rt":2422,"trial_type":"polygon-arrow-question","trial_index":0,"trial_index_global":31,"time_elapsed":715422,"internal_chunk_id":"0-0.7-0"},{"nsides":6,"feedback":"Correct! The inverse of 2 under <img src=./images/hexagon_symbol.png style=width:14px;height:14px> is 4 because 2 <img src=./images/hexagon_symbol.png style=width:14px;height:14px> 4 = 0, and 0 is the i dentity  under <img src=./images/hexagon_symbol.png style=width:14px;height:14px>.","orientation_history":[0],"rt":976,"trial_type":"polygon-arrow-feedback","trial_index":0,"trial_index_global":32,"time_elapsed":716399,"internal_chunk_id":"0-0.7-0"},{"nsides":6,"question":"What is the inverse of 0 under <img src=./images/hexagon_symbol.png style=width:14px;height:14px>? <br /><br /> (Remember, the inverse of an element is the thing which you combine with it to produce the identity.)","response_type":"free","response_choices":[],"correct_response":"0","response":"6","orientation_history":[[0]],"response_history":["6"],"rt":8134,"trial_type":"polygon-arrow-question","trial_index":0,"trial_index_global":33,"time_elapsed":724534,"internal_chunk_id":"0-0.7-0"},{"nsides":6,"feedback":"Sorry, that was incorrect. The inverse of 0 under <img src=./images/hexagon_symbol.png style=width:14px;height:14px> is 0 because 0 <img src=./images/hexagon_symbol.png style=wid th:14px; height:14px> 0 = 0, and 0 is the identity under <img src=./images/hexagon_symbol.png style=width:14px;height:14px>.","orientation_history":[0],"rt":5479,"trial_type":"polygon-arrow-feedback","trial_index":0,"trial_index_global":34,"time_elapsed":730015,"internal_chunk_id":"0-0.7-0"},{"instructions":"It is also possible to successively apply <img src=./images/hexagon_symbol.png style=width:14px;height:14px>, and the operation can simply be performed starting with the left-most pair. For example, 2 <img src=./images/hexagon_symbol.png style=width:14px;height:14px> 3 <img src=./images/hexagon_symbol.png style=width:14px;height:14px> 4 = 5 <img src=./images/hexagon_symbol.png style=width:14px;height:14px> 4 = 3.","rt":63265,"trial_type":"instructions","trial_index":0,"trial_index_global":35,"time_elapsed":793284,"internal_chunk_id":"0-0"},{"nsides":6,"instructions":"We have one last definition to learn today. Let's start with an example.  Under o ur operation <img src=./images/hexagon_symbol.png style=width:14px;height:14px> we can make every other number using just 1: 2 = 1 <img src=./images/hexagon_symbol.png style=width:14px;height:14px> 1, 3 = 1 <img src=./images/hexagon_symbol.png style=width:14px;height:14px> 1 <img src=./images/hexagon_symbol.png style=width:14px;height:14px> 1, 4 = 1 <img src=./images/hexagon_symbol.png style=width:14px;height:14px> 1 <img src=./images/hexagon_symbol.png style=width:14px;height:14px> 1 <img src=./images/hexagon_symbol.png style=width:14px;height:14px> 1, 5 = 1 <img src=./images/hexagon_symbol.png style=width:14px;height:14px> 1 <img src=./images/hexagon_symbol.png style=width:14px;height:14px> 1 <img src=./images/hexagon_symbol.png style=width:14px;height:14px> 1 <img src=./images/hexagon_symbol.png style=width:14px;height:14px> 1, and 0 = 1 <img src=./images/hexagon_symbol.png style=width:1 4px;height:14px> 1 <img src=./images/hexagon_symbol.png style=width:14px;height:14px> 1 <img src=./images/hexagon_symbol.png style=width:14px;height:14px> 1 <img src=./images/hexagon_symbol.png style=width:14px;height:14px> 1 <img src=./images/hexagon_symbol.png style=width:14px;height:14px> 1. Because 1 can make every other element under <img src=./images/hexagon_symbol.png style=width:14px;height:14px>, we say that 1 is a <i>generator</i> under <img src=./images/hexagon_symbol.png style=width:14px;height:14px>. <br /><br /> However, 2 is not a generator under <img src=./images/hexagon_symbol.png style=width:14px;height:14px>, because 4 = 2 <img src=./images/hexagon_symbol.png style=width:14px;height:14px> 2, and 0 = 2 <img src=./images/hexagon_symbol.png style=width:14px;height:14px> 2 <img src=./images/hexagon_symbol.png style=width:14px;height:14px> 2, but there is no way to make 1, 3, or 5  using j ust 2.","orientation_history":[0],"rt":91894,"trial_type":"polygon-arrow-instructions","trial_index":0,"trial_index_global":36,"time_elapsed":885183,"internal_chunk_id":"0-0"},{"nsides":6,"question":"Now you try! Is 3 a generator under <img src=./images/hexagon_symbol.png style=width:14px;height:14px>? <br /><br /> (Remember, a generator is an element which can make every other element.)","response_type":"multi","response_choices":["Yes","No"],"correct_response":"No","response":"No","orientation_history":[[0]],"response_history":["No"],"rt":49316,"trial_type":"polygon-arrow-question","trial_index":0,"trial_index_global":37,"time_elapsed":934503,"internal_chunk_id":"0-0.10-0"},{"nsides":6,"feedback":"Correct! 3 is not a generator under <img src=./images/hexagon_symbol.png style=width:14px;height:14px>, because 3 = 3, 0 = 3 <img src=./images/hexagon_symbol.png style=width:14px;height:14px> 3, but there is no way to make 1, 2, 4, or 5 using just 3.","orientation_history":[0],"rt":1140,"trial_type":"polygon-arrow-feedback","trial_index":0,"trial_index_global":38,"time_elapsed":935647,"internal_chunk_id":"0-0.10-0"},{"nsides":6,"question":"Is 5 a generator under <img src=./images/hexagon_symbol.png style=width:14px;height:14px>? <br /><br /> (Remember, a generator is an element which can make every other element.)","response_type":"multi","response_choices":["Yes","No"],"correct_response":"Yes","response":"Yes","orientation_history":[[0]],"response_history":["Yes"],"rt":4678,"trial_type":"polygon-arrow-question","trial_index":0,"trial_index_global":39,"time_elapsed":940327,"internal_chunk_id":"0-0.10-0"},{"nsides":6,"feedback":"Correct! 5 is a generator under <img src=./images/hexagon_symbol.png style=width:14px;height:14px>, because 5 = 5, 4 = 5 <img src=./images/hexagon_symbol.png style=width:14px;height:14px> 5, 3 = 5 <img src=./images/hexagon_symbol.png style=width:14px;height:14px> 5 <img src=./ images/h exagon_symbol.png style=width:14px;height:14px> 5, 2 = 5 <img src=./images/hexagon_symbol.png style=width:14px;height:14px> 5 <img src=./images/hexagon_symbol.png style=width:14px;height:14px> 5 <img src=./images/hexagon_symbol.png style=width:14px;height:14px> 5, 1 = 5 <img src=./images/hexagon_symbol.png style=width:14px;height:14px> 5 <img src=./images/hexagon_symbol.png style=width:14px;height:14px> 5 <img src=./images/hexagon_symbol.png style=width:14px;height:14px> 5 <img src=./images/hexagon_symbol.png style=width:14px;height:14px> 5, and 0 = 5 <img src=./images/hexagon_symbol.png style=width:14px;height:14px> 5 <img src=./images/hexagon_symbol.png style=width:14px;height:14px> 5 <img src=./images/hexagon_symbol.png style=width:14px;height:14px> 5 <img src=./images/hexagon_symbol.png style=width:14px;height:14px> 5 <img src=./images/hexagon_symbol.png style=width:14px;h eight:14 px> 5, so you can make all of the numbers under <img src=./images/hexagon_symbol.png style=width:14px;height:14px> using 5","orientation_history":[0],"rt":1116,"trial_type":"polygon-arrow-feedback","trial_index":0,"trial_index_global":40,"time_elapsed":941447,"internal_chunk_id":"0-0.10-0"},{"nsides":6,"question":"Is 4 a generator under <img src=./images/hexagon_symbol.png style=width:14px;height:14px>? <br /><br /> (Remember, a generator is an element which can make every other element.)","response_type":"multi","response_choices":["Yes","No"],"correct_response":"No","response":"No","orientation_history":[[0]],"response_history":["No"],"rt":2295,"trial_type":"polygon-arrow-question","trial_index":0,"trial_index_global":41,"time_elapsed":943743,"internal_chunk_id":"0-0.10-0"},{"nsides":6,"feedback":"Correct! 4 is not a generator under <img src=./images/hexagon_symbol.png style=width:14px;height:14px>, because 4 = 4, 2 = 4 <img src=./images/hexagon _symbol. png style=width:14px;height:14px> 4, and 0 = 4 <img src=./images/hexagon_symbol.png style=width:14px;height:14px> 4 <img src=./images/hexagon_symbol.png style=width:14px;height:14px> 4, but there is no way to make 1, 3, or 5 using just 4.","orientation_history":[0],"rt":958,"trial_type":"polygon-arrow-feedback","trial_index":0,"trial_index_global":42,"time_elapsed":944703,"internal_chunk_id":"0-0.10-0"},{"nsides":6,"question":"Is 0 a generator under <img src=./images/hexagon_symbol.png style=width:14px;height:14px>? <br /><br /> (Remember, a generator is an element which can make every other element.)","response_type":"multi","response_choices":["Yes","No"],"correct_response":"No","response":"No","orientation_history":[[0]],"response_history":["No"],"rt":2888,"trial_type":"polygon-arrow-question","trial_index":0,"trial_index_global":43,"time_elapsed":947591,"internal_chunk_id":"0-0.10-0"},{"nsides":6,"feedback":"Correct! 0 is not a generator und er <img  src=./images/hexagon_symbol.png style=width:14px;height:14px>, because 0 = 0, but there is no way to make 1, 2, 3, 4, or 5 using just 0.","orientation_history":[0],"rt":1063,"trial_type":"polygon-arrow-feedback","trial_index":0,"trial_index_global":44,"time_elapsed":948655,"internal_chunk_id":"0-0.10-0"},{"nsides":9,"instructions":"Now we are going to ask you some questions about a new operation, <img src=./images/nonagon_symbol.png style=width:14px;height:14px>, on the numbers 0, 1, 2, 3, 4, 5, 6, 7, 8. It works exactly like <img src=./images/hexagon_symbol.png style=width:14px;height:14px>, except now you use the nonagon shown at the right. <br /><br />Do you see how <img src=./images/nonagon_symbol.png style=width:14px;height:14px> works just like <img src=./images/hexagon_symbol.png style=width:14px;height:14px>? By labeling the points of the nonagon with the numbers from 0 to 8, we ensure that when we combine two numbers under <im g src= ./images/nonagon_symbol.png style=width:14px;height:14px>, we only produce numbers between 0 and 8. <br /><br />We'll give you one practice question with feedback to make sure you understand the new operation. After that, try to complete the remaining questions as accurately as possible.","orientation_history":[0],"rt":29365,"trial_type":"polygon-arrow-instructions","trial_index":0,"trial_index_global":45,"time_elapsed":978023,"internal_chunk_id":"0-0"},{"nsides":9,"question":"Practice: What is 5 <img src=./images/nonagon_symbol.png style=width:14px;height:14px> 5?","response_type":"free","response_choices":[],"correct_response":"1","response":"1","orientation_history":[[0]],"response_history":["1"],"rt":17623,"trial_type":"polygon-arrow-question","trial_index":0,"trial_index_global":46,"time_elapsed":995647,"internal_chunk_id":"0-0.12-0"},{"nsides":9,"feedback":"Correct! 5 <img src=./images/nonagon_symbol.png style=width:14px;height:14px> 5 = 1 because  5 steps  clockwise on the nonagon from 5 brings us to 1","orientation_history":[0],"rt":1628,"trial_type":"polygon-arrow-feedback","trial_index":0,"trial_index_global":47,"time_elapsed":997279,"internal_chunk_id":"0-0.12-0"},{"nsides":9,"question":"What is 3 <img src=./images/nonagon_symbol.png style=width:14px;height:14px> 3?","response_type":"free","response_choices":[],"correct_response":"6","response":"6","orientation_history":[[0]],"response_history":["6"],"rt":4578,"trial_type":"polygon-arrow-question","trial_index":0,"trial_index_global":48,"time_elapsed":1001858,"internal_chunk_id":"0-0.12-0"},{"nsides":9,"question":"What is 7 <img src=./images/nonagon_symbol.png style=width:14px;height:14px> 4?","response_type":"free","response_choices":[],"correct_response":"2","response":"1","orientation_history":[[0]],"response_history":["1"],"rt":11747,"trial_type":"polygon-arrow-question","trial_index":0,"trial_index_global":49,"time_elapsed":1013606,"internal_chunk_id":"0-0.12 -0"},{"nsides":9,"question":"What is 1 <img src=./images/nonagon_symbol.png style=width:14px;height:14px> 8?","response_type":"free","response_choices":[],"correct_response":"0","response":"0","orientation_history":[[0]],"response_history":["0"],"rt":5487,"trial_type":"polygon-arrow-question","trial_index":0,"trial_index_global":50,"time_elapsed":1019095,"internal_chunk_id":"0-0.12-0"},{"nsides":9,"question":"What is 5 <img src=./images/nonagon_symbol.png style=width:14px;height:14px> 4?","response_type":"free","response_choices":[],"correct_response":"0","response":"0","orientation_history":[[0]],"response_history":["0"],"rt":3895,"trial_type":"polygon-arrow-question","trial_index":0,"trial_index_global":51,"time_elapsed":1022991,"internal_chunk_id":"0-0.12-0"},{"nsides":9,"question":"What is 6 <img src=./images/nonagon_symbol.png style=width:14px;height:14px> 6?","response_type":"free","response_choices":[],"correct_response":"3","response":"3","orientation_history":[[0]],"response_history":["3"],"rt":7422,"trial_type":"polygon-arrow-question","trial_index":0,"trial_index_global":52,"time_elapsed":1030415,"internal_chunk_id":"0-0.12-0"},{"nsides":9,"question":"What is 4 <img src=./images/nonagon_symbol.png style=width:14px;height:14px> 1? Please explain in words how you got your answer.","response_type":"free","response_choices":[],"correct_response":"","response":"one past four is five","orientation_history":[[0]],"response_history":["4","one past for is five","one past f is five","one past fo is five","one past fou is five","one past four is five"],"rt":43365,"trial_type":"polygon-arrow-question","trial_index":0,"trial_index_global":53,"time_elapsed":1073783,"internal_chunk_id":"0-0.12-0"},{"nsides":9,"question":"What is 8 <img src=./images/nonagon_symbol.png style=width:14px;height:14px> 4? Please explain in words how you got your answer.","response_type":"free","response_choices":[],"correct_response":"","response":"four and eight is twelve and if nine is zero than twelve is three","orientation_history":[[0]],"response_history":["4 from ","4 from","4 fro","4 fr","4 f","4 and ","four and eight is twelve and if nine is zero than 33","four and eight is twelve and if nine is zero than 3","four and eight is twelve and if nine is zero than three is ","four and eight is twelve and if nine is zero than three is","four and eight is twelve and if nine is zero than three i","four and eight is twelve and if nine is zero than three ","four and eight is twelve and if nine is zero than three","four and eight is twelve and if nine is zero than thre","four and eight is twelve and if nine is zero than thr","four and eight is twelve and if nine is zero than th","four and eight is twelve and if nine is zero than t","four and eight is twelve and if nine is zero than twelve is three"],"rt":85502,"trial_type":"polygon-arrow-question","trial_index":0,"trial_index_global":54,"time_elapsed":1159288,"internal_chunk_id":"0-0.12-0"},{"nsides":9,"question":"What is the identity under <img src=./images/nonagon_symbol.png style=width:14px;height:14px>? Please explain in words how you got your answer.","response_type":"free","response_choices":[],"correct_response":"0","response":"it is a adding system using 9 points numbers 0 to 8. looking at the diagram on the right i'm able to understand the system.","orientation_history":[[0]],"response_history":["the identity is to find ","the identity is to find","the identity is to fin","the identity is to fi","the identity is to f","the identity is to ","the identity is to","the identity is t","the identity is ","the identity is","I","It is a addig","It is a addi","It is a addgin","it s","it is a adding system using m","it is a adding system using 9 points numbers 0 to 8. i ca","it is a adding system using 9 points numbers 0 to 8. i c","it is a adding system using 9 points numbers 0 to 8. i ","it is a adding system using 9 points numbers 0 to 8.  i","it  is a adding system using 9 points numbers 0 to 8. looking at the dia","it is a adding system using 9 points numbers 0 to 8. looking at the diagram on the ","it is a adding system using 9 points numbers 0 to 8. looking at the diagram on the","it is a adding system using 9 points numbers 0 to 8. looking at the diagram on th","it is a adding system using 9 points numbers 0 to 8. looking at the diagram on t","it is a adding system using 9 points numbers 0 to 8. looking at the diagram on ","it is a adding system using 9 points numbers 0 to 8. looking at the diagram on","it is a adding system using 9 points numbers 0 to 8. looking at the diagram o","it is a adding system using 9 points numbers 0 to 8. looking at the diagram on the right m","it is a adding system using 9 points numbers 0 to 8. looking at the diagram on the right I","it is a adding system using 9 points numbers 0 to 8. looking at the diagram on the right i'm able to undr","it is a adding system using 9 points number s 0 to 8 . looking at the diagram on the right i'm able to understand the t","it is a adding system using 9 points numbers 0 to 8. looking at the diagram on the right i'm able to understand the sus","it is a adding system using 9 points numbers 0 to 8. looking at the diagram on the right i'm able to understand the su","it is a adding system using 9 points numbers 0 to 8. looking at the diagram on the right i'm able to understand the system."],"rt":197197,"trial_type":"polygon-arrow-question","trial_index":0,"trial_index_global":55,"time_elapsed":1356488,"internal_chunk_id":"0-0.12-0"},{"nsides":9,"question":"What is the inverse of 5 under <img src=./images/nonagon_symbol.png style=width:14px;height:14px>?","response_type":"free","response_choices":[],"correct_response":"4","response":"4","orientation_history":[[0]],"response_history":["4"],"rt":34244,"trial_type":"polygon-arrow-question","trial_index":0,"trial_index_global":56,"time_elapsed":1390734,"internal_chunk_id":"0-0.1 2-0"},{"nsides":9,"question":"What is the inverse of 2 under <img src=./images/nonagon_symbol.png style=width:14px;height:14px>?","response_type":"free","response_choices":[],"correct_response":"7","response":"7","orientation_history":[[0]],"response_history":["7"],"rt":3410,"trial_type":"polygon-arrow-question","trial_index":0,"trial_index_global":57,"time_elapsed":1394146,"internal_chunk_id":"0-0.12-0"},{"nsides":9,"question":"What is the inverse of 0 under <img src=./images/nonagon_symbol.png style=width:14px;height:14px>?","response_type":"free","response_choices":[],"correct_response":"0","response":"0","orientation_history":[[0]],"response_history":["0"],"rt":3137,"trial_type":"polygon-arrow-question","trial_index":0,"trial_index_global":58,"time_elapsed":1397285,"internal_chunk_id":"0-0.12-0"},{"nsides":9,"question":"What is the inverse of 3 under <img src=./images/nonagon_symbol.png style=width:14px;height:14px>? Please explain in words how you got yo ur answe r.","response_type":"free","response_choices":[],"correct_response":"","response":"6. I notice every problem is based on a 9 point system realizing this I simply subtracted 3 from 9 and got 6. i checked my work by adding 3 to 6 and got 9 (or 0)","orientation_history":[[0]],"response_history":["6. I noy","6. I notice every problem is n","6. I notice every problem is based on a n","6. I notice every problem is based on a 9 point si","6. I notice every problem is based on a 9 point system (instead of a standard deca ","6. I notice every problem is based on a 9 point system (instead of a standard decasystem ","6. I notice every problem is based on a 9 point system realizing this i","6. I notice every problem is based on a 9 point system realizing this I simply subtracted 3 from 9 and got 6. i checked my work by adding 3 to 6 and got 9 or ","6. I notice every problem is based on a 9 point system realizing this I simply subtracted 3 from 9 and got 6. i checked my work by adding 3  to 6 and  got 9 or","6. I notice every problem is based on a 9 point system realizing this I simply subtracted 3 from 9 and got 6. i checked my work by adding 3 to 6 and got 9 o","6. I notice every problem is based on a 9 point system realizing this I simply subtracted 3 from 9 and got 6. i checked my work by adding 3 to 6 and got 9 (or 0)"],"rt":220153,"trial_type":"polygon-arrow-question","trial_index":0,"trial_index_global":59,"time_elapsed":1617440,"internal_chunk_id":"0-0.12-0"},{"nsides":9,"question":"Is 2 a generator under <img src=./images/nonagon_symbol.png style=width:14px;height:14px>? Please explain in words how you got your answer.","response_type":"free","response_choices":[],"correct_response":"","response":"7. I notice every problem is based on a 9 point system realizing this I simply subtracted 2 from 9 and got 7. i checked my work by adding 2 to 7 and got 9 (or 0)","orientation_history":[[0]],"response_history":["6. I notice every problem is based on a 9 poi nt syste m realizing this I simply subtracted 3 from 9 and got 6. i checked my work by adding 3 to 6 and got 9 (or 0)",". I notice every problem is based on a 9 point system realizing this I simply subtracted 3 from 9 and got 6. i checked my work by adding 3 to 6 and got 9 (or 0)","7. I notice every problem is based on a 9 point system realizing this I simply subtracted 3 from 9 and got 6. i checked my work by adding 3 to 6 and got 9 (or 0)","7. I notice every problem is based on a 9 point system realizing this I simply subtracted  from 9 and got 6. i checked my work by adding 3 to 6 and got 9 (or 0)","7. I notice every problem is based on a 9 point system realizing this I simply subtracted 2 from 9 and got 6. i checked my work by adding 3 to 6 and got 9 (or 0)","7. I notice every problem is based on a 9 point system realizing this I simply subtracted 2 from 9 and got . i checked my work by adding 3 to 6 and got 9 (or 0)","7. I notice every problem is based on a 9 point system realiz ing this  I simply subtracted 2 from 9 and got 7. i checked my work by adding 3 to 6 and got 9 (or 0)","7. I notice every problem is based on a 9 point system realizing this I simply subtracted 2 from 9 and got 7. i checked my work by adding  to 6 and got 9 (or 0)","7. I notice every problem is based on a 9 point system realizing this I simply subtracted 2 from 9 and got 7. i checked my work by adding 2 to 6 and got 9 (or 0)","7. I notice every problem is based on a 9 point system realizing this I simply subtracted 2 from 9 and got 7. i checked my work by adding 2 to  and got 9 (or 0)","7. I notice every problem is based on a 9 point system realizing this I simply subtracted 2 from 9 and got 7. i checked my work by adding 2 to 7 and got 9 (or 0)"],"rt":28050,"trial_type":"polygon-arrow-question","trial_index":0,"trial_index_global":60,"time_elapsed":1645503,"internal_chunk_id":"0-0.12-0"},{"nsides":9,"question":"Is 3 a generator under <img src=./images/nonagon_symbol.png style= width:14 px;height:14px>? Please explain in words how you got your answer.","response_type":"free","response_choices":[],"correct_response":"","response":"no. if you keep adding 3 from the last number you have you hit the same numbers. ","orientation_history":[[0]],"response_history":["no. if ","no. if","no. i","no. if you keep adding 3 from the last number h","no. if you keep adding 3 from the last number you have o","no. if you keep adding 3 from the last number you have you go","no. if you keep adding 3 from the last number you have you g","no. if you keep adding 3 from the last number you have you hit the same numbers n","no. if you keep adding 3 from the last number you have you hit the same numbers ","no. if you keep adding 3 from the last number you have you hit the same numbers. t","no. if you keep adding 3 from the last number you have you hit the same numbers. "],"rt":78054,"trial_type":"polygon-arrow-question","trial_index":0,"trial_index_global":61,"time_elapsed":1723559,"internal_chunk_id":"0-0.12-0"},{"nsides":9,"question":"Is 5 a generator under <img src=./images/nonagon_symbol.png style=width:14px;height:14px>? Please explain in words how you got your answer.","response_type":"free","response_choices":[],"correct_response":"","response":"yes, if you keep adding 5 to each number you go around the circle number by number","orientation_history":[[0]],"response_history":["yes, if you keep adding 5 to each number you go around the circle number by number"],"rt":64936,"trial_type":"polygon-arrow-question","trial_index":0,"trial_index_global":62,"time_elapsed":1788496,"internal_chunk_id":"0-0.12-0"},{"nsides":9,"question":"Is 6 a generator under <img src=./images/nonagon_symbol.png style=width:14px;height:14px>? Please explain in words how you got your answer.","response_type":"free","response_choices":[],"correct_response":"","response":"no, it is an even number and an even number added to an even number can never be odd","orientation_history":[[0]],"response_history":["no, it is an even bumber ","no, it is an even bum","no, it is an even bu","no, it is an even b","no, it is an even number and an even number added to an eaven number can never be odd","no, it is an even number and an even number added to an even number can never be odd"],"rt":42717,"trial_type":"polygon-arrow-question","trial_index":0,"trial_index_global":63,"time_elapsed":1831215,"internal_chunk_id":"0-0.12-0"},{"nsides":"n","instructions":"Now we'd like to ask you some questions about <img src=./images/ngon_symbol.png style=width:14px;height:14px>, where n could be any positive counting number. For example, n could be 3, and the polygon a triangle, or n could be any other counting number you can think of. If you need to write the operation, you can use (n), and your answers can include n to stand in for the arbitrary value if necessary. (You can use the polygon at the right to think, but it doesn't necessarily correspond to the rea l polygo n, which is why we've left most of it dashed.)","orientation_history":[0],"rt":75068,"trial_type":"polygon-arrow-instructions","trial_index":0,"trial_index_global":64,"time_elapsed":1906288,"internal_chunk_id":"0-0"},{"nsides":"n","question":"What is the formula for the inverse of 1 under <img src=./images/ngon_symbol.png style=width:14px;height:14px>?","response_type":"free","response_choices":[],"correct_response":"n-1","response":"1n1n1n1n1n1n1n1n1n1","orientation_history":[[0]],"response_history":["1","1n1n1n1n1n1n1n1n1n1"],"rt":72388,"trial_type":"polygon-arrow-question","trial_index":0,"trial_index_global":65,"time_elapsed":1978679,"internal_chunk_id":"0-0.14-0"},{"nsides":"n","question":"What is the formula for the inverse of an element x under <img src=./images/ngon_symbol.png style=width:14px;height:14px>? Please explain in words why your answer is correct.","response_type":"free","response_choices":[],"correct_response":"n-x","response":"10-x=n beca use it t akes the whatever amount of x moves fewer to reach 0 ","orientation_history":[[0]],"response_history":["xn","x","3=3","3=","3","x is ","x is","x i","x ","x","3n","3 n ","3 n","3 ","3n5","3n7 ","3n7","invers o","invers ","invers","inverse of 3 is 7 because it ","10-x=n because it takes the whatever amount of x moves fewer to reach 0 "],"rt":272751,"trial_type":"polygon-arrow-question","trial_index":0,"trial_index_global":66,"time_elapsed":2251577,"internal_chunk_id":"0-0.14-0"},{"nsides":"n","question":"Is there a pattern to which elements are generators? How can you know if an element x is a generator under <img src=./images/ngon_symbol.png style=width:14px;height:14px> without seeing whether it can make all the elements?.","response_type":"free","response_choices":[],"correct_response":"","response":"yes, even numbers are never generators ","orientation_history":[[0]],"response_history":["yes, even are ","yes, even are","yes, even ar","yes, even a","yes, even number s are be ","yes, even numbers are b","yes, even numbers are never generators and any odd number is under","yes, even numbers are never generators and","yes, even numbers are never generators an","yes, even numbers are never generators a","yes, even numbers are never generators "],"rt":212009,"trial_type":"polygon-arrow-question","trial_index":0,"trial_index_global":67,"time_elapsed":2463753,"internal_chunk_id":"0-0.14-0"},{"nsides":"n","question":"True or false: If x is an odd number, it must be a generator under <img src=./images/ngon_symbol.png style=width:14px;height:14px>.","response_type":"multi","response_choices":["True","False"],"correct_response":"False","response":"True","orientation_history":[[0]],"response_history":["True"],"rt":22612,"trial_type":"polygon-arrow-question","trial_index":0,"trial_index_global":68,"time_elapsed":2486378,"internal_chunk_id":"0-0.14-0"},{"nsides":"n","question":"True or false: If x is an even number, it must not be a generator under <i mg src=./images/ngon_symbol.png style=width:14px;height:14px>.","response_type":"multi","response_choices":["True","False"],"correct_response":"False","response":"True","orientation_history":[[0]],"response_history":["True"],"rt":6723,"trial_type":"polygon-arrow-question","trial_index":0,"trial_index_global":69,"time_elapsed":2493103,"internal_chunk_id":"0-0.14-0"},{"nsides":"n","question":"True or false: If x is not a generator under <img src=./images/ngon_symbol.png style=width:14px;height:14px>, x must be a divisor of n, that is, x must divide n evenly, with no remainder.","response_type":"multi","response_choices":["True","False"],"correct_response":"False","response":"False","orientation_history":[[0]],"response_history":["False"],"rt":58487,"trial_type":"polygon-arrow-question","trial_index":0,"trial_index_global":70,"time_elapsed":2551592,"internal_chunk_id":"0-0.14-0"},{"nsides":"n","question":"True or false: If x is not a generator under <img src=./images/ ngon_sym bol.png style=width:14px;height:14px>, x must be a multiple of a divisor of n. Please explain in words why your answer is correct.","response_type":"free","response_choices":[],"correct_response":"True","response":"true if n is 10 false if n is odd, not all even numbers are multiple of a divisor of n. if n is odd than it is not. unless n is 10 than it is.","orientation_history":[[0]],"response_history":["fause ","fause","faus","fause","faus","fau","fas","false, not all even number ","false, not all even numbers are multiple ","false, not all even numbers are multiples of a di","false, not all even numbers are multiple of a divdot","false, not all even numbers are multiple of a divdor of n. if n is n","false, not all even numbers are multiple of a divdor of n. if n is e","false, not all even numbers are multiple of a divdor of n. if n is odd than in","false, not all even numbers are multiple of a divdor of n. if n is odd than it is not.","false, not all even numbers are  multipl e of a divisor of n. if n is odd than it is not. i","false, not all even numbers are multiple of a divisor of n. if n is odd than it is not. unless n is 10 than it is.",", not all even numbers are multiple of a divisor of n. if n is odd than it is not. unless n is 10 than it is.","t, not all even numbers are multiple of a divisor of n. if n is odd than it is not. unless n is 10 than it is.","tr, not all even numbers are multiple of a divisor of n. if n is odd than it is not. unless n is 10 than it is.","tru, not all even numbers are multiple of a divisor of n. if n is odd than it is not. unless n is 10 than it is.","true, not all even numbers are multiple of a divisor of n. if n is odd than it is not. unless n is 10 than it is.","true , not all even numbers are multiple of a divisor of n. if n is odd than it is not. unless n is 10 than it is.","true i, not all even numbers are multiple of a divisor of n. if n is odd than it is not. unless n is 10 than it is.","true is, not a ll even  numbers are multiple of a divisor of n. if n is odd than it is not. unless n is 10 than it is.","true is , not all even numbers are multiple of a divisor of n. if n is odd than it is not. unless n is 10 than it is.","true is, not all even numbers are multiple of a divisor of n. if n is odd than it is not. unless n is 10 than it is.","true i, not all even numbers are multiple of a divisor of n. if n is odd than it is not. unless n is 10 than it is.","true if, not all even numbers are multiple of a divisor of n. if n is odd than it is not. unless n is 10 than it is.","true if , not all even numbers are multiple of a divisor of n. if n is odd than it is not. unless n is 10 than it is.","true if n, not all even numbers are multiple of a divisor of n. if n is odd than it is not. unless n is 10 than it is.","true if n , not all even numbers are multiple of a divisor of n. if n is odd than it is not. unless n is 10 than it is.","true if n i, not all even numbers are multiple of a d ivisor o f n. if n is odd than it is not. unless n is 10 than it is.","true if n is, not all even numbers are multiple of a divisor of n. if n is odd than it is not. unless n is 10 than it is.","true if n is , not all even numbers are multiple of a divisor of n. if n is odd than it is not. unless n is 10 than it is.","true if n is 1, not all even numbers are multiple of a divisor of n. if n is odd than it is not. unless n is 10 than it is.","true if n is 10, not all even numbers are multiple of a divisor of n. if n is odd than it is not. unless n is 10 than it is.","true if n is 10 , not all even numbers are multiple of a divisor of n. if n is odd than it is not. unless n is 10 than it is.","true if n is 10 f, not all even numbers are multiple of a divisor of n. if n is odd than it is not. unless n is 10 than it is.","true if n is 10 fr, not all even numbers are multiple of a divisor of n. if n is odd than it is not. unless n is 10 than it is.","true if n is 10 f, not all even number s are mu ltiple of a divisor of n. if n is odd than it is not. unless n is 10 than it is.","true if n is 10 fa, not all even numbers are multiple of a divisor of n. if n is odd than it is not. unless n is 10 than it is.","true if n is 10 fau, not all even numbers are multiple of a divisor of n. if n is odd than it is not. unless n is 10 than it is.","true if n is 10 faul, not all even numbers are multiple of a divisor of n. if n is odd than it is not. unless n is 10 than it is.","true if n is 10 fauls, not all even numbers are multiple of a divisor of n. if n is odd than it is not. unless n is 10 than it is.","true if n is 10 fauls , not all even numbers are multiple of a divisor of n. if n is odd than it is not. unless n is 10 than it is.","true if n is 10 fauls, not all even numbers are multiple of a divisor of n. if n is odd than it is not. unless n is 10 than it is.","true if n is 10 faul, not all even numbers are multiple of a divisor of n. if n is odd than it is not. unless n i s 10 tha n it is.","true if n is 10 fau, not all even numbers are multiple of a divisor of n. if n is odd than it is not. unless n is 10 than it is.","true if n is 10 faus, not all even numbers are multiple of a divisor of n. if n is odd than it is not. unless n is 10 than it is.","true if n is 10 fause, not all even numbers are multiple of a divisor of n. if n is odd than it is not. unless n is 10 than it is.","true if n is 10 fause , not all even numbers are multiple of a divisor of n. if n is odd than it is not. unless n is 10 than it is.","true if n is 10 fause, not all even numbers are multiple of a divisor of n. if n is odd than it is not. unless n is 10 than it is.","true if n is 10 faus, not all even numbers are multiple of a divisor of n. if n is odd than it is not. unless n is 10 than it is.","true if n is 10 fau, not all even numbers are multiple of a divisor of n. if n is odd than it is not. unless n is 10 than it is.","true if n is 10 fa, not all even numbers are multipl e of a d ivisor of n. if n is odd than it is not. unless n is 10 than it is.","true if n is 10 fal, not all even numbers are multiple of a divisor of n. if n is odd than it is not. unless n is 10 than it is.","true if n is 10 fals, not all even numbers are multiple of a divisor of n. if n is odd than it is not. unless n is 10 than it is.","true if n is 10 false, not all even numbers are multiple of a divisor of n. if n is odd than it is not. unless n is 10 than it is.","true if n is 10 false , not all even numbers are multiple of a divisor of n. if n is odd than it is not. unless n is 10 than it is.","true if n is 10 false i, not all even numbers are multiple of a divisor of n. if n is odd than it is not. unless n is 10 than it is.","true if n is 10 false if, not all even numbers are multiple of a divisor of n. if n is odd than it is not. unless n is 10 than it is.","true if n is 10 false if , not all even numbers are multiple of a divisor of n. if n is odd than it is not. unless n i s 10 tha n it is.","true if n is 10 false if n, not all even numbers are multiple of a divisor of n. if n is odd than it is not. unless n is 10 than it is.","true if n is 10 false if n , not all even numbers are multiple of a divisor of n. if n is odd than it is not. unless n is 10 than it is.","true if n is 10 false if n i, not all even numbers are multiple of a divisor of n. if n is odd than it is not. unless n is 10 than it is.","true if n is 10 false if n is, not all even numbers are multiple of a divisor of n. if n is odd than it is not. unless n is 10 than it is.","true if n is 10 false if n is , not all even numbers are multiple of a divisor of n. if n is odd than it is not. unless n is 10 than it is.","true if n is 10 false if n is o, not all even numbers are multiple of a divisor of n. if n is odd than it is not. unless n is 10 than it is.","true if n is 10 false if n is od, not all even numbers are multiple of a divisor of n. if n is odd than it is not. unless n is 10 than  it is.","true if n is 10 false if n is odd, not all even numbers are multiple of a divisor of n. if n is odd than it is not. unless n is 10 than it is."],"rt":165302,"trial_type":"polygon-arrow-question","trial_index":0,"trial_index_global":71,"time_elapsed":2716896,"internal_chunk_id":"0-0.14-0"},{"nsides":"n","question":"If an element x is a generator under <img src=./images/ngon_symbol.png style=width:14px;height:14px>, is its inverse a generator under <img src=./images/ngon_symbol.png style=width:14px;height:14px> always, sometimes, or never?","response_type":"multi","response_choices":["Always","Sometimes","Never"],"correct_response":"Always","response":"Sometimes","orientation_history":[[0]],"response_history":["Sometimes"],"rt":38666,"trial_type":"polygon-arrow-question","trial_index":0,"trial_index_global":72,"time_elapsed":2755567,"internal_chunk_id":"0-0.14-0"},{"nsides":"n","question":"If an element x is a generator under <img src=./images/ngon_symbol.pn g styl e=width:14px;height:14px>, is x <img src=./images/ngon_symbol.png style=width:14px;height:14px> x a generator under <img src=./images/ngon_symbol.png style=width:14px;height:14px> always, sometimes, or never? Please explain in words why your answer is correct.","response_type":"free","response_choices":[],"correct_response":"Sometimes","response":"sometimes. because generators go through all the numbers including other generators","orientation_history":[[0]],"response_history":["sometimes. because benerators go through all the numbers and if there aere","sometimes. because benerators go through all the numbers and if there aer","sometimes. because benerators go through all the numbers and if there ae","sometimes. because benerators go through all the numbers and if there are ot","sometimes. because benerators go through all the numbers an","sometimes. because benerators go through all the numbers a","sometimes. because benerators go through all the number s includ ing other generators","sometimes. because enerators go through all the numbers including other generators","sometimes. because generators go through all the numbers including other generators"],"rt":69054,"trial_type":"polygon-arrow-question","trial_index":0,"trial_index_global":73,"time_elapsed":2824624,"internal_chunk_id":"0-0.14-0"},{"nsides":"n","question":"If an element x is not a generator under <img src=./images/ngon_symbol.png style=width:14px;height:14px>, is x <img src=./images/ngon_symbol.png style=width:14px;height:14px> x a generator under <img src=./images/ngon_symbol.png style=width:14px;height:14px> always, sometimes, or never?","response_type":"multi","response_choices":["Always","Sometimes","Never"],"correct_response":"Never","response":"Never","orientation_history":[[0]],"response_history":["Never"],"rt":52636,"trial_type":"polygon-arrow-question","trial_index":0,"trial_index_global":74,"time_elapsed":2877264,"internal_chunk_id":"0- 0.14-0"},{"instructions":"We would like to ask you some questions about your background. Please press Continue to continue.","rt":2902,"trial_type":"instructions","trial_index":0,"trial_index_global":75,"time_elapsed":2880168,"internal_chunk_id":"0-0.15-0"},{"question":"What is your age?","response_type":"free","response_choices":[],"correct_response":"","response":"28","response_history":["28"],"rt":2853,"trial_type":"question","trial_index":0,"trial_index_global":76,"time_elapsed":2883024,"internal_chunk_id":"0-0.15-0"},{"question":"What is your level of education?","response_type":"multi","response_choices":["Did not graduate high school","High school diploma","Some college, no degree","Associates Degree","Bachelors Degree","Some graduate school, no degree","Masters Degree","Doctorate, M.D., etc."],"correct_response":"","response":"High school diploma","response_history":["High school diploma"],"rt":4486,"trial_type":"question","trial_index":0,"trial_index_global":77,"time_elapsed":2887513,"internal_chunk_id":"0-0.15-0"},{"question":"What is the most advanced math class you've completed? If you have multiple classes and you're not sure which one is most advanced, please list them.","response_type":"free","response_choices":[],"correct_response":"","response":"algebra 1","response_history":["algerbra 1","algebra 1"],"rt":11877,"trial_type":"question","trial_index":0,"trial_index_global":78,"time_elapsed":2899392,"internal_chunk_id":"0-0.15-0"},{"question":"How familiar are you with the concept of modular arithmetic?","response_type":"multi","response_choices":["1 - never heard of it","2 - heard of it but didn't know what it was","3 - seen it used or explained","4 - used it but not often or recently","5 - used it, remember and understand it"],"correct_response":"1","response":"1 - never heard of it","response_history":["1 - never heard of it"],"rt":8231,"trial_type":"question","trial_index":0,"trial_index_global":79,"time_elapsed":2907624,"internal_chunk_id":"0-0 .15-0"},{"question":"How familiar are you with the concept of a mathematical group?","response_type":"multi","response_choices":["1 - never heard of it","2 - heard of it but didn't know what it was","3 - seen it used or explained","4 - used it but not often or recently","5 - used it, remember and understand it"],"correct_response":"1","response":"1 - never heard of it","response_history":["1 - never heard of it"],"rt":10511,"trial_type":"question","trial_index":0,"trial_index_global":80,"time_elapsed":2918136,"internal_chunk_id":"0-0.15-0"},{"question":"Do you feel you learned something from this HIT?","response_type":"multi","response_choices":["1 - not at all","2 - somewhat","3 - definitely"],"correct_response":"1","response":"3 - definitely","response_history":["2 - somewhat","3 - definitely"],"rt":10286,"trial_type":"question","trial_index":0,"trial_index_global":81,"time_elapsed":2928424,"internal_chunk_id":"0-0.15-0"},{"question":"Do you feel you understood the concept s in thi s HIT?","response_type":"multi","response_choices":["1 - not at all","2 - somewhat","3 - definitely"],"correct_response":"1","response":"3 - definitely","response_history":["3 - definitely"],"rt":6838,"trial_type":"question","trial_index":0,"trial_index_global":82,"time_elapsed":2935264,"internal_chunk_id":"0-0.15-0"},{"question":"Did you enjoy this HIT?","response_type":"multi","response_choices":["1 - not at all","2 - somewhat","3 - definitely"],"correct_response":"1","response":"3 - definitely","response_history":["3 - definitely"],"rt":3190,"trial_type":"question","trial_index":0,"trial_index_global":83,"time_elapsed":2938455,"internal_chunk_id":"0-0.15-0"},{"question":"What is your gender?","response_type":"multi","response_choices":["Female","Male","Other"],"correct_response":"","response":"Male","response_history":["Male"],"rt":2000,"trial_type":"question","trial_index":0,"trial_index_global":84,"time_elapsed":2940456,"internal_chunk_id":"0-0.15-0"},{"question":"What  is/are y our native language(s)? (The languages spoken in your household when you were a child.)","response_type":"free","response_choices":[],"correct_response":"","response":"english","response_history":["english"],"rt":5030,"trial_type":"question","trial_index":0,"trial_index_global":85,"time_elapsed":2945487,"internal_chunk_id":"0-0.15-0"},{"question":"Did you use pen and paper at any point on this HIT?","response_type":"free","response_choices":[],"correct_response":"","response":"no","response_history":["no"],"rt":6334,"trial_type":"question","trial_index":0,"trial_index_global":86,"time_elapsed":2951823,"internal_chunk_id":"0-0.15-0"},{"question":"Do you have any comments on this HIT?","response_type":"free","response_choices":[],"correct_response":"","response":"","response_history":[],"rt":4590,"trial_type":"question","trial_index":0,"trial_index_global":87,"time_elapsed":2956416,"internal_chunk_id":"0-0.15-0"}]