[{"nsides":6,"instructions":"Let's define a new operation <img src=./images/hexagon_symbol.png style=width:14px;height:14px>. This operation will give us a way of combining two of the numbers 0, 1, 2, 3, 4, 5 to get another one of them back. To perform <img src=./images/hexagon_symbol.png style=width:14px;height:14px>, you can either use a method based on the hexagon at right, or a method based on arithmetic.<br /><b>Hexagon method:</b> you can use the interactive diagram on the right, or perform the operation in your mind. Point the arrow at the first number on the hexagon by clicking, then click (or click and drag) to move the arrow the second number of points clockwise around the hexagon. The number the arrow arrives at is your result. (The operation is called <img src=./images/hexagon_symbol.png style=width:14px;height:14px> because it uses the hexagon, which has 6 sides.) <br ><b>Arithmetic method:</b> you start with the first number, and then add  the sec ond one to it. If the sum is smaller than 6, that's your result. If the sum is 6 or bigger, you subtract 6 to get your result. <br /><br />For example, 3 <img src=./images/hexagon_symbol.png style=width:14px;height:14px> 5 = 2, because 5 steps clockwise from 3 on the hexagon brings us to 2. Equivalently, 3 + 5 = 8, and 8 is bigger than 6, so we subtract 6, and 8 - 6 = 2. So 3 <img src=./images/hexagon_symbol.png style=width:14px;height:14px> 5 = 2.<br /><br />Similarly, 1 <img src=./images/hexagon_symbol.png style=width:14px;height:14px> 4 = 5, because 1 + 4 = 5, and 5 is less than 6 so we leave it alone. Equivalently, 4 steps clockwise from 1 on the hexagon brings us to 5. <br /><br />Click Continue when you're ready to move on.","orientation_history":[0],"rt":129552,"trial_type":"polygon-arrow-instructions","trial_index":0,"trial_index_global":1,"time_elapsed":175407,"internal_chunk_id":"0-0"},{"nsides":6,"instructions":"Do you see how the diffe rent way s of performing <img src=./images/hexagon_symbol.png style=width:14px;height:14px> give the same result? By labeling the points of the hexagon with the numbers from 0 to 5, we ensure that when we combine two numbers using the hexagon, we only produce numbers between 0 and 5. When we use the arithmetic strategy, adding the second number to the first mimics counting around the hexagon, and subtracting 6 each time we get above 5 makes sure the results correspond to the numbers on the points of the hexagon. <br /><br />Click Continue when you're ready to move on.","orientation_history":[0],"rt":19169,"trial_type":"polygon-arrow-instructions","trial_index":0,"trial_index_global":2,"time_elapsed":194584,"internal_chunk_id":"0-0"},{"nsides":6,"question":"Now try one on your own! What is 4 <img src=./images/hexagon_symbol.png style=width:14px;height:14px> 5? <br /><br /> (Remember, to perform <img src=./images/hexagon_symbol.png style=width:14px;height:14px >, you  can either use a method based on the hexagon at right, or a method based on arithmetic.<br /><br /><b>Hexagon method:</b> you can use the interactive diagram on the right, or perform the operation in your mind. Point the arrow at the first number, then move the arrow the second number of points clockwise around the hexagon. The number the arrow arrives at is your result. <br /><br /><b>Arithmetic method:</b> you start with the first number, and then add the second one to it. If the sum is smaller than 6, that's your result. If the sum is 6 or bigger, you subtract 6 to get your result.)","response_type":"free","response_choices":[],"correct_response":"3","response":"4+5=9","orientation_history":[[0],[0,0.0007195969014581749,0.0014174334943923839,0.0014174334943923839,0.0014174334943923839,0.0014174334943923839,0.0014174334943923839,0.0014174334943923839,0.016546952997193998,-6.2209611924830215,-6.205585068193148,-6.190223478249106,-6.174883638380851,-6.159572702993839,-6.14429774540021,-6.14429774540021,-6.14429774540021,-6.14429774540021,-6.14429774540021,-6.14429774540021,-6.14429774540021,-6.14429774540021,-6.111989599716855,-6.111989599716855,-6.111989599716855,-6.111989599716855,-6.111989599716855,-6.111989599716855,-6.111989599716855,-6.096635719974453,-6.063483987476472,-6.042103598082213,-6.022975952111809,-6.003365355186514,-5.979020879292529,-5.931352247449212,-5.914594039866975,-5.844644654826193,-5.714510314449207,-5.642130890463183,-5.569038459285263,-5.415247318186845,-5.260958142947453,-5.117001359021275,-4.896638934664617,-4.66554826746872,-4.480200317473026,-4.169125514063838,-3.649059436875375,-3.378546049882152,-3.0281837768979996,-2.856916013216373,-2.843061968915637,-2.7440239924256202,-2.710582576281224,-2.6549093578580876,-2.557165294015077,-2.529268052518999,-2.502324587241945,-2.502324587241945,-2.4763239463013043,-2.4671225148723295,-2.42250475886686,-2.3093537772763755,-2.1674567226722115,-2.1674567226722115,-2.1442050998617486,-2.1305607224734544,-2.1305607224734544,-2.075610596407474,-2.031054118271264,-2.009182606446263,-1.9732157264908077,-1.9732157264908077,-1.9732157264908077,-1.9732157264908077,-1.9732157264908077,-1.9732157264908077,-1.9732157264908077,-1.9732157264908077,-1.9732157264908077,-1.9732157264908077,-2.0017866688710413,-2.0017866688710413,-2.023302335559057,-2.023302335559057,-2.023302335559057,-2.023302335559057,-2.023302335559057,-2.023302335559057,-2.023302335559057,-2.0589106876650236,-2.0808571379845127,-2.089439502033752,-2.1030298832466574,-2.1030298832466574,-2.1030298832466574,-2.1030298832466574,-2.1030298832466574,-2.111958217426494,-2.111958217426494,-2.111958217426494,-2.111958217426494,-2.111958217426494,-2.111958217426494,-2.111958217426494,-2.111958217426494,-2.111958217426494,-2.111958217426494,-2.111958217426494,-2.111958217426494,-2.111958217426494,-2.111958217426494,-2.111958217426494,-2.111958217426494,-2.111958217426494,-2.111958217426494,-2.111958217426494,-2.111958217426494,-2.111958217426494,4.1887902047863905],[4.1887902047863905,4.1887902047863905,4.1887902047863905,4.1887902047863905,4.1887902047863905,4.1887902047863905,4.1887902047863905,4.1887902047863905,4.231339268163208,4.290890809432224,4.353501283769296,4.6092919159897985,4.627079112315774,4.698454625914641,4.734119649234404,4.769648963409587,4.787335053424224,4.80495437532185,4.839951021679005,4.8745585280349815,4.9588990397802,4.991597661380629,5.023623321195792,5.070307952117954,5.100479337980641,5.129859493386969,5.144246989775895,5.158430435767203,5.172408556763787,5.172408556763787,5.172408556763787,5.186180435649294,5.213103479076939,5.2184349074685175,5.23127493168734,5.23127493168734,5.23127493168734,5.23127493168734,5.23127493168734,5.23127493168734,5.23127493168734,5.23127493168734,5.23127493168734,5.23127493168734,5.23127493168734,5.23127493168734,5.23127493168734,5.23127493168734,5.235987755982988]],"response_history":["3","4+5=9"],"rt":116605,"trial_type":"polyg on-arrow -question","trial_index":0,"trial_index_global":3,"time_elapsed":311195,"internal_chunk_id":"0-0.3-0"},{"nsides":6,"feedback":"Sorry, that was incorrect. 4 <img src=./images/hexagon_symbol.png style=width:14px;height:14px> 5 = 3 because 5 steps clockwise on the hexagon from 4 brings us to 3. Equivalently, 4 + 5 = 9 and 9 - 6 = 3.","orientation_history":[0],"rt":5815,"trial_type":"polygon-arrow-feedback","trial_index":0,"trial_index_global":4,"time_elapsed":317018,"internal_chunk_id":"0-0.3-0"},{"nsides":6,"question":"What is 3 <img src=./images/hexagon_symbol.png style=width:14px;height:14px> 2? Try to solve this problem using the hexagon. <br /><br /> (Remember, to perform <img src=./images/hexagon_symbol.png style=width:14px;height:14px> on the hexagon, you can use the interactive diagram on the right, or perform the operation in your mind. Point the arrow at the first number on the hexagon, and then move the arrow the second number of points clockw ise arou nd the hexagon.)","response_type":"free","response_choices":[],"correct_response":"5","response":"5","orientation_history":[[0]],"response_history":["5"],"rt":4077,"trial_type":"polygon-arrow-question","trial_index":0,"trial_index_global":5,"time_elapsed":321099,"internal_chunk_id":"0-0.3-0"},{"nsides":6,"feedback":"Correct! 3 <img src=./images/hexagon_symbol.png style=width:14px;height:14px> 2 = 5 because 2 steps clockwise on the hexagon from 3 brings us to 5. Equivalently, 3 + 2 = 5 and 5 is less than 6.","orientation_history":[0],"rt":1006,"trial_type":"polygon-arrow-feedback","trial_index":0,"trial_index_global":6,"time_elapsed":322107,"internal_chunk_id":"0-0.3-0"},{"nsides":6,"question":"What is 1 <img src=./images/hexagon_symbol.png style=width:14px;height:14px> 5? Try to solve this probem using the arithmetic technique. <br /><br /> (Remember, to perform <img src=./images/hexagon_symbol.png style=width:14px;height:14px> by arithmetic, you star t with t he first number, and then add the second one to it. If the sum is smaller than 6, that's your result. If the sum is 6 or bigger, you subtract 6 to get your result.)","response_type":"free","response_choices":[],"correct_response":"0","response":"6","orientation_history":[[0]],"response_history":["6"],"rt":15216,"trial_type":"polygon-arrow-question","trial_index":0,"trial_index_global":7,"time_elapsed":337324,"internal_chunk_id":"0-0.3-0"},{"nsides":6,"feedback":"Sorry, that was incorrect. 1 <img src=./images/hexagon_symbol.png style=width:14px;height:14px> 5 = 0 because 1 + 5 = 6 and 6 - 6 = 0.  Equivalently, 5 steps clockwise on the hexagon from 1 brings us to 0.","orientation_history":[0],"rt":10831,"trial_type":"polygon-arrow-feedback","trial_index":0,"trial_index_global":8,"time_elapsed":348157,"internal_chunk_id":"0-0.3-0"},{"nsides":6,"question":"What is 1 <img src=./images/hexagon_symbol.png style=width:14px;height:14px> 1? Try to solve this problem us ing the  hexagon. <br /><br /> (Remember, to perform <img src=./images/hexagon_symbol.png style=width:14px;height:14px> on the hexagon, you can use the interactive diagram on the right, or perform the operation in your mind. Point the arrow at the first number on the hexagon, and then move the arrow the second number of points clockwise around the hexagon.)","response_type":"free","response_choices":[],"correct_response":"2","response":"0","orientation_history":[[0]],"response_history":["0"],"rt":7469,"trial_type":"polygon-arrow-question","trial_index":0,"trial_index_global":9,"time_elapsed":355627,"internal_chunk_id":"0-0.3-0"},{"nsides":6,"feedback":"Sorry, that was incorrect. 1 <img src=./images/hexagon_symbol.png style=width:14px;height:14px> 1 = 2 because 1 step clockwise on the hexagon from 1 brings us to 2. Equivalently, 1 + 1 = 2 and 2 is less than 6.","orientation_history":[0],"rt":5120,"trial_type":"polygon-arrow-feedback","trial_index":0,"trial_index_global":10,"time_elapsed":360748,"internal_chunk_id":"0-0.3-0"},{"nsides":6,"question":"What is 3 <img src=./images/hexagon_symbol.png style=width:14px;height:14px> 0? Try to solve this problem using the arithmetic technique. <br /><br /> (Remember, to perform <img src=./images/hexagon_symbol.png style=width:14px;height:14px> using arithmetic, you start with the first number, and then add the second one to it. If the sum is smaller than 6, that's your result. If the sum is 6 or bigger, you subtract 6 to get your result.)","response_type":"free","response_choices":[],"correct_response":"3","response":"3","orientation_history":[[0]],"response_history":["3"],"rt":7189,"trial_type":"polygon-arrow-question","trial_index":0,"trial_index_global":11,"time_elapsed":367940,"internal_chunk_id":"0-0.3-0"},{"nsides":6,"feedback":"Correct! 3 <img src=./images/hexagon_symbol.png style=width:14px;height:14px> 0 = 3 because 3 + 0 = 3 and 3 - 6 = 3.  Equivalently, 0 steps clockwise  on the h exagon from 3 brings us to 3.","orientation_history":[0],"rt":773,"trial_type":"polygon-arrow-feedback","trial_index":0,"trial_index_global":12,"time_elapsed":368715,"internal_chunk_id":"0-0.3-0"},{"nsides":6,"question":"What is 4 <img src=./images/hexagon_symbol.png style=width:14px;height:14px> 4? Try to solve this problem using the hexagon. <br /><br /> (Remember, to perform <img src=./images/hexagon_symbol.png style=width:14px;height:14px> on the hexagon, you can use the interactive diagram on the right, or perform the operation in your mind. Point the arrow at the first number on the hexagon, and then move the arrow the second number of points clockwise around the hexagon.)","response_type":"free","response_choices":[],"correct_response":"2","response":"2","orientation_history":[[0]],"response_history":["2"],"rt":2903,"trial_type":"polygon-arrow-question","trial_index":0,"trial_index_global":13,"time_elapsed":371620,"internal_chunk_id":"0-0.3-0"},{"nsides":6,"feedback":"Correct! 4 <img src=./images/hexagon_symbol.png style=width:14px;height:14px> 4 = 2 because 4 steps clockwise on the hexagon from 4 brings us to 2. Equivalently, 4 + 4 = 8 and 8 - 6 = 2.","orientation_history":[0],"rt":958,"trial_type":"polygon-arrow-feedback","trial_index":0,"trial_index_global":14,"time_elapsed":372579,"internal_chunk_id":"0-0.3-0"},{"nsides":6,"question":"What is 1 <img src=./images/hexagon_symbol.png style=width:14px;height:14px> 3? Try to solve this problem using the arithmetic technique. <br /><br /> (Remember, to perform <img src=./images/hexagon_symbol.png style=width:14px;height:14px> by arithmetic, you start with the first number, and then add the second one to it. If the sum is smaller than 6, that's your result. If the sum is 6 or bigger, you subtract 6 to get your result.)","response_type":"free","response_choices":[],"correct_response":"4","response":"4","orientation_history":[[0]],"response_history":["4"],"rt":12720,"trial_type":"polygon-arrow-question","trial_index":0,"trial_index_global":15,"time_elapsed":385300,"internal_chunk_id":"0-0.3-0"},{"nsides":6,"feedback":"Correct! 1 <img src=./images/hexagon_symbol.png style=width:14px;height:14px> 3 = 4 because 1 + 3 = 4 and 4 - 6 = 4.  Equivalently, 3 steps clockwise on the hexagon from 1 brings us to 4.","orientation_history":[0],"rt":18716,"trial_type":"polygon-arrow-feedback","trial_index":0,"trial_index_global":16,"time_elapsed":404019,"internal_chunk_id":"0-0.3-0"},{"nsides":6,"question":"What is 4 <img src=./images/hexagon_symbol.png style=width:14px;height:14px> 3? <br /><br /> (Remember, to perform <img src=./images/hexagon_symbol.png style=width:14px;height:14px>, you can either use a method based on the hexagon at right, or a method based on arithmetic.<br /><br /><b>Hexagon method:</b> you can use the interactive diagram on the right, or perform the operation in your mind. Point the arrow at the first numb er, then  move the arrow the second number of points clockwise around the hexagon. The number the arrow arrives at is your result. <br /><br /><b>Arithmetic method:</b> you start with the first number, and then add the second one to it. If the sum is smaller than 6, that's your result. If the sum is 6 or bigger, you subtract 6 to get your result.)","response_type":"free","response_choices":[],"correct_response":"1","response":"1","orientation_history":[[0]],"response_history":["1"],"rt":19327,"trial_type":"polygon-arrow-question","trial_index":0,"trial_index_global":17,"time_elapsed":423347,"internal_chunk_id":"0-0.3-0"},{"nsides":6,"feedback":"Correct! 4 <img src=./images/hexagon_symbol.png style=width:14px;height:14px> 3 = 1 because 3 steps clockwise on the hexagon from 4 brings us to 1. Equivalently, 4 + 3 = 7 and 7 - 6 = 1.","orientation_history":[0],"rt":710,"trial_type":"polygon-arrow-feedback","trial_index":0,"trial_index_global":18,"time_elapsed":424059,"internal_chunk_id":"0 -0.3-0"},{"nsides":6,"question":"What is 0 <img src=./images/hexagon_symbol.png style=width:14px;height:14px> 5? <br /><br /> (Remember, to perform <img src=./images/hexagon_symbol.png style=width:14px;height:14px>, you can either use a method based on the hexagon at right, or a method based on arithmetic.<br /><br /><b>Hexagon method:</b> you can use the interactive diagram on the right, or perform the operation in your mind. Point the arrow at the first number, then move the arrow the second number of points clockwise around the hexagon. The number the arrow arrives at is your result. <br /><br /><b>Arithmetic method:</b> you start with the first number, and then add the second one to it. If the sum is smaller than 6, that's your result. If the sum is 6 or bigger, you subtract 6 to get your result.)","response_type":"free","response_choices":[],"correct_response":"5","response":"5","orientation_history":[[0]],"response_history":["5"],"rt":6509,"trial_type":"polygon -arrow-question","trial_index":0,"trial_index_global":19,"time_elapsed":430570,"internal_chunk_id":"0-0.3-0"},{"nsides":6,"feedback":"Correct! 0 <img src=./images/hexagon_symbol.png style=width:14px;height:14px> 5 = 5 because 5 steps clockwise on the hexagon from 0 brings us to 5. Equivalently, 0 + 5 = 5 and 5 is less than 6.","orientation_history":[0],"rt":750,"trial_type":"polygon-arrow-feedback","trial_index":0,"trial_index_global":20,"time_elapsed":431322,"internal_chunk_id":"0-0.3-0"},{"nsides":6,"question":"What is 2 <img src=./images/hexagon_symbol.png style=width:14px;height:14px> 5? <br /><br /> (Remember, to perform <img src=./images/hexagon_symbol.png style=width:14px;height:14px>, you can either use a method based on the hexagon at right, or a method based on arithmetic.<br /><br /><b>Hexagon method:</b> you can use the interactive diagram on the right, or perform the operation in your mind. Point the arrow at the first number, then move t he arrow  the second number of points clockwise around the hexagon. The number the arrow arrives at is your result. <br /><br /><b>Arithmetic method:</b> you start with the first number, and then add the second one to it. If the sum is smaller than 6, that's your result. If the sum is 6 or bigger, you subtract 6 to get your result.)","response_type":"free","response_choices":[],"correct_response":"1","response":"1","orientation_history":[[0]],"response_history":["1"],"rt":2927,"trial_type":"polygon-arrow-question","trial_index":0,"trial_index_global":21,"time_elapsed":434250,"internal_chunk_id":"0-0.3-0"},{"nsides":6,"feedback":"Correct! 2 <img src=./images/hexagon_symbol.png style=width:14px;height:14px> 5 = 1 because 5 steps clockwise on the hexagon from 2 brings us to 1. Equivalently, 2 + 5 = 7 and 7 - 6 = 1.","orientation_history":[0],"rt":592,"trial_type":"polygon-arrow-feedback","trial_index":0,"trial_index_global":22,"time_elapsed":434843,"internal_chunk_id":"0-0.3-0"},{"nsides":6,"question":"What is 3 <img src=./images/hexagon_symbol.png style=width:14px;height:14px> 3? <br /><br /> (Remember, to perform <img src=./images/hexagon_symbol.png style=width:14px;height:14px>, you can either use a method based on the hexagon at right, or a method based on arithmetic.<br /><br /><b>Hexagon method:</b> you can use the interactive diagram on the right, or perform the operation in your mind. Point the arrow at the first number, then move the arrow the second number of points clockwise around the hexagon. The number the arrow arrives at is your result. <br /><br /><b>Arithmetic method:</b> you start with the first number, and then add the second one to it. If the sum is smaller than 6, that's your result. If the sum is 6 or bigger, you subtract 6 to get your result.)","response_type":"free","response_choices":[],"correct_response":"0","response":"0","orientation_history":[[0]],"response_history":["0"],"rt":2066,"trial_type":"polygon-arrow-q uestion","trial_index":0,"trial_index_global":23,"time_elapsed":436915,"internal_chunk_id":"0-0.4-0"},{"nsides":6,"feedback":"Correct! 3 <img src=./images/hexagon_symbol.png style=width:14px;height:14px> 3 = 0 because 3 steps clockwise on the hexagon from 3 brings us to 0. Equivalently, 3 + 3 = 6 and 6 - 6 = 0.","orientation_history":[0],"rt":821,"trial_type":"polygon-arrow-feedback","trial_index":0,"trial_index_global":24,"time_elapsed":437739,"internal_chunk_id":"0-0.4-0"},{"nsides":6,"question":"What is 1 <img src=./images/hexagon_symbol.png style=width:14px;height:14px> 2? <br /><br /> (Remember, to perform <img src=./images/hexagon_symbol.png style=width:14px;height:14px>, you can either use a method based on the hexagon at right, or a method based on arithmetic.<br /><br /><b>Hexagon method:</b> you can use the interactive diagram on the right, or perform the operation in your mind. Point the arrow at the first number, then move the arrow the second num ber of p oints clockwise around the hexagon. The number the arrow arrives at is your result. <br /><br /><b>Arithmetic method:</b> you start with the first number, and then add the second one to it. If the sum is smaller than 6, that's your result. If the sum is 6 or bigger, you subtract 6 to get your result.)","response_type":"free","response_choices":[],"correct_response":"3","response":"3","orientation_history":[[0]],"response_history":["3"],"rt":4678,"trial_type":"polygon-arrow-question","trial_index":0,"trial_index_global":25,"time_elapsed":442418,"internal_chunk_id":"0-0.4-0"},{"nsides":6,"feedback":"Correct! 1 <img src=./images/hexagon_symbol.png style=width:14px;height:14px> 2 = 3 because 2 steps clockwise on the hexagon from 1 brings us to 3. Equivalently, 1 + 2 = 3 and 3 is less than 6.","orientation_history":[0],"rt":598,"trial_type":"polygon-arrow-feedback","trial_index":0,"trial_index_global":26,"time_elapsed":443018,"internal_chunk_id":"0-0.4-0"},{"nsides":6,"question":"What is 5 <img src=./images/hexagon_symbol.png style=width:14px;height:14px> 5? <br /><br /> (Remember, to perform <img src=./images/hexagon_symbol.png style=width:14px;height:14px>, you can either use a method based on the hexagon at right, or a method based on arithmetic.<br /><br /><b>Hexagon method:</b> you can use the interactive diagram on the right, or perform the operation in your mind. Point the arrow at the first number, then move the arrow the second number of points clockwise around the hexagon. The number the arrow arrives at is your result. <br /><br /><b>Arithmetic method:</b> you start with the first number, and then add the second one to it. If the sum is smaller than 6, that's your result. If the sum is 6 or bigger, you subtract 6 to get your result.)","response_type":"free","response_choices":[],"correct_response":"4","response":"4","orientation_history":[[0]],"response_history":["4"],"rt":9144,"trial_type":"polygon-arrow-question","trial_index":0,"trial_index_global":27,"time_elapsed":452163,"internal_chunk_id":"0-0.4-0"},{"nsides":6,"feedback":"Correct! 5 <img src=./images/hexagon_symbol.png style=width:14px;height:14px> 5 = 4 because 5 steps clockwise on the hexagon from 5 brings us to 4. Equivalently, 5 + 5 = 10 and 10 - 6 = 4.","orientation_history":[0],"rt":574,"trial_type":"polygon-arrow-feedback","trial_index":0,"trial_index_global":28,"time_elapsed":452739,"internal_chunk_id":"0-0.4-0"},{"nsides":6,"question":"What is 4 <img src=./images/hexagon_symbol.png style=width:14px;height:14px> 2? <br /><br /> (Remember, to perform <img src=./images/hexagon_symbol.png style=width:14px;height:14px>, you can either use a method based on the hexagon at right, or a method based on arithmetic.<br /><br /><b>Hexagon method:</b> you can use the interactive diagram on the right, or perform the operation in your mind. Point the arrow at the first number, then move the arrow the second number of points  clockwis e around the hexagon. The number the arrow arrives at is your result. <br /><br /><b>Arithmetic method:</b> you start with the first number, and then add the second one to it. If the sum is smaller than 6, that's your result. If the sum is 6 or bigger, you subtract 6 to get your result.)","response_type":"free","response_choices":[],"correct_response":"0","response":"0","orientation_history":[[0]],"response_history":["0"],"rt":4356,"trial_type":"polygon-arrow-question","trial_index":0,"trial_index_global":29,"time_elapsed":457095,"internal_chunk_id":"0-0.4-0"},{"nsides":6,"feedback":"Correct! 4 <img src=./images/hexagon_symbol.png style=width:14px;height:14px> 2 = 0 because 2 steps clockwise on the hexagon from 4 brings us to 0. Equivalently, 4 + 2 = 6 and 6 - 6 = 0.","orientation_history":[0],"rt":483,"trial_type":"polygon-arrow-feedback","trial_index":0,"trial_index_global":30,"time_elapsed":457580,"internal_chunk_id":"0-0.4-0"},{"nsides":6,"question":"What is 0 <i mg src=./images/hexagon_symbol.png style=width:14px;height:14px> 2? <br /><br /> (Remember, to perform <img src=./images/hexagon_symbol.png style=width:14px;height:14px>, you can either use a method based on the hexagon at right, or a method based on arithmetic.<br /><br /><b>Hexagon method:</b> you can use the interactive diagram on the right, or perform the operation in your mind. Point the arrow at the first number, then move the arrow the second number of points clockwise around the hexagon. The number the arrow arrives at is your result. <br /><br /><b>Arithmetic method:</b> you start with the first number, and then add the second one to it. If the sum is smaller than 6, that's your result. If the sum is 6 or bigger, you subtract 6 to get your result.)","response_type":"free","response_choices":[],"correct_response":"2","response":"2","orientation_history":[[0]],"response_history":["2"],"rt":4822,"trial_type":"polygon-arrow-question","trial_index":0,"trial_index_global":31,"time_elapsed":462403,"internal_chunk_id":"0-0.4-0"},{"nsides":6,"feedback":"Correct! 0 <img src=./images/hexagon_symbol.png style=width:14px;height:14px> 2 = 2 because 2 steps clockwise on the hexagon from 0 brings us to 2. Equivalently, 0 + 2 = 2 and 2 is less than 6.","orientation_history":[0],"rt":727,"trial_type":"polygon-arrow-feedback","trial_index":0,"trial_index_global":32,"time_elapsed":463132,"internal_chunk_id":"0-0.4-0"},{"nsides":6,"question":"What is 3 <img src=./images/hexagon_symbol.png style=width:14px;height:14px> 5? <br /><br /> (Remember, to perform <img src=./images/hexagon_symbol.png style=width:14px;height:14px>, you can either use a method based on the hexagon at right, or a method based on arithmetic.<br /><br /><b>Hexagon method:</b> you can use the interactive diagram on the right, or perform the operation in your mind. Point the arrow at the first number, then move the arrow the second number of points clockwise around  the hex agon. The number the arrow arrives at is your result. <br /><br /><b>Arithmetic method:</b> you start with the first number, and then add the second one to it. If the sum is smaller than 6, that's your result. If the sum is 6 or bigger, you subtract 6 to get your result.)","response_type":"free","response_choices":[],"correct_response":"2","response":"2","orientation_history":[[0]],"response_history":["2"],"rt":4430,"trial_type":"polygon-arrow-question","trial_index":0,"trial_index_global":33,"time_elapsed":467563,"internal_chunk_id":"0-0.4-0"},{"nsides":6,"feedback":"Correct! 3 <img src=./images/hexagon_symbol.png style=width:14px;height:14px> 5 = 2 because 5 steps clockwise on the hexagon from 3 brings us to 2. Equivalently, 3 + 5 = 8 and 8 - 6 = 2.","orientation_history":[0],"rt":504,"trial_type":"polygon-arrow-feedback","trial_index":0,"trial_index_global":34,"time_elapsed":468069,"internal_chunk_id":"0-0.4-0"},{"nsides":6,"question":"What is 1 <img src=./image s/hexago n_symbol.png style=width:14px;height:14px> 4? <br /><br /> (Remember, to perform <img src=./images/hexagon_symbol.png style=width:14px;height:14px>, you can either use a method based on the hexagon at right, or a method based on arithmetic.<br /><br /><b>Hexagon method:</b> you can use the interactive diagram on the right, or perform the operation in your mind. Point the arrow at the first number, then move the arrow the second number of points clockwise around the hexagon. The number the arrow arrives at is your result. <br /><br /><b>Arithmetic method:</b> you start with the first number, and then add the second one to it. If the sum is smaller than 6, that's your result. If the sum is 6 or bigger, you subtract 6 to get your result.)","response_type":"free","response_choices":[],"correct_response":"5","response":"5","orientation_history":[[0]],"response_history":["5"],"rt":1949,"trial_type":"polygon-arrow-question","trial_index":0,"trial_index_global":35,"time_elapsed":470019,"internal_chunk_id":"0-0.4-0"},{"nsides":6,"feedback":"Correct! 1 <img src=./images/hexagon_symbol.png style=width:14px;height:14px> 4 = 5 because 4 steps clockwise on the hexagon from 1 brings us to 5. Equivalently, 1 + 4 = 5 and 5 is less than 6.","orientation_history":[0],"rt":440,"trial_type":"polygon-arrow-feedback","trial_index":0,"trial_index_global":36,"time_elapsed":470460,"internal_chunk_id":"0-0.4-0"},{"nsides":6,"question":"What is 5 <img src=./images/hexagon_symbol.png style=width:14px;height:14px> 1? <br /><br /> (Remember, to perform <img src=./images/hexagon_symbol.png style=width:14px;height:14px>, you can either use a method based on the hexagon at right, or a method based on arithmetic.<br /><br /><b>Hexagon method:</b> you can use the interactive diagram on the right, or perform the operation in your mind. Point the arrow at the first number, then move the arrow the second number of points clockwise around the hexagon. Th e number  the arrow arrives at is your result. <br /><br /><b>Arithmetic method:</b> you start with the first number, and then add the second one to it. If the sum is smaller than 6, that's your result. If the sum is 6 or bigger, you subtract 6 to get your result.)","response_type":"free","response_choices":[],"correct_response":"0","response":"0","orientation_history":[[0]],"response_history":["0"],"rt":1951,"trial_type":"polygon-arrow-question","trial_index":0,"trial_index_global":37,"time_elapsed":472412,"internal_chunk_id":"0-0.4-0"},{"nsides":6,"feedback":"Correct! 5 <img src=./images/hexagon_symbol.png style=width:14px;height:14px> 1 = 0 because 1 step clockwise on the hexagon from 5 brings us to 0. Equivalently, 5 + 1 = 6 and 6 - 6 = 0.","orientation_history":[0],"rt":550,"trial_type":"polygon-arrow-feedback","trial_index":0,"trial_index_global":38,"time_elapsed":472964,"internal_chunk_id":"0-0.4-0"},{"nsides":6,"question":"What is 1 <img src=./images/hexagon_symbol. png st yle=width:14px;height:14px> 0? <br /><br /> (Remember, to perform <img src=./images/hexagon_symbol.png style=width:14px;height:14px>, you can either use a method based on the hexagon at right, or a method based on arithmetic.<br /><br /><b>Hexagon method:</b> you can use the interactive diagram on the right, or perform the operation in your mind. Point the arrow at the first number, then move the arrow the second number of points clockwise around the hexagon. The number the arrow arrives at is your result. <br /><br /><b>Arithmetic method:</b> you start with the first number, and then add the second one to it. If the sum is smaller than 6, that's your result. If the sum is 6 or bigger, you subtract 6 to get your result.)","response_type":"free","response_choices":[],"correct_response":"1","response":"1","orientation_history":[[0]],"response_history":["1"],"rt":1912,"trial_type":"polygon-arrow-question","trial_index":0,"trial_index_global":39,"time_elapsed":474876,"internal_chunk_id":"0-0.4-0"},{"nsides":6,"feedback":"Correct! 1 <img src=./images/hexagon_symbol.png style=width:14px;height:14px> 0 = 1 because 0 steps clockwise on the hexagon from 1 brings us to 1. Equivalently, 1 + 0 = 1 and 1 is less than 6.","orientation_history":[0],"rt":582,"trial_type":"polygon-arrow-feedback","trial_index":0,"trial_index_global":40,"time_elapsed":475459,"internal_chunk_id":"0-0.4-0"},{"nsides":6,"question":"What is 5 <img src=./images/hexagon_symbol.png style=width:14px;height:14px> 2? <br /><br /> (Remember, to perform <img src=./images/hexagon_symbol.png style=width:14px;height:14px>, you can either use a method based on the hexagon at right, or a method based on arithmetic.<br /><br /><b>Hexagon method:</b> you can use the interactive diagram on the right, or perform the operation in your mind. Point the arrow at the first number, then move the arrow the second number of points clockwise around the hexagon. The number the arro w arrive s at is your result. <br /><br /><b>Arithmetic method:</b> you start with the first number, and then add the second one to it. If the sum is smaller than 6, that's your result. If the sum is 6 or bigger, you subtract 6 to get your result.)","response_type":"free","response_choices":[],"correct_response":"1","response":"1","orientation_history":[[0]],"response_history":["1"],"rt":1896,"trial_type":"polygon-arrow-question","trial_index":0,"trial_index_global":41,"time_elapsed":477356,"internal_chunk_id":"0-0.4-0"},{"nsides":6,"feedback":"Correct! 5 <img src=./images/hexagon_symbol.png style=width:14px;height:14px> 2 = 1 because 2 steps clockwise on the hexagon from 5 brings us to 1. Equivalently, 5 + 2 = 7 and 7 - 6 = 1.","orientation_history":[0],"rt":478,"trial_type":"polygon-arrow-feedback","trial_index":0,"trial_index_global":42,"time_elapsed":477838,"internal_chunk_id":"0-0.4-0"},{"nsides":6,"instructions":"Now we're going to discuss a couple special properties of  this ne w operation, <img src=./images/hexagon_symbol.png style=width:14px;height:14px> that we've learned. First, notice that the number 0 behaves in a special way under <img src=./images/hexagon_symbol.png style=width:14px;height:14px>. Whenever we combine 0 with anything else, we get that same thing back. We'll say that 0 is the <i>identity</i> under <img src=./images/hexagon_symbol.png style=width:14px;height:14px>, because when you combine it with something it gives you that identical thing back.","orientation_history":[0],"rt":14044,"trial_type":"polygon-arrow-instructions","trial_index":0,"trial_index_global":43,"time_elapsed":491884,"internal_chunk_id":"0-0"},{"nsides":6,"instructions":"Now that we know 0 is the identity under <img src=./images/hexagon_symbol.png style=width:14px;height:14px>, we're going to make a new definition. We'll say that the <i>inverse</i> of a number is the element that you combine with it to produce the identity. For  example , 5 <img src=./images/hexagon_symbol.png style=width:14px;height:14px> 1 = 0, so we say 1 is the inverse of 5 under <img src=./images/hexagon_symbol.png style=width:14px;height:14px>, (remember 0 is the identity under <img src=./images/hexagon_symbol.png style=width:14px;height:14px>). Similarly, 3 is its own inverse under <img src=./images/hexagon_symbol.png style=width:14px;height:14px>, because 3 <img src=./images/hexagon_symbol.png style=width:14px;height:14px> 3 = 0.","orientation_history":[0],"rt":30435,"trial_type":"polygon-arrow-instructions","trial_index":0,"trial_index_global":44,"time_elapsed":522321,"internal_chunk_id":"0-0"},{"nsides":6,"question":"Now you try! What is the inverse of 4 under <img src=./images/hexagon_symbol.png style=width:14px;height:14px>? <br /><br /> (Remember, the inverse of an element is the thing which you combine with it to produce the identity.)","response_type":"free","response_choices":[],"correct_response":"2","response":"2","orientation_history":[[0]],"response_history":["2"],"rt":15247,"trial_type":"polygon-arrow-question","trial_index":0,"trial_index_global":45,"time_elapsed":537570,"internal_chunk_id":"0-0.7-0"},{"nsides":6,"feedback":"Correct! The inverse of 4 under <img src=./images/hexagon_symbol.png style=width:14px;height:14px> is 2 because 4 <img src=./images/hexagon_symbol.png style=width:14px;height:14px> 2 = 0, and 0 is the identity under <img src=./images/hexagon_symbol.png style=width:14px;height:14px>.","orientation_history":[0],"rt":495,"trial_type":"polygon-arrow-feedback","trial_index":0,"trial_index_global":46,"time_elapsed":538066,"internal_chunk_id":"0-0.7-0"},{"nsides":6,"question":"What is the inverse of 1 under <img src=./images/hexagon_symbol.png style=width:14px;height:14px>? <br /><br /> (Remember, the inverse of an element is the thing which you combine with it to produce the identity.)","response_type":"free","response_choices":[],"correct_response":"5","response":"5","orientation_history":[[0]],"response_history":["5"],"rt":6712,"trial_type":"polygon-arrow-question","trial_index":0,"trial_index_global":47,"time_elapsed":544779,"internal_chunk_id":"0-0.7-0"},{"nsides":6,"feedback":"Correct! The inverse of 1 under <img src=./images/hexagon_symbol.png style=width:14px;height:14px> is 5 because 1 <img src=./images/hexagon_symbol.png style=width:14px;height:14px> 5 = 0, and 0 is the identity under <img src=./images/hexagon_symbol.png style=width:14px;height:14px>.","orientation_history":[0],"rt":445,"trial_type":"polygon-arrow-feedback","trial_index":0,"trial_index_global":48,"time_elapsed":545226,"internal_chunk_id":"0-0.7-0"},{"nsides":6,"question":"What is the inverse of 3 under <img src=./images/hexagon_symbol.png style=width:14px;height:14px>? <br /><br /> (Remember, the inverse of an element is the thing which you combine with it to produce the id entity.) ","response_type":"free","response_choices":[],"correct_response":"3","response":"3","orientation_history":[[0]],"response_history":["3"],"rt":2015,"trial_type":"polygon-arrow-question","trial_index":0,"trial_index_global":49,"time_elapsed":547242,"internal_chunk_id":"0-0.7-0"},{"nsides":6,"feedback":"Correct! The inverse of 3 under <img src=./images/hexagon_symbol.png style=width:14px;height:14px> is 3 because 3 <img src=./images/hexagon_symbol.png style=width:14px;height:14px> 3 = 0, and 0 is the identity under <img src=./images/hexagon_symbol.png style=width:14px;height:14px>.","orientation_history":[0],"rt":559,"trial_type":"polygon-arrow-feedback","trial_index":0,"trial_index_global":50,"time_elapsed":547802,"internal_chunk_id":"0-0.7-0"},{"nsides":6,"question":"What is the inverse of 2 under <img src=./images/hexagon_symbol.png style=width:14px;height:14px>? <br /><br /> (Remember, the inverse of an element is the thing which you combine  with it  to produce the identity.)","response_type":"free","response_choices":[],"correct_response":"4","response":"4","orientation_history":[[0]],"response_history":["4"],"rt":5223,"trial_type":"polygon-arrow-question","trial_index":0,"trial_index_global":51,"time_elapsed":553026,"internal_chunk_id":"0-0.7-0"},{"nsides":6,"feedback":"Correct! The inverse of 2 under <img src=./images/hexagon_symbol.png style=width:14px;height:14px> is 4 because 2 <img src=./images/hexagon_symbol.png style=width:14px;height:14px> 4 = 0, and 0 is the identity under <img src=./images/hexagon_symbol.png style=width:14px;height:14px>.","orientation_history":[0],"rt":767,"trial_type":"polygon-arrow-feedback","trial_index":0,"trial_index_global":52,"time_elapsed":553794,"internal_chunk_id":"0-0.7-0"},{"nsides":6,"question":"What is the inverse of 0 under <img src=./images/hexagon_symbol.png style=width:14px;height:14px>? <br /><br /> (Remember, the inverse of an element is t he thing  which you combine with it to produce the identity.)","response_type":"free","response_choices":[],"correct_response":"0","response":"6","orientation_history":[[0]],"response_history":["6"],"rt":5019,"trial_type":"polygon-arrow-question","trial_index":0,"trial_index_global":53,"time_elapsed":558814,"internal_chunk_id":"0-0.7-0"},{"nsides":6,"feedback":"Sorry, that was incorrect. The inverse of 0 under <img src=./images/hexagon_symbol.png style=width:14px;height:14px> is 0 because 0 <img src=./images/hexagon_symbol.png style=width:14px;height:14px> 0 = 0, and 0 is the identity under <img src=./images/hexagon_symbol.png style=width:14px;height:14px>.","orientation_history":[0],"rt":3148,"trial_type":"polygon-arrow-feedback","trial_index":0,"trial_index_global":54,"time_elapsed":561963,"internal_chunk_id":"0-0.7-0"},{"nsides":6,"instructions":"It is also possible to successively apply <img src=./images/hexagon_symbol.png style=width:14px;height:14p x>, an d the operation can simply be performed starting with the left-most pair. For example, 2 <img src=./images/hexagon_symbol.png style=width:14px;height:14px> 3 <img src=./images/hexagon_symbol.png style=width:14px;height:14px> 4 = 5 <img src=./images/hexagon_symbol.png style=width:14px;height:14px> 4 = 3.","orientation_history":[0],"rt":51950,"trial_type":"polygon-arrow-instructions","trial_index":0,"trial_index_global":55,"time_elapsed":613915,"internal_chunk_id":"0-0"},{"nsides":6,"instructions":"We have one last definition to learn today, using the successive operations we just learned. Let's start with an example. Under our operation <img src=./images/hexagon_symbol.png style=width:14px;height:14px> we can make every other number using just 1: 2 = 1 <img src=./images/hexagon_symbol.png style=width:14px;height:14px> 1, 3 = 1 <img src=./images/hexagon_symbol.png style=width:14px;height:14px> 1 <img src=./images/hexagon_symbol .png s tyle=width:14px;height:14px> 1, 4 = 1 <img src=./images/hexagon_symbol.png style=width:14px;height:14px> 1 <img src=./images/hexagon_symbol.png style=width:14px;height:14px> 1 <img src=./images/hexagon_symbol.png style=width:14px;height:14px> 1, 5 = 1 <img src=./images/hexagon_symbol.png style=width:14px;height:14px> 1 <img src=./images/hexagon_symbol.png style=width:14px;height:14px> 1 <img src=./images/hexagon_symbol.png style=width:14px;height:14px> 1 <img src=./images/hexagon_symbol.png style=width:14px;height:14px> 1, and 0 = 1 <img src=./images/hexagon_symbol.png style=width:14px;height:14px> 1 <img src=./images/hexagon_symbol.png style=width:14px;height:14px> 1 <img src=./images/hexagon_symbol.png style=width:14px;height:14px> 1 <img src=./images/hexagon_symbol.png style=width:14px;height:14px> 1 <img src=./images/hexagon_symbol.png style=width:14px;height:14px> 1. Beca use 1 ca n make every other element under <img src=./images/hexagon_symbol.png style=width:14px;height:14px>, we say that 1 is a <i>generator</i> under <img src=./images/hexagon_symbol.png style=width:14px;height:14px>. <br /><br /> However, 2 is not a generator under <img src=./images/hexagon_symbol.png style=width:14px;height:14px>, because 4 = 2 <img src=./images/hexagon_symbol.png style=width:14px;height:14px> 2, and 0 = 2 <img src=./images/hexagon_symbol.png style=width:14px;height:14px> 2 <img src=./images/hexagon_symbol.png style=width:14px;height:14px> 2, but there is no way to make 1, 3, or 5 using just 2.","orientation_history":[0],"rt":104381,"trial_type":"polygon-arrow-instructions","trial_index":0,"trial_index_global":56,"time_elapsed":718299,"internal_chunk_id":"0-0"},{"nsides":6,"question":"Now you try! Is 3 a generator under <img src=./images/hexagon_symbol.png style=width:14px;height:14px>? <br /><br /> (Remembe r, a gen erator is an element which can make every other element.)","response_type":"multi","response_choices":["Yes","No"],"correct_response":"No","response":"No","orientation_history":[[0]],"response_history":["No"],"rt":15376,"trial_type":"polygon-arrow-question","trial_index":0,"trial_index_global":57,"time_elapsed":733681,"internal_chunk_id":"0-0.10-0"},{"nsides":6,"feedback":"Correct! 3 is not a generator under <img src=./images/hexagon_symbol.png style=width:14px;height:14px>, because 3 = 3, 0 = 3 <img src=./images/hexagon_symbol.png style=width:14px;height:14px> 3, but there is no way to make 1, 2, 4, or 5 using just 3.","orientation_history":[0],"rt":1144,"trial_type":"polygon-arrow-feedback","trial_index":0,"trial_index_global":58,"time_elapsed":734829,"internal_chunk_id":"0-0.10-0"},{"nsides":6,"question":"Is 5 a generator under <img src=./images/hexagon_symbol.png style=width:14px;height:14px>? <br /><br /> (Remember, a generator is an element whic h can ma ke every other element.)","response_type":"multi","response_choices":["Yes","No"],"correct_response":"Yes","response":"No","orientation_history":[[0]],"response_history":["No"],"rt":23782,"trial_type":"polygon-arrow-question","trial_index":0,"trial_index_global":59,"time_elapsed":758612,"internal_chunk_id":"0-0.10-0"},{"nsides":6,"feedback":"Sorry, that's incorrect. 5 is a generator under <img src=./images/hexagon_symbol.png style=width:14px;height:14px>, because 5 = 5, 4 = 5 <img src=./images/hexagon_symbol.png style=width:14px;height:14px> 5, 3 = 5 <img src=./images/hexagon_symbol.png style=width:14px;height:14px> 5 <img src=./images/hexagon_symbol.png style=width:14px;height:14px> 5, 2 = 5 <img src=./images/hexagon_symbol.png style=width:14px;height:14px> 5 <img src=./images/hexagon_symbol.png style=width:14px;height:14px> 5 <img src=./images/hexagon_symbol.png style=width:14px;height:14px> 5, 1 = 5 <img src=./imag es/hexag on_symbol.png style=width:14px;height:14px> 5 <img src=./images/hexagon_symbol.png style=width:14px;height:14px> 5 <img src=./images/hexagon_symbol.png style=width:14px;height:14px> 5 <img src=./images/hexagon_symbol.png style=width:14px;height:14px> 5, and 0 = 5 <img src=./images/hexagon_symbol.png style=width:14px;height:14px> 5 <img src=./images/hexagon_symbol.png style=width:14px;height:14px> 5 <img src=./images/hexagon_symbol.png style=width:14px;height:14px> 5 <img src=./images/hexagon_symbol.png style=width:14px;height:14px> 5 <img src=./images/hexagon_symbol.png style=width:14px;height:14px> 5, so you can make all of the numbers under <img src=./images/hexagon_symbol.png style=width:14px;height:14px> using 5","orientation_history":[0],"rt":26848,"trial_type":"polygon-arrow-feedback","trial_index":0,"trial_index_global":60,"time_elapsed":785463,"internal_chunk_id":"0-0.10-0"},{"nsides":6,"question":"Is 4 a generator under <img src=./images/hexagon_symbol.png style=width:14px;height:14px>? <br /><br /> (Remember, a generator is an element which can make every other element.)","response_type":"multi","response_choices":["Yes","No"],"correct_response":"No","response":"No","orientation_history":[[0]],"response_history":["No"],"rt":26652,"trial_type":"polygon-arrow-question","trial_index":0,"trial_index_global":61,"time_elapsed":812117,"internal_chunk_id":"0-0.10-0"},{"nsides":6,"feedback":"Correct! 4 is not a generator under <img src=./images/hexagon_symbol.png style=width:14px;height:14px>, because 4 = 4, 2 = 4 <img src=./images/hexagon_symbol.png style=width:14px;height:14px> 4, and 0 = 4 <img src=./images/hexagon_symbol.png style=width:14px;height:14px> 4 <img src=./images/hexagon_symbol.png style=width:14px;height:14px> 4, but there is no way to make 1, 3, or 5 using just 4.","orientation_history":[0],"rt":958,"trial_type":"polyg on-arrow -feedback","trial_index":0,"trial_index_global":62,"time_elapsed":813077,"internal_chunk_id":"0-0.10-0"},{"nsides":6,"question":"Is 0 a generator under <img src=./images/hexagon_symbol.png style=width:14px;height:14px>? <br /><br /> (Remember, a generator is an element which can make every other element.)","response_type":"multi","response_choices":["Yes","No"],"correct_response":"No","response":"No","orientation_history":[[0]],"response_history":["No"],"rt":7168,"trial_type":"polygon-arrow-question","trial_index":0,"trial_index_global":63,"time_elapsed":820246,"internal_chunk_id":"0-0.10-0"},{"nsides":6,"feedback":"Correct! 0 is not a generator under <img src=./images/hexagon_symbol.png style=width:14px;height:14px>, because 0 = 0, but there is no way to make 1, 2, 3, 4, or 5 using just 0.","orientation_history":[0],"rt":877,"trial_type":"polygon-arrow-feedback","trial_index":0,"trial_index_global":64,"time_elapsed":821124,"internal_chunk_id":"0-0.10-0"},{"nsides":9,"instructions":"Now we are going to ask you some questions about a new operation, <img src=./images/nonagon_symbol.png style=width:14px;height:14px>, on the numbers 0, 1, 2, 3, 4, 5, 6, 7, 8. It works exactly like <img src=./images/hexagon_symbol.png style=width:14px;height:14px>, except now you use the nonagon shown at the right. Equivalently, after adding the two numbers you subtract 9 if your result is 9 or greater.<br /><br />Do you see how the different ways of performing <img src=./images/nonagon_symbol.png style=width:14px;height:14px> give the same result, just like with <img src=./images/hexagon_symbol.png style=width:14px;height:14px>? By labeling the points of the nonagon with the numbers from 0 to 8, we ensure that when we combine two numbers under <img src=./images/nonagon_symbol.png style=width:14px;height:14px>, we only produce numbers between 0 and 8. When we use the arithmetic strategy, adding the second number to the  first m imics counting around the nonagon, and subtracting 9 each time we get above 8 makes sure the results correspond to the numbers on the points of the nonagon.<br /><br />We'll give you one practice question with feedback to make sure you understand the new operation. After that, try to complete the remaining questions as accurately as possible.","orientation_history":[0],"rt":40399,"trial_type":"polygon-arrow-instructions","trial_index":0,"trial_index_global":65,"time_elapsed":861526,"internal_chunk_id":"0-0"},{"nsides":9,"question":"Practice: What is 5 <img src=./images/nonagon_symbol.png style=width:14px;height:14px> 5?","response_type":"free","response_choices":[],"correct_response":"1","response":"1","orientation_history":[[0]],"response_history":["1"],"rt":20851,"trial_type":"polygon-arrow-question","trial_index":0,"trial_index_global":66,"time_elapsed":882380,"internal_chunk_id":"0-0.12-0"},{"nsides":9,"feedback":"Correct! 5 <img src=./images/nonagon_symbol.png  style =width:14px;height:14px> 5 = 1 because 5 steps clockwise on the nonagon from 5 brings us to 1. Equivalently, 5 + 5 = 10 and 10 - 9 = 1.","orientation_history":[0],"rt":956,"trial_type":"polygon-arrow-feedback","trial_index":0,"trial_index_global":67,"time_elapsed":883339,"internal_chunk_id":"0-0.12-0"},{"nsides":9,"question":"What is 3 <img src=./images/nonagon_symbol.png style=width:14px;height:14px> 3?","response_type":"free","response_choices":[],"correct_response":"6","response":"6","orientation_history":[[0]],"response_history":["6"],"rt":3599,"trial_type":"polygon-arrow-question","trial_index":0,"trial_index_global":68,"time_elapsed":886939,"internal_chunk_id":"0-0.12-0"},{"nsides":9,"question":"What is 7 <img src=./images/nonagon_symbol.png style=width:14px;height:14px> 4?","response_type":"free","response_choices":[],"correct_response":"2","response":"2","orientation_history":[[0]],"response_history":["2"],"rt":13470,"trial_type":"polygon-arrow-qu estion","trial_index":0,"trial_index_global":69,"time_elapsed":900411,"internal_chunk_id":"0-0.12-0"},{"nsides":9,"question":"What is 1 <img src=./images/nonagon_symbol.png style=width:14px;height:14px> 8?","response_type":"free","response_choices":[],"correct_response":"0","response":"0","orientation_history":[[0]],"response_history":["0"],"rt":9391,"trial_type":"polygon-arrow-question","trial_index":0,"trial_index_global":70,"time_elapsed":909804,"internal_chunk_id":"0-0.12-0"},{"nsides":9,"question":"What is 5 <img src=./images/nonagon_symbol.png style=width:14px;height:14px> 4?","response_type":"free","response_choices":[],"correct_response":"0","response":"0","orientation_history":[[0]],"response_history":["0"],"rt":12350,"trial_type":"polygon-arrow-question","trial_index":0,"trial_index_global":71,"time_elapsed":922156,"internal_chunk_id":"0-0.12-0"},{"nsides":9,"question":"What is 6 <img src=./images/nonagon_symbol.png style=width:14px;height:14px> 6?","response_type":"free","response_choices":[],"correct_response":"3","response":"3","orientation_history":[[0]],"response_history":["3"],"rt":7135,"trial_type":"polygon-arrow-question","trial_index":0,"trial_index_global":72,"time_elapsed":929293,"internal_chunk_id":"0-0.12-0"},{"nsides":9,"question":"What is 4 <img src=./images/nonagon_symbol.png style=width:14px;height:14px> 1? Please explain in words how you got your answer.","response_type":"free","response_choices":[],"correct_response":"","response":"5, four plus one is five or if you start at four and move clockwise one, you land on 5","orientation_history":[[0]],"response_history":["5, four plus one is five or if you start at four and move clockwise n","5, four plus one is five or if you start at four and move clockwise one, you land on 5"],"rt":32956,"trial_type":"polygon-arrow-question","trial_index":0,"trial_index_global":73,"time_elapsed":962251,"internal_chunk_id":"0-0.12-0"},{"nsides":9,"question":"What is 8 <i mg src=./images/nonagon_symbol.png style=width:14px;height:14px> 4? Please explain in words how you got your answer.","response_type":"free","response_choices":[],"correct_response":"","response":"3, 8 plus 4 equals 12, 12 minus 9 equals 3","orientation_history":[[0]],"response_history":["3, 8 plus 4 equals 12, 12 minus 9 equals 3"],"rt":51710,"trial_type":"polygon-arrow-question","trial_index":0,"trial_index_global":74,"time_elapsed":1013962,"internal_chunk_id":"0-0.12-0"},{"nsides":9,"question":"What is the identity under <img src=./images/nonagon_symbol.png style=width:14px;height:14px>? Please explain in words how you got your answer.","response_type":"free","response_choices":[],"correct_response":"0","response":"0, each number(9)0 is that same number, for example, 2(9)0 is 2 because you start on 2 and move clockwise 0 times or don't move at all: 3(9)0=3, 4(9)0=4, 8(9)0=8 and so on","orientation_history":[[0]],"response_history":["0, each number (9) 0 is that sa me numbe r, for example, 2(9)2","0, each number (9) 0 is that same number, for example, 2(9)0 is 2 becuase you","0, each number (9) 0 is that same number, for example, 2(9)0 is 2 becuase yo","0, each number (9) 0 is that same number, for example, 2(9)0 is 2 becuase y","0, each number (9) 0 is that same number, for example, 2(9)0 is 2 becuase ","0, each number (9) 0 is that same number, for example, 2(9)0 is 2 becuase","0, each number (9) 0 is that same number, for example, 2(9)0 is 2 becuas","0, each number (9) 0 is that same number, for example, 2(9)0 is 2 becua","0, each number (9) 0 is that same number, for example, 2(9)0 is 2 becu","0, each number (9) 0 is that same number, for example, 2(9)0 is 2 because you start on 2, ","0, each number (9) 0 is that same number, for example, 2(9)0 is 2 because you start on 2,","0, each number (9) 0 is that same number, for example, 2(9)0 is 2 because you start on 2 and move clockwise 0 times or don't move at all: 3(9)0 ","0, each number (9) 0  is that  same number, for example, 2(9)0 is 2 because you start on 2 and move clockwise 0 times or don't move at all: 3(9)0=3, 4(0)","0, each number (9) 0 is that same number, for example, 2(9)0 is 2 because you start on 2 and move clockwise 0 times or don't move at all: 3(9)0=3, 4(0","0, each number (9) 0 is that same number, for example, 2(9)0 is 2 because you start on 2 and move clockwise 0 times or don't move at all: 3(9)0=3, 4(9)0 ","0, each number (9) 0 is that same number, for example, 2(9)0 is 2 because you start on 2 and move clockwise 0 times or don't move at all: 3(9)0=3, 4(9)0-","0, each number (9) 0 is that same number, for example, 2(9)0 is 2 because you start on 2 and move clockwise 0 times or don't move at all: 3(9)0=3, 4(9)0=4, 8(9)0=8 and so on","0, each number (9)0 is that same number, for example, 2(9)0 is 2 because you start on 2 and move clockwise 0 times or don't move at all: 3(9)0=3, 4(9)0=4, 8(9)0=8 and so on","0, each number(9)0 is that same number, for exam ple, 2(9 )0 is 2 because you start on 2 and move clockwise 0 times or don't move at all: 3(9)0=3, 4(9)0=4, 8(9)0=8 and so on"],"rt":129740,"trial_type":"polygon-arrow-question","trial_index":0,"trial_index_global":75,"time_elapsed":1143703,"internal_chunk_id":"0-0.12-0"},{"nsides":9,"question":"What is the inverse of 5 under <img src=./images/nonagon_symbol.png style=width:14px;height:14px>?","response_type":"free","response_choices":[],"correct_response":"4","response":"4","orientation_history":[[0]],"response_history":["4"],"rt":44291,"trial_type":"polygon-arrow-question","trial_index":0,"trial_index_global":76,"time_elapsed":1187995,"internal_chunk_id":"0-0.12-0"},{"nsides":9,"question":"What is the inverse of 2 under <img src=./images/nonagon_symbol.png style=width:14px;height:14px>?","response_type":"free","response_choices":[],"correct_response":"7","response":"7","orientation_history":[[0]],"response_history":["7"],"rt":11918,"trial_type":"polygon-arrow-questio n","trial_index":0,"trial_index_global":77,"time_elapsed":1199915,"internal_chunk_id":"0-0.12-0"},{"nsides":9,"question":"What is the inverse of 0 under <img src=./images/nonagon_symbol.png style=width:14px;height:14px>?","response_type":"free","response_choices":[],"correct_response":"0","response":"0","orientation_history":[[0]],"response_history":["0"],"rt":4270,"trial_type":"polygon-arrow-question","trial_index":0,"trial_index_global":78,"time_elapsed":1204187,"internal_chunk_id":"0-0.12-0"},{"nsides":9,"question":"What is the inverse of 3 under <img src=./images/nonagon_symbol.png style=width:14px;height:14px>? Please explain in words how you got your answer.","response_type":"free","response_choices":[],"correct_response":"","response":"6, 9-3=6 or if you start at 3 and move 6 times you land on 0, the inverse is the amount of times that you have to move clockwise from a starting number to produce or land on 0.","orientation_history":[[0]],"response_history":["6 , 9-3=6  or if you start at 3 and move 6 times you land on 0, the inverse is any num","6, 9-3=6 or if you start at 3 and move 6 times you land on 0, the inverse is any nu","6, 9-3=6 or if you start at 3 and move 6 times you land on 0, the inverse is any n","6, 9-3=6 or if you start at 3 and move 6 times you land on 0, the inverse is any ","6, 9-3=6 or if you start at 3 and move 6 times you land on 0, the inverse is any","6, 9-3=6 or if you start at 3 and move 6 times you land on 0, the inverse is an","6, 9-3=6 or if you start at 3 and move 6 times you land on 0, the inverse is a","6, 9-3=6 or if you start at 3 and move 6 times you land on 0, the inverse is the amount of times that you m","6, 9-3=6 or if you start at 3 and move 6 times you land on 0, the inverse is the amount of times that you have to move clockwise from a starting number to produce or land on 0."],"rt":80371,"trial_type":"polygon-arrow-question","trial_index":0,"trial_index_global":79,"time_elapsed":1284560,"internal_chunk_id":"0-0.12-0"},{"nsides":9,"question":"Is 2 a generator under <img src=./images/nonagon_symbol.png style=width:14px;height:14px>? Please explain in words how you got your answer.","response_type":"free","response_choices":[],"correct_response":"","response":"yes, if you start at 2 and move 2 steps, you get 4, 2 more is 6, 8=2(9)2(9)2(9)2 0=2(9)2(9)2(9)2(9)2(9)2(9)2(9)2 1= 13 2(9)2 and so on","orientation_history":[[0]],"response_history":["yes, if you start at 2 and move 2 steps, you get 4, 2 more and ","yes, if you start at 2 and move 2 steps, you get 4, 2 more and","yes, if you start at 2 and move 2 steps, you get 4, 2 more an","yes, if you start at 2 and move 2 steps, you get 4, 2 more a","yes, if you start at 2 and move 2 steps, you get 4, 2 more is 6, 2(9)2(9)","yes, if you start at 2 and move 2 steps, you get 4, 2 more is 6, 2(9)2(9","yes, if you start at 2 and move 2 steps, you get 4, 2 more is 6, 2(9)2(","yes, if you start at 2 and move 2 steps, you get 4, 2  more is  6, 2(9)2(9)2(9)2","yes, if you start at 2 and move 2 steps, you get 4, 2 more is 6, 82(9)2(9)2(9)2","yes, if you start at 2 and move 2 steps, you get 4, 2 more is 6, 8=2(9)2(9)2(9)2 9=2(9)2(9)2(9)2(9)2(9)2","yes, if you start at 2 and move 2 steps, you get 4, 2 more is 6, 8=2(9)2(9)2(9)2 0=2(9)2(9)2(9)2(9)2(9)2(9)2(9)2 1= 13 2V","yes, if you start at 2 and move 2 steps, you get 4, 2 more is 6, 8=2(9)2(9)2(9)2 0=2(9)2(9)2(9)2(9)2(9)2(9)2(9)2 1= 13 2(9)2 and so on"],"rt":327341,"trial_type":"polygon-arrow-question","trial_index":0,"trial_index_global":80,"time_elapsed":1611908,"internal_chunk_id":"0-0.12-0"},{"nsides":9,"question":"Is 3 a generator under <img src=./images/nonagon_symbol.png style=width:14px;height:14px>? Please explain in words how you got your answer.","response_type":"free","response_choices":[],"correct_response":"","response":"no, 3 will only produce 3, 6, and 0. 3 doesn't work for 1, 2, 4, 5, 7, and 8.","orientation_history":[[0]],"response_history":["no,  3(9)3 only","no, 3(9)3 onl","no, 3(9)3 on","no, 3(9)3 o","no, 3(9)3 ","no, 3(9)3","no, 3(9)","no, 3(9","no, 3(","no, 3 will only produce 3, 6, and 0. 1, 2, 4, 5, 7, 8","no, 3 will only produce 3, 6, and 0. 1, 2, 4, 5, 7, and 8.","no, 3 will only produce 3, 6, and 0. 31, 2, 4, 5, 7, and 8.","no, 3 will only produce 3, 6, and 0. 3 1, 2, 4, 5, 7, and 8.","no, 3 will only produce 3, 6, and 0. 3 d1, 2, 4, 5, 7, and 8.","no, 3 will only produce 3, 6, and 0. 3 do1, 2, 4, 5, 7, and 8.","no, 3 will only produce 3, 6, and 0. 3 doe1, 2, 4, 5, 7, and 8.","no, 3 will only produce 3, 6, and 0. 3 does1, 2, 4, 5, 7, and 8.","no, 3 will only produce 3, 6, and 0. 3 doesn1, 2, 4, 5, 7, and 8.","no, 3 will only produce 3, 6, and 0. 3 doesn'1, 2, 4, 5, 7, and 8.","no, 3 will only produce 3, 6, and 0. 3 doesn't1, 2, 4, 5, 7, and 8.","no, 3 will only produce 3, 6, and 0. 3 doesn't 1, 2, 4, 5, 7, and 8.","no, 3 will only produce 3, 6, and 0. 3 doesn't w1, 2, 4, 5, 7, and 8.","no, 3 will only produ ce 3, 6,  and 0. 3 doesn't wo1, 2, 4, 5, 7, and 8.","no, 3 will only produce 3, 6, and 0. 3 doesn't wor1, 2, 4, 5, 7, and 8.","no, 3 will only produce 3, 6, and 0. 3 doesn't work1, 2, 4, 5, 7, and 8.","no, 3 will only produce 3, 6, and 0. 3 doesn't work 1, 2, 4, 5, 7, and 8.","no, 3 will only produce 3, 6, and 0. 3 doesn't work f1, 2, 4, 5, 7, and 8.","no, 3 will only produce 3, 6, and 0. 3 doesn't work fo1, 2, 4, 5, 7, and 8.","no, 3 will only produce 3, 6, and 0. 3 doesn't work for1, 2, 4, 5, 7, and 8.","no, 3 will only produce 3, 6, and 0. 3 doesn't work for 1, 2, 4, 5, 7, and 8."],"rt":116514,"trial_type":"polygon-arrow-question","trial_index":0,"trial_index_global":81,"time_elapsed":1728430,"internal_chunk_id":"0-0.12-0"},{"nsides":9,"question":"Is 5 a generator under <img src=./images/nonagon_symbol.png style=width:14px;height:14px>? Please explain in words how you got your answer.","response_type":"free","response_choices":[],"correct_response":"","response":"yes, 5(9) 5 = 1, 5 (9)5(9)5 = 6 5(9)5(9)5(9)5 = 2, 5(9)5(9)5(9)5(9)5 = 7, 5(9)5(9)5(9)5(9)5(9)5 = 3, 5(9)5(9)5(9)5(9)5(9)5(9)5 = 8, this pattern (adding an additional 5) can produce each of the 9 numbers on the wheel. ","orientation_history":[[0]],"response_history":["yes, 5(9)5 = 1, 5(9)5(9)5 = 6 5(9)5(9)55(9)5(9)5","yes, 5(9)5 = 1, 5(9)5(9)5 = 6 5(9)5(9)55(9)","yes, 5(9)5 = 1, 5(9)5(9)5 = 6 5(9)5(9)5(9)5 = , 5(9)5(9)55(9)5(9)5","yes, 5(9)5 = 1, 5(9)5(9)5 = 6 5(9)5(9)5(9)5 = , 5(9)5(9)5(9)5(9)5 = , ","yes, 5(9)5 = 1, 5(9)5(9)5 = 6 5(9)5(9)5(9)5 = 2, 5(9)5(9)5(9)5(9)5 = , ","yes, 5(9)5 = 1, 5(9)5(9)5 = 6 5(9)5(9)5(9)5 = 2, 5(9)5(9)5(9)5(9)5 =  , ","yes, 5(9)5 = 1, 5(9)5(9)5 = 6 5(9)5(9)5(9)5 = 2, 5(9)5(9)5(9)5(9)5 = 7 , ","yes, 5(9)5 = 1, 5(9)5(9)5 = 6 5(9)5(9)5(9)5 = 2, 5(9)5(9)5(9)5(9)5 = 7,  ","yes, 5(9)5 = 1, 5(9)5(9)5 = 6 5(9)5(9)5(9)5 = 2, 5(9)5(9)5(9)5(9)5 = 7, 5(9)5(9)5(9)5(9)5 ","yes, 5(9)5 = 1, 5(9)5(9)5 = 6 5(9)5(9)5(9)5 = 2, 5(9)5(9)5(9)5(9)5 = 7, 5(9)5(9)5(9)5(9)5( ","yes, 5(9)5 =  1, 5(9) 5(9)5 = 6 5(9)5(9)5(9)5 = 2, 5(9)5(9)5(9)5(9)5 = 7, 5(9)5(9)5(9)5(9)5(9 ","yes, 5(9)5 = 1, 5(9)5(9)5 = 6 5(9)5(9)5(9)5 = 2, 5(9)5(9)5(9)5(9)5 = 7, 5(9)5(9)5(9)5(9)5(9) ","yes, 5(9)5 = 1, 5(9)5(9)5 = 6 5(9)5(9)5(9)5 = 2, 5(9)5(9)5(9)5(9)5 = 7, 5(9)5(9)5(9)5(9)5(9)5  ","yes, 5(9)5 = 1, 5(9)5(9)5 = 6 5(9)5(9)5(9)5 = 2, 5(9)5(9)5(9)5(9)5 = 7, 5(9)5(9)5(9)5(9)5(9)5 =  ","yes, 5(9)5 = 1, 5(9)5(9)5 = 6 5(9)5(9)5(9)5 = 2, 5(9)5(9)5(9)5(9)5 = 7, 5(9)5(9)5(9)5(9)5(9)5 = 3 ","yes, 5(9)5 = 1, 5(9)5(9)5 = 6 5(9)5(9)5(9)5 = 2, 5(9)5(9)5(9)5(9)5 = 7, 5(9)5(9)5(9)5(9)5(9)5 = 3,  ","yes, 5(9)5 = 1, 5(9)5(9)5 = 6 5(9)5(9)5(9)5 = 2, 5(9)5(9)5(9)5(9)5 = 7, 5(9)5(9)5(9)5(9)5(9)5 = 3, 5(9)5(9)5(9)5(9)5 ","yes, 5(9)5 = 1, 5(9)5(9)5 = 6 5(9)5(9)5(9)5 = 2, 5(9)5(9)5(9)5(9)5 = 7, 5(9)5(9)5(9)5(9)5(9)5 = 3, 5(9)5(9)5(9)5(9)5( ","yes, 5(9)5 = 1, 5(9)5(9)5 = 6 5(9)5(9)5(9)5 = 2, 5(9)5(9)5(9)5(9)5 = 7, 5(9)5(9)5(9)5(9)5(9)5 = 3, 5(9)5(9)5(9)5(9)5(9 ","yes, 5(9)5 = 1, 5(9)5(9)5 = 6 5(9)5(9)5(9)5 = 2, 5(9) 5(9)5(9) 5(9)5 = 7, 5(9)5(9)5(9)5(9)5(9)5 = 3, 5(9)5(9)5(9)5(9)5(9) ","yes, 5(9)5 = 1, 5(9)5(9)5 = 6 5(9)5(9)5(9)5 = 2, 5(9)5(9)5(9)5(9)5 = 7, 5(9)5(9)5(9)5(9)5(9)5 = 3, 5(9)5(9)5(9)5(9)5(9)5 ","yes, 5(9)5 = 1, 5(9)5(9)5 = 6 5(9)5(9)5(9)5 = 2, 5(9)5(9)5(9)5(9)5 = 7, 5(9)5(9)5(9)5(9)5(9)5 = 3, 5(9)5(9)5(9)5(9)5(9)5( ","yes, 5(9)5 = 1, 5(9)5(9)5 = 6 5(9)5(9)5(9)5 = 2, 5(9)5(9)5(9)5(9)5 = 7, 5(9)5(9)5(9)5(9)5(9)5 = 3, 5(9)5(9)5(9)5(9)5(9)5(9 ","yes, 5(9)5 = 1, 5(9)5(9)5 = 6 5(9)5(9)5(9)5 = 2, 5(9)5(9)5(9)5(9)5 = 7, 5(9)5(9)5(9)5(9)5(9)5 = 3, 5(9)5(9)5(9)5(9)5(9)5(9) ","yes, 5(9)5 = 1, 5(9)5(9)5 = 6 5(9)5(9)5(9)5 = 2, 5(9)5(9)5(9)5(9)5 = 7, 5(9)5(9)5(9)5(9)5(9)5 = 3, 5(9)5(9)5(9)5(9)5(9)5(9)5 ","yes, 5(9)5 = 1, 5(9)5(9)5 = 6 5(9)5(9)5(9)5 = 2, 5(9)5(9)5(9)5(9)5 = 7, 5(9)5(9)5(9)5(9)5(9)5 = 3, 5(9)5(9)5(9)5(9)5(9)5(9)5=  ","yes, 5(9)5 = 1, 5(9)5(9)5 = 6 5(9)5(9)5(9)5 = 2, 5(9)5(9)5(9)5(9)5 = 7, 5(9)5(9)5(9)5(9)5(9)5 = 3, 5(9)5(9)5(9)5(9)5(9)5(9)5 =   ","yes, 5(9)5 = 1, 5(9)5(9)5 = 6 5(9)5 (9)5(9)5  = 2, 5(9)5(9)5(9)5(9)5 = 7, 5(9)5(9)5(9)5(9)5(9)5 = 3, 5(9)5(9)5(9)5(9)5(9)5(9)5 = 8  ","yes, 5(9)5 = 1, 5(9)5(9)5 = 6 5(9)5(9)5(9)5 = 2, 5(9)5(9)5(9)5(9)5 = 7, 5(9)5(9)5(9)5(9)5(9)5 = 3, 5(9)5(9)5(9)5(9)5(9)5(9)5 = 8,   ","yes, 5(9)5 = 1, 5(9)5(9)5 = 6 5(9)5(9)5(9)5 = 2, 5(9)5(9)5(9)5(9)5 = 7, 5(9)5(9)5(9)5(9)5(9)5 = 3, 5(9)5(9)5(9)5(9)5(9)5(9)5 = 8, t  ","yes, 5(9)5 = 1, 5(9)5(9)5 = 6 5(9)5(9)5(9)5 = 2, 5(9)5(9)5(9)5(9)5 = 7, 5(9)5(9)5(9)5(9)5(9)5 = 3, 5(9)5(9)5(9)5(9)5(9)5(9)5 = 8, thi  ","yes, 5(9)5 = 1, 5(9)5(9)5 = 6 5(9)5(9)5(9)5 = 2, 5(9)5(9)5(9)5(9)5 = 7, 5(9)5(9)5(9)5(9)5(9)5 = 3, 5(9)5(9)5(9)5(9)5(9)5(9)5 = 8, this   ","yes, 5(9)5 = 1, 5(9)5(9)5 = 6 5(9)5(9)5(9)5 = 2, 5(9)5(9)5(9)5(9)5 = 7, 5(9)5(9)5(9)5(9)5(9)5 = 3, 5(9)5(9)5(9)5(9)5(9)5(9)5 = 8, this p  ","yes, 5(9)5 = 1, 5(9)5(9)5 = 6 5(9)5(9)5(9)5 = 2, 5(9)5(9)5(9)5(9)5 = 7, 5(9)5(9)5(9)5(9)5(9)5 = 3, 5(9)5(9)5(9)5(9)5(9)5(9)5 = 8, this pa  ","yes, 5(9)5 = 1, 5(9)5(9)5 = 6 5(9)5(9)5(9)5 = 2, 5(9)5(9)5(9)5(9)5  = 7, 5(9 )5(9)5(9)5(9)5(9)5 = 3, 5(9)5(9)5(9)5(9)5(9)5(9)5 = 8, this pat  ","yes, 5(9)5 = 1, 5(9)5(9)5 = 6 5(9)5(9)5(9)5 = 2, 5(9)5(9)5(9)5(9)5 = 7, 5(9)5(9)5(9)5(9)5(9)5 = 3, 5(9)5(9)5(9)5(9)5(9)5(9)5 = 8, this patt  ","yes, 5(9)5 = 1, 5(9)5(9)5 = 6 5(9)5(9)5(9)5 = 2, 5(9)5(9)5(9)5(9)5 = 7, 5(9)5(9)5(9)5(9)5(9)5 = 3, 5(9)5(9)5(9)5(9)5(9)5(9)5 = 8, this patter  ","yes, 5(9)5 = 1, 5(9)5(9)5 = 6 5(9)5(9)5(9)5 = 2, 5(9)5(9)5(9)5(9)5 = 7, 5(9)5(9)5(9)5(9)5(9)5 = 3, 5(9)5(9)5(9)5(9)5(9)5(9)5 = 8, this pattern   ","yes, 5(9)5 = 1, 5(9)5(9)5 = 6 5(9)5(9)5(9)5 = 2, 5(9)5(9)5(9)5(9)5 = 7, 5(9)5(9)5(9)5(9)5(9)5 = 3, 5(9)5(9)5(9)5(9)5(9)5(9)5 = 8, this pattern c  ","yes, 5(9)5 = 1, 5(9)5(9)5 = 6 5(9)5(9)5(9)5 = 2, 5(9)5(9)5(9)5(9)5 = 7, 5(9)5(9)5(9)5(9)5(9)5 = 3, 5(9)5(9)5(9)5(9)5(9)5(9)5 = 8, this pattern can   ","yes, 5(9)5 = 1, 5(9)5(9)5 = 6 5(9)5(9)5(9)5 = 2, 5(9)5(9)5(9)5(9)5 = 7, 5(9)5(9)5(9)5(9)5(9)5 = 3, 5(9)5(9)5(9)5(9)5(9)5(9)5 = 8, this pattern can p  ","yes, 5(9)5 = 1, 5(9)5(9)5 = 6  5(9)5(9 )5(9)5 = 2, 5(9)5(9)5(9)5(9)5 = 7, 5(9)5(9)5(9)5(9)5(9)5 = 3, 5(9)5(9)5(9)5(9)5(9)5(9)5 = 8, this pattern can pr  ","yes, 5(9)5 = 1, 5(9)5(9)5 = 6 5(9)5(9)5(9)5 = 2, 5(9)5(9)5(9)5(9)5 = 7, 5(9)5(9)5(9)5(9)5(9)5 = 3, 5(9)5(9)5(9)5(9)5(9)5(9)5 = 8, this pattern can pro  ","yes, 5(9)5 = 1, 5(9)5(9)5 = 6 5(9)5(9)5(9)5 = 2, 5(9)5(9)5(9)5(9)5 = 7, 5(9)5(9)5(9)5(9)5(9)5 = 3, 5(9)5(9)5(9)5(9)5(9)5(9)5 = 8, this pattern can prod  ","yes, 5(9)5 = 1, 5(9)5(9)5 = 6 5(9)5(9)5(9)5 = 2, 5(9)5(9)5(9)5(9)5 = 7, 5(9)5(9)5(9)5(9)5(9)5 = 3, 5(9)5(9)5(9)5(9)5(9)5(9)5 = 8, this pattern can produc  ","yes, 5(9)5 = 1, 5(9)5(9)5 = 6 5(9)5(9)5(9)5 = 2, 5(9)5(9)5(9)5(9)5 = 7, 5(9)5(9)5(9)5(9)5(9)5 = 3, 5(9)5(9)5(9)5(9)5(9)5(9)5 = 8, this pattern can product  ","yes, 5(9)5 = 1, 5(9)5(9)5 = 6 5(9)5(9)5(9)5 = 2, 5(9)5(9)5(9)5(9)5 = 7, 5(9)5(9)5(9)5(9)5(9)5 = 3, 5(9)5(9)5(9)5(9)5(9)5(9)5 = 8, this pattern can produc  ","yes, 5(9)5 = 1, 5(9)5(9)5 = 6 5(9)5(9)5(9)5 = 2, 5(9)5(9)5(9)5(9)5 = 7, 5(9)5(9)5(9)5( 9)5(9)5  = 3, 5(9)5(9)5(9)5(9)5(9)5(9)5 = 8, this pattern can produce   ","yes, 5(9)5 = 1, 5(9)5(9)5 = 6 5(9)5(9)5(9)5 = 2, 5(9)5(9)5(9)5(9)5 = 7, 5(9)5(9)5(9)5(9)5(9)5 = 3, 5(9)5(9)5(9)5(9)5(9)5(9)5 = 8, this pattern can produce e  ","yes, 5(9)5 = 1, 5(9)5(9)5 = 6 5(9)5(9)5(9)5 = 2, 5(9)5(9)5(9)5(9)5 = 7, 5(9)5(9)5(9)5(9)5(9)5 = 3, 5(9)5(9)5(9)5(9)5(9)5(9)5 = 8, this pattern can produce ea  ","yes, 5(9)5 = 1, 5(9)5(9)5 = 6 5(9)5(9)5(9)5 = 2, 5(9)5(9)5(9)5(9)5 = 7, 5(9)5(9)5(9)5(9)5(9)5 = 3, 5(9)5(9)5(9)5(9)5(9)5(9)5 = 8, this pattern can produce eac  ","yes, 5(9)5 = 1, 5(9)5(9)5 = 6 5(9)5(9)5(9)5 = 2, 5(9)5(9)5(9)5(9)5 = 7, 5(9)5(9)5(9)5(9)5(9)5 = 3, 5(9)5(9)5(9)5(9)5(9)5(9)5 = 8, this pattern can produce each   ","yes, 5(9)5 = 1, 5(9)5(9)5 = 6 5(9)5(9)5(9)5 = 2, 5(9)5(9)5(9)5(9)5 = 7, 5(9)5(9)5(9)5(9)5(9)5 = 3, 5(9)5(9)5(9)5(9)5(9)5(9)5 = 8, this pattern can produce each o  ","yes, 5(9)5 = 1, 5(9)5(9)5 = 6 5(9)5(9)5(9)5 = 2, 5(9)5(9)5(9)5(9)5 = 7, 5(9)5(9)5(9)5(9)5(9)5 = 3, 5(9)5(9 )5(9)5(9 )5(9)5(9)5 = 8, this pattern can produce each of   ","yes, 5(9)5 = 1, 5(9)5(9)5 = 6 5(9)5(9)5(9)5 = 2, 5(9)5(9)5(9)5(9)5 = 7, 5(9)5(9)5(9)5(9)5(9)5 = 3, 5(9)5(9)5(9)5(9)5(9)5(9)5 = 8, this pattern can produce each of t  ","yes, 5(9)5 = 1, 5(9)5(9)5 = 6 5(9)5(9)5(9)5 = 2, 5(9)5(9)5(9)5(9)5 = 7, 5(9)5(9)5(9)5(9)5(9)5 = 3, 5(9)5(9)5(9)5(9)5(9)5(9)5 = 8, this pattern can produce each of th  ","yes, 5(9)5 = 1, 5(9)5(9)5 = 6 5(9)5(9)5(9)5 = 2, 5(9)5(9)5(9)5(9)5 = 7, 5(9)5(9)5(9)5(9)5(9)5 = 3, 5(9)5(9)5(9)5(9)5(9)5(9)5 = 8, this pattern can produce each of the   ","yes, 5(9)5 = 1, 5(9)5(9)5 = 6 5(9)5(9)5(9)5 = 2, 5(9)5(9)5(9)5(9)5 = 7, 5(9)5(9)5(9)5(9)5(9)5 = 3, 5(9)5(9)5(9)5(9)5(9)5(9)5 = 8, this pattern can produce each of the 9   ","yes, 5(9)5 = 1, 5(9)5(9)5 = 6 5(9)5(9)5(9)5 = 2, 5(9)5(9)5(9)5(9)5 = 7, 5(9)5(9)5(9)5(9)5(9)5 = 3, 5(9)5(9)5(9)5(9)5(9)5(9)5 = 8, this pattern can produce each of the 9 n  ","yes, 5(9)5 = 1, 5(9)5(9)5 = 6 5(9)5(9)5(9)5 = 2, 5(9)5(9)5(9)5(9)5 = 7, 5(9 )5(9)5(9 )5(9)5(9)5 = 3, 5(9)5(9)5(9)5(9)5(9)5(9)5 = 8, this pattern can produce each of the 9 nu  ","yes, 5(9)5 = 1, 5(9)5(9)5 = 6 5(9)5(9)5(9)5 = 2, 5(9)5(9)5(9)5(9)5 = 7, 5(9)5(9)5(9)5(9)5(9)5 = 3, 5(9)5(9)5(9)5(9)5(9)5(9)5 = 8, this pattern can produce each of the 9 num  ","yes, 5(9)5 = 1, 5(9)5(9)5 = 6 5(9)5(9)5(9)5 = 2, 5(9)5(9)5(9)5(9)5 = 7, 5(9)5(9)5(9)5(9)5(9)5 = 3, 5(9)5(9)5(9)5(9)5(9)5(9)5 = 8, this pattern can produce each of the 9 numb  ","yes, 5(9)5 = 1, 5(9)5(9)5 = 6 5(9)5(9)5(9)5 = 2, 5(9)5(9)5(9)5(9)5 = 7, 5(9)5(9)5(9)5(9)5(9)5 = 3, 5(9)5(9)5(9)5(9)5(9)5(9)5 = 8, this pattern can produce each of the 9 number  ","yes, 5(9)5 = 1, 5(9)5(9)5 = 6 5(9)5(9)5(9)5 = 2, 5(9)5(9)5(9)5(9)5 = 7, 5(9)5(9)5(9)5(9)5(9)5 = 3, 5(9)5(9)5(9)5(9)5(9)5(9)5 = 8, this pattern can produce each of the 9 numbers   ","yes, 5(9)5 = 1, 5(9)5(9)5 = 6 5(9)5(9)5(9)5 = 2, 5(9)5(9)5(9)5(9)5 = 7, 5(9)5(9)5(9)5(9)5(9)5 = 3, 5(9)5(9)5(9)5(9)5(9)5(9)5 = 8, this pattern can produce each of the 9 numbers o   ","yes,  5(9)5 = 1, 5(9)5(9)5 = 6 5(9)5(9)5(9)5 = 2, 5(9)5(9)5(9)5(9)5 = 7, 5(9)5(9)5(9)5(9)5(9)5 = 3, 5(9)5(9)5(9)5(9)5(9)5(9)5 = 8, this pattern can produce each of the 9 numbers on   ","yes, 5(9)5 = 1, 5(9)5(9)5 = 6 5(9)5(9)5(9)5 = 2, 5(9)5(9)5(9)5(9)5 = 7, 5(9)5(9)5(9)5(9)5(9)5 = 3, 5(9)5(9)5(9)5(9)5(9)5(9)5 = 8, this pattern can produce each of the 9 numbers on t  ","yes, 5(9)5 = 1, 5(9)5(9)5 = 6 5(9)5(9)5(9)5 = 2, 5(9)5(9)5(9)5(9)5 = 7, 5(9)5(9)5(9)5(9)5(9)5 = 3, 5(9)5(9)5(9)5(9)5(9)5(9)5 = 8, this pattern can produce each of the 9 numbers on th  ","yes, 5(9)5 = 1, 5(9)5(9)5 = 6 5(9)5(9)5(9)5 = 2, 5(9)5(9)5(9)5(9)5 = 7, 5(9)5(9)5(9)5(9)5(9)5 = 3, 5(9)5(9)5(9)5(9)5(9)5(9)5 = 8, this pattern can produce each of the 9 numbers on the   ","yes, 5(9)5 = 1, 5(9)5(9)5 = 6 5(9)5(9)5(9)5 = 2, 5(9)5(9)5(9)5(9)5 = 7, 5(9)5(9)5(9)5(9)5(9)5 = 3, 5(9)5(9)5(9)5(9)5(9)5(9)5 = 8, this pattern can produce each of the 9 numbers on the w  ","yes, 5(9)5 = 1, 5(9)5(9)5 = 6 5(9)5(9)5(9)5 = 2, 5(9)5(9 )5(9)5(9 )5 = 7, 5(9)5(9)5(9)5(9)5(9)5 = 3, 5(9)5(9)5(9)5(9)5(9)5(9)5 = 8, this pattern can produce each of the 9 numbers on the wh  ","yes, 5(9)5 = 1, 5(9)5(9)5 = 6 5(9)5(9)5(9)5 = 2, 5(9)5(9)5(9)5(9)5 = 7, 5(9)5(9)5(9)5(9)5(9)5 = 3, 5(9)5(9)5(9)5(9)5(9)5(9)5 = 8, this pattern can produce each of the 9 numbers on the whe  ","yes, 5(9)5 = 1, 5(9)5(9)5 = 6 5(9)5(9)5(9)5 = 2, 5(9)5(9)5(9)5(9)5 = 7, 5(9)5(9)5(9)5(9)5(9)5 = 3, 5(9)5(9)5(9)5(9)5(9)5(9)5 = 8, this pattern can produce each of the 9 numbers on the whee  ","yes, 5(9)5 = 1, 5(9)5(9)5 = 6 5(9)5(9)5(9)5 = 2, 5(9)5(9)5(9)5(9)5 = 7, 5(9)5(9)5(9)5(9)5(9)5 = 3, 5(9)5(9)5(9)5(9)5(9)5(9)5 = 8, this pattern can produce each of the 9 numbers on the wheel  ","yes, 5(9)5 = 1, 5(9)5(9)5 = 6 5(9)5(9)5(9)5 = 2, 5(9)5(9)5(9)5(9)5 = 7, 5(9)5(9)5(9)5(9)5(9)5 = 3, 5(9)5(9)5(9)5(9)5(9)5(9)5 = 8, this pattern can produce each of the 9 numbers on the wheel.  ","yes, 5(9)5 = 1, 5(9)5(9)5 = 6 5(9)5(9)5(9)5 = 2, 5(9)5(9)5(9)5(9)5 = 7, 5(9)5(9)5(9)5(9) 5(9)5 =  3, 5(9)5(9)5(9)5(9)5(9)5(9)5 = 8, this pattern  can produce each of the 9 numbers on the wheel.  ","yes, 5(9)5 = 1, 5(9)5(9)5 = 6 5(9)5(9)5(9)5 = 2, 5(9)5(9)5(9)5(9)5 = 7, 5(9)5(9)5(9)5(9)5(9)5 = 3, 5(9)5(9)5(9)5(9)5(9)5(9)5 = 8, this pattern ( can produce each of the 9 numbers on the wheel.  ","yes, 5(9)5 = 1, 5(9)5(9)5 = 6 5(9)5(9)5(9)5 = 2, 5(9)5(9)5(9)5(9)5 = 7, 5(9)5(9)5(9)5(9)5(9)5 = 3, 5(9)5(9)5(9)5(9)5(9)5(9)5 = 8, this pattern (a can produce each of the 9 numbers on the wheel.  ","yes, 5(9)5 = 1, 5(9)5(9)5 = 6 5(9)5(9)5(9)5 = 2, 5(9)5(9)5(9)5(9)5 = 7, 5(9)5(9)5(9)5(9)5(9)5 = 3, 5(9)5(9)5(9)5(9)5(9)5(9)5 = 8, this pattern (ad can produce each of the 9 numbers on the wheel.  ","yes, 5(9)5 = 1, 5(9)5(9)5 = 6 5(9)5(9)5(9)5 = 2, 5(9)5(9)5(9)5(9)5 = 7, 5(9)5(9)5(9)5(9)5(9)5 = 3, 5(9)5(9)5(9)5(9)5(9)5(9)5 = 8, this pattern (add can produce each of the 9 numbers on the wheel.  ","yes, 5(9)5 = 1, 5(9)5(9)5 = 6 5(9)5(9)5(9)5 = 2, 5(9)5(9)5(9)5(9)5 = 7, 5(9)5(9)5(9)5(9)5(9)5 =  3, 5(9) 5(9)5(9)5(9)5(9)5(9)5 = 8, this pattern (addi can produce each of the 9 numbers on the wheel.  ","yes, 5(9)5 = 1, 5(9)5(9)5 = 6 5(9)5(9)5(9)5 = 2, 5(9)5(9)5(9)5(9)5 = 7, 5(9)5(9)5(9)5(9)5(9)5 = 3, 5(9)5(9)5(9)5(9)5(9)5(9)5 = 8, this pattern (addin can produce each of the 9 numbers on the wheel.  ","yes, 5(9)5 = 1, 5(9)5(9)5 = 6 5(9)5(9)5(9)5 = 2, 5(9)5(9)5(9)5(9)5 = 7, 5(9)5(9)5(9)5(9)5(9)5 = 3, 5(9)5(9)5(9)5(9)5(9)5(9)5 = 8, this pattern (adding can produce each of the 9 numbers on the wheel.  ","yes, 5(9)5 = 1, 5(9)5(9)5 = 6 5(9)5(9)5(9)5 = 2, 5(9)5(9)5(9)5(9)5 = 7, 5(9)5(9)5(9)5(9)5(9)5 = 3, 5(9)5(9)5(9)5(9)5(9)5(9)5 = 8, this pattern (adding  can produce each of the 9 numbers on the wheel.  ","yes, 5(9)5 = 1, 5(9)5(9)5 = 6 5(9)5(9)5(9)5 = 2, 5(9)5(9)5(9)5(9)5 = 7, 5(9)5(9)5(9)5(9)5(9)5 = 3, 5(9)5(9)5(9)5(9)5(9)5(9)5 = 8, this pattern (adding a can produce each of the 9 numbers on the wheel.  ","yes, 5(9)5 = 1, 5(9)5(9)5 = 6 5(9)5(9)5(9)5 = 2, 5(9)5(9)5(9)5(9)5 = 7, 5(9)5 (9)5(9)5 (9)5(9)5 = 3, 5(9)5(9)5(9)5(9)5(9)5(9)5 = 8, this pattern (adding an can produce each of the 9 numbers on the wheel.  ","yes, 5(9)5 = 1, 5(9)5(9)5 = 6 5(9)5(9)5(9)5 = 2, 5(9)5(9)5(9)5(9)5 = 7, 5(9)5(9)5(9)5(9)5(9)5 = 3, 5(9)5(9)5(9)5(9)5(9)5(9)5 = 8, this pattern (adding an  can produce each of the 9 numbers on the wheel.  ","yes, 5(9)5 = 1, 5(9)5(9)5 = 6 5(9)5(9)5(9)5 = 2, 5(9)5(9)5(9)5(9)5 = 7, 5(9)5(9)5(9)5(9)5(9)5 = 3, 5(9)5(9)5(9)5(9)5(9)5(9)5 = 8, this pattern (adding an a can produce each of the 9 numbers on the wheel.  ","yes, 5(9)5 = 1, 5(9)5(9)5 = 6 5(9)5(9)5(9)5 = 2, 5(9)5(9)5(9)5(9)5 = 7, 5(9)5(9)5(9)5(9)5(9)5 = 3, 5(9)5(9)5(9)5(9)5(9)5(9)5 = 8, this pattern (adding an ad can produce each of the 9 numbers on the wheel.  ","yes, 5(9)5 = 1, 5(9)5(9)5 = 6 5(9)5(9)5(9)5 = 2, 5(9)5(9)5(9)5(9)5 = 7, 5(9)5(9)5(9)5(9)5(9)5 = 3, 5(9)5(9)5(9)5(9)5(9)5(9)5 = 8, this pattern (adding an add can produce each of the 9 numbers on the wheel.  ","yes, 5(9)5 = 1, 5(9)5(9)5 = 6 5(9) 5(9)5(9) 5 = 2, 5(9)5(9)5(9)5(9)5 = 7, 5(9)5(9)5(9)5(9)5(9)5 = 3, 5(9)5(9)5(9)5(9)5(9)5(9)5 = 8, this pattern (adding an addi can produce each of the 9 numbers on the wheel.  ","yes, 5(9)5 = 1, 5(9)5(9)5 = 6 5(9)5(9)5(9)5 = 2, 5(9)5(9)5(9)5(9)5 = 7, 5(9)5(9)5(9)5(9)5(9)5 = 3, 5(9)5(9)5(9)5(9)5(9)5(9)5 = 8, this pattern (adding an addit can produce each of the 9 numbers on the wheel.  ","yes, 5(9)5 = 1, 5(9)5(9)5 = 6 5(9)5(9)5(9)5 = 2, 5(9)5(9)5(9)5(9)5 = 7, 5(9)5(9)5(9)5(9)5(9)5 = 3, 5(9)5(9)5(9)5(9)5(9)5(9)5 = 8, this pattern (adding an additio can produce each of the 9 numbers on the wheel.  ","yes, 5(9)5 = 1, 5(9)5(9)5 = 6 5(9)5(9)5(9)5 = 2, 5(9)5(9)5(9)5(9)5 = 7, 5(9)5(9)5(9)5(9)5(9)5 = 3, 5(9)5(9)5(9)5(9)5(9)5(9)5 = 8, this pattern (adding an addition can produce each of the 9 numbers on the wheel.  ","yes, 5(9)5 = 1, 5(9)5(9)5 = 6 5(9)5(9)5(9)5 = 2, 5(9)5(9)5(9)5(9)5 = 7, 5(9)5(9)5(9)5(9)5(9)5 = 3, 5(9)5(9)5(9)5(9)5(9)5(9)5 = 8, this pattern (adding an additiona can produce eac h of the  9 numbers on the wheel.  ","yes, 5(9)5 = 1, 5(9)5(9)5 = 6 5(9)5(9)5(9)5 = 2, 5(9)5(9)5(9)5(9)5 = 7, 5(9)5(9)5(9)5(9)5(9)5 = 3, 5(9)5(9)5(9)5(9)5(9)5(9)5 = 8, this pattern (adding an additional can produce each of the 9 numbers on the wheel.  ","yes, 5(9)5 = 1, 5(9)5(9)5 = 6 5(9)5(9)5(9)5 = 2, 5(9)5(9)5(9)5(9)5 = 7, 5(9)5(9)5(9)5(9)5(9)5 = 3, 5(9)5(9)5(9)5(9)5(9)5(9)5 = 8, this pattern (adding an additional  can produce each of the 9 numbers on the wheel.  ","yes, 5(9)5 = 1, 5(9)5(9)5 = 6 5(9)5(9)5(9)5 = 2, 5(9)5(9)5(9)5(9)5 = 7, 5(9)5(9)5(9)5(9)5(9)5 = 3, 5(9)5(9)5(9)5(9)5(9)5(9)5 = 8, this pattern (adding an additional 5 can produce each of the 9 numbers on the wheel.  ","yes, 5(9)5 = 1, 5(9)5(9)5 = 6 5(9)5(9)5(9)5 = 2, 5(9)5(9)5(9)5(9)5 = 7, 5(9)5(9)5(9)5(9)5(9)5 = 3, 5(9)5(9)5(9)5(9)5(9)5(9)5 = 8, this pattern (adding an additional 5) can produce each of the 9 numbers on the wheel.  ","yes, 5(9)5 = 1, 5(9)5(9)5 = 6 5(9)5(9)5(9)5 = 2, 5(9)5(9)5(9)5(9)5 = 7, 5(9)5(9)5(9)5( 9)5(9)5  = 3, 5(9)5(9)5(9)5(9)5(9)5(9)5 = 8, this pattern (adding an additional 5) can produce each of the 9 numbers on the wheel. Or","yes, 5(9)5 = 1, 5(9)5(9)5 = 6 5(9)5(9)5(9)5 = 2, 5(9)5(9)5(9)5(9)5 = 7, 5(9)5(9)5(9)5(9)5(9)5 = 3, 5(9)5(9)5(9)5(9)5(9)5(9)5 = 8, this pattern (adding an additional 5) can produce each of the 9 numbers on the wheel. O","yes, 5(9)5 = 1, 5(9)5(9)5 = 6 5(9)5(9)5(9)5 = 2, 5(9)5(9)5(9)5(9)5 = 7, 5(9)5(9)5(9)5(9)5(9)5 = 3, 5(9)5(9)5(9)5(9)5(9)5(9)5 = 8, this pattern (adding an additional 5) can produce each of the 9 numbers on the wheel. "],"rt":313265,"trial_type":"polygon-arrow-question","trial_index":0,"trial_index_global":82,"time_elapsed":2041706,"internal_chunk_id":"0-0.12-0"},{"nsides":9,"question":"Is 6 a generator under <img src=./images/nonagon_symbol.png style=width:14px;height:14px>? Please explain in words how you got your answer.","response_type":"free","response_choices":[],"correct_response":"","response":"no, 6 will produce 2, 3, 5 , 6, 8,  and 0. It cannot be used to produce 1, 4, and 7.","orientation_history":[[0]],"response_history":["no, 6 will produce 2, 3, 5, 6, 8, and 0. It cannot be used to produce 1, 4, and 7."],"rt":294674,"trial_type":"polygon-arrow-question","trial_index":0,"trial_index_global":83,"time_elapsed":2336387,"internal_chunk_id":"0-0.12-0"},{"nsides":"n","instructions":"Now we'd like to ask you some questions about <img src=./images/ngon_symbol.png style=width:14px;height:14px>, where n could be any postive counting number. For example, n could be 3, and the polygon a triangle, or n could be any other counting number you can think of, in which case the corresponding polygon would have n sides. Just as before, you can use either the polygon or arithmetic methods. If you need to write the operation, you can use (n), and your answers can include n to stand in for the arbitrary value if necessary. (You can use the polygon at the right to think, but it doesn't necessarily correspon d to the  real polygon, which is why we've left most of it dashed.)","orientation_history":[0],"rt":46692,"trial_type":"polygon-arrow-instructions","trial_index":0,"trial_index_global":84,"time_elapsed":2383091,"internal_chunk_id":"0-0"},{"nsides":"n","question":"What is the formula for the inverse of 1 under <img src=./images/ngon_symbol.png style=width:14px;height:14px>?","response_type":"free","response_choices":[],"correct_response":"n-1","response":"1(n)n=0","orientation_history":[[0]],"response_history":["1(n)n=0"],"rt":103411,"trial_type":"polygon-arrow-question","trial_index":0,"trial_index_global":85,"time_elapsed":2486511,"internal_chunk_id":"0-0.14-0"},{"nsides":"n","question":"What is the formula for the inverse of an element x under <img src=./images/ngon_symbol.png style=width:14px;height:14px>? Please explain in words how you got your answer.","response_type":"free","response_choices":[],"correct_response":"n-x","response":"x(n)n=0 an element-x under (n ), moved  n amount of times equals 0","orientation_history":[[0]],"response_history":["x(n)x=0","x(n)=0","x(n)n=0 a numbber","x(n)n=0 a numbbe","x(n)n=0 a numbb","x(n)n=0 a number (x) under (n), moved n amount of times","x(n)n=0 a number x) under (n), moved n amount of times","x(n)n=0 a number x under (n), moved n amount of times","x(n)n=0 a numberx under (n), moved n amount of times","x(n)n=0 a number-x under (n), moved n amount of times","x(n)n=0 a -x under (n), moved n amount of times","x(n)n=0 a-x under (n), moved n amount of times","x(n)n=0 an-x under (n), moved n amount of times","x(n)n=0 an -x under (n), moved n amount of times","x(n)n=0 an e-x under (n), moved n amount of times","x(n)n=0 an el-x under (n), moved n amount of times","x(n)n=0 an ele-x under (n), moved n amount of times","x(n)n=0 an elem-x under (n), moved n amount of times","x(n)n=0 an eleme-x under (n), moved n amount of times","x(n)n=0 an elemen-x under (n), moved n amount of times","x(n)n=0 an element-x under  (n), mo ved n amount of times","x(n)n=0 an element -x under (n), moved n amount of times","x(n)n=0 an element-x under (n), moved n amount of times equals 0"],"rt":91046,"trial_type":"polygon-arrow-question","trial_index":0,"trial_index_global":86,"time_elapsed":2577569,"internal_chunk_id":"0-0.14-0"},{"nsides":"n","question":"Is there a pattern to which elements are generators? How can you know if an element x is a generator under <img src=./images/ngon_symbol.png style=width:14px;height:14px> without seeing whether it can make all the elements?.","response_type":"free","response_choices":[],"correct_response":"","response":"The way I figured it out for the 6 sided figure was multiples of 5, 10, 15, 20, 25, 30. I then subtracted 6 from each until I came to a number < or = to 5. If I could produce each number, 5 was a generator. for example, 5 = 5, 10-6 = 4, 15-6, -6 = 3, 20-6, -6, -6 = 2, 25-6, -6, -6, -6 = 1 30-6, -6, -6, -6, -6 = 0. So, to find if a number is a generator,  lets use  4, take the multiples of 4, 4, 8, 12, 16, 20, and subtract 5 from each if you can produce each number on the 5 sided element, 4 is a generator.","orientation_history":[[0]],"response_history":["The way I figured it out for the 6 sided figure. 5*5","The way I figured it out for the 6 sided figure. 5*","The way I figured it out for the 6 sided figure. 5","The way I figured it out for the 6 sided figure. ","The way I figured it out for the 6 sided figure.","The way I figured it out for the 6 sided figure was multiples of 5 then","The way I figured it out for the 6 sided figure was multiples of 5 the","The way I figured it out for the 6 sided figure was multiples of 5 th","The way I figured it out for the 6 sided figure was multiples of 5 t","The way I figured it out for the 6 sided figure was multiples of 5 unt","The way I figured it out for the 6 sided figure was multiples of 5 un","The way I figured it out for the 6 sided figure was multiples of 5 u","The way I figured it ou t for th e 6 sided figure was multiples of 5 ","The way I figured it out for the 6 sided figure was multiples of 5, 5, 5*5=25, 5*","The way I figured it out for the 6 sided figure was multiples of 5, 10, 15, 20, 25, 30. I then subtracted 6 from each until I came to a number <=","The way I figured it out for the 6 sided figure was multiples of 5, 10, 15, 20, 25, 30. I then subtracted 6 from each until I came to a number < =","The way I figured it out for the 6 sided figure was multiples of 5, 10, 15, 20, 25, 30. I then subtracted 6 from each until I came to a number < o=","The way I figured it out for the 6 sided figure was multiples of 5, 10, 15, 20, 25, 30. I then subtracted 6 from each until I came to a number < or=","The way I figured it out for the 6 sided figure was multiples of 5, 10, 15, 20, 25, 30. I then subtracted 6 from each until I came to a number < or = to 5. If I could produce each number, it was","The way I figured it out for the 6 sided figure was multiples of 5, 10,  15, 20,  25, 30. I then subtracted 6 from each until I came to a number < or = to 5. If I could produce each number, it wa","The way I figured it out for the 6 sided figure was multiples of 5, 10, 15, 20, 25, 30. I then subtracted 6 from each until I came to a number < or = to 5. If I could produce each number, it w","The way I figured it out for the 6 sided figure was multiples of 5, 10, 15, 20, 25, 30. I then subtracted 6 from each until I came to a number < or = to 5. If I could produce each number, it ","The way I figured it out for the 6 sided figure was multiples of 5, 10, 15, 20, 25, 30. I then subtracted 6 from each until I came to a number < or = to 5. If I could produce each number, it","The way I figured it out for the 6 sided figure was multiples of 5, 10, 15, 20, 25, 30. I then subtracted 6 from each until I came to a number < or = to 5. If I could produce each number, i","The way I figured it out for the 6 sided figure was multiples of 5, 10, 15, 20, 25, 30. I then sub tracted  6 from each until I came to a number < or = to 5. If I could produce each number, 5 was a generator. 5","The way I figured it out for the 6 sided figure was multiples of 5, 10, 15, 20, 25, 30. I then subtracted 6 from each until I came to a number < or = to 5. If I could produce each number, 5 was a generator. for example, 25 - 5, -5, -5, -5 = 5. 30 - 5, - 5, -5, ","The way I figured it out for the 6 sided figure was multiples of 5, 10, 15, 20, 25, 30. I then subtracted 6 from each until I came to a number < or = to 5. If I could produce each number, 5 was a generator. for example, 25 - 5, -5, -5, -5 = 5. 30 - 5, - ","The way I figured it out for the 6 sided figure was multiples of 5, 10, 15, 20, 25, 30. I then subtracted 6 from each until I came to a number < or = to 5. If I could produce each number, 5 was a generator. for example, 25 - 5, -5, -5, -5 = 5. 30 - 5, -5, -5, -5, -5 = 4, ","The way I figured it out for the 6 sided figure was multiples of 5, 10, 15, 20, 25, 30.  I then s ubtracted 6 from each until I came to a number < or = to 5. If I could produce each number, 5 was a generator. for example, 25 - 5, -5, -5, -5 = 5. 10","The way I figured it out for the 6 sided figure was multiples of 5, 10, 15, 20, 25, 30. I then subtracted 6 from each until I came to a number < or = to 5. If I could produce each number, 5 was a generator. for example, 25 - 5, -5, -5, -5 = 5. 1","The way I figured it out for the 6 sided figure was multiples of 5, 10, 15, 20, 25, 30. I then subtracted 6 from each until I came to a number < or = to 5. If I could produce each number, 5 was a generator. for example, 25 - 5, -5, -5, -5 = 5. ","The way I figured it out for the 6 sided figure was multiples of 5, 10, 15, 20, 25, 30. I then subtracted 6 from each until I came to a number < or = to 5. If I could produce each number, 5 was a generator. for example, 125 - 5, -5, -5, -5 = 5. ","The way I figured it out for the 6 sided figure was multiples of 5, 10, 15, 20, 25, 30. I the n subtra cted 6 from each until I came to a number < or = to 5. If I could produce each number, 5 was a generator. for example, 1025 - 5, -5, -5, -5 = 5. ","The way I figured it out for the 6 sided figure was multiples of 5, 10, 15, 20, 25, 30. I then subtracted 6 from each until I came to a number < or = to 5. If I could produce each number, 5 was a generator. for example, 10-25 - 5, -5, -5, -5 = 5. ","The way I figured it out for the 6 sided figure was multiples of 5, 10, 15, 20, 25, 30. I then subtracted 6 from each until I came to a number < or = to 5. If I could produce each number, 5 was a generator. for example, 10-525 - 5, -5, -5, -5 = 5. ","The way I figured it out for the 6 sided figure was multiples of 5, 10, 15, 20, 25, 30. I then subtracted 6 from each until I came to a number < or = to 5. If I could produce each number, 5 was a generator. for example, 10-5=25 - 5, -5, -5, -5 = 5. ","The way I figured it out for the 6 sided figure was multiples of 5, 10, 15, 20, 25, 30.  I then s ubtracted 6 from each until I came to a number < or = to 5. If I could produce each number, 5 was a generator. for example, 10-5=425 - 5, -5, -5, -5 = 5. ","The way I figured it out for the 6 sided figure was multiples of 5, 10, 15, 20, 25, 30. I then subtracted 6 from each until I came to a number < or = to 5. If I could produce each number, 5 was a generator. for example, 10-5 =425 - 5, -5, -5, -5 = 5. ","The way I figured it out for the 6 sided figure was multiples of 5, 10, 15, 20, 25, 30. I then subtracted 6 from each until I came to a number < or = to 5. If I could produce each number, 5 was a generator. for example, 10-5 = 425 - 5, -5, -5, -5 = 5. ","The way I figured it out for the 6 sided figure was multiples of 5, 10, 15, 20, 25, 30. I then subtracted 6 from each until I came to a number < or = to 5. If I could produce each number, 5 was a generator. for example, 10-5 = 4,25 - 5, -5, -5, -5 = 5. ","The way I figured it out for the 6 sided figure was multiples of 5,  10, 15,  20, 25, 30. I then subtracted 6 from each until I came to a number < or = to 5. If I could produce each number, 5 was a generator. for example, 10-5 = 4, 25 - 5, -5, -5, -5 = 5. ","The way I figured it out for the 6 sided figure was multiples of 5, 10, 15, 20, 25, 30. I then subtracted 6 from each until I came to a number < or = to 5. If I could produce each number, 5 was a generator. for example, 10-5 = 4, 125 - 5, -5, -5, -5 = 5. ","The way I figured it out for the 6 sided figure was multiples of 5, 10, 15, 20, 25, 30. I then subtracted 6 from each until I came to a number < or = to 5. If I could produce each number, 5 was a generator. for example, 10-5 = 4, 1525 - 5, -5, -5, -5 = 5. ","The way I figured it out for the 6 sided figure was multiples of 5, 10, 15, 20, 25, 30. I then subtracted 6 from each until I came to a number < or = to 5. If I could produce each number, 5 was a generator. for example, 10-5 = 4, 15 25 - 5, -5, -5, -5 = 5. ","The way I figured it out for t he 6 sid ed figure was multiples of 5, 10, 15, 20, 25, 30. I then subtracted 6 from each until I came to a number < or = to 5. If I could produce each number, 5 was a generator. for example, 10-5 = 4, 15 -25 - 5, -5, -5, -5 = 5. ","The way I figured it out for the 6 sided figure was multiples of 5, 10, 15, 20, 25, 30. I then subtracted 6 from each until I came to a number < or = to 5. If I could produce each number, 5 was a generator. for example, 10-5 = 4, 15 - 25 - 5, -5, -5, -5 = 5. ","The way I figured it out for the 6 sided figure was multiples of 5, 10, 15, 20, 25, 30. I then subtracted 6 from each until I came to a number < or = to 5. If I could produce each number, 5 was a generator. for example, 10-5 = 4, 15 - 525 - 5, -5, -5, -5 = 5. ","The way I figured it out for the 6 sided figure was multiples of 5, 10, 15, 20, 25, 30. I then subtracted 6 from each until I came to a number < or = to 5. If I could produce each number, 5 was a generator. for example, 10-5 = 4, 15 - 5, 25  - 5, -5,  -5, -5 = 5. ","The way I figured it out for the 6 sided figure was multiples of 5, 10, 15, 20, 25, 30. I then subtracted 6 from each until I came to a number < or = to 5. If I could produce each number, 5 was a generator. for example, 10-5 = 4, 15 - 5, -25 - 5, -5, -5, -5 = 5. ","The way I figured it out for the 6 sided figure was multiples of 5, 10, 15, 20, 25, 30. I then subtracted 6 from each until I came to a number < or = to 5. If I could produce each number, 5 was a generator. for example, 10-5 = 4, 15 - 5, -525 - 5, -5, -5, -5 = 5. ","The way I figured it out for the 6 sided figure was multiples of 5, 10, 15, 20, 25, 30. I then subtracted 6 from each until I came to a number < or = to 5. If I could produce each number, 5 was a generator. for example, 10-5 = 4, 15 - 5, -5 25 - 5, -5, -5, -5 = 5. ","The way I figured it out for the 6 sided figure was multiples of 5, 10, 15, 20, 25, 30. I then subtracted 6 from each until I came to a number < or = to 5. If I could produ ce each  number, 5 was a generator. for example, 10-5 = 4, 15 - 5, -5 = 25 - 5, -5, -5, -5 = 5. ","The way I figured it out for the 6 sided figure was multiples of 5, 10, 15, 20, 25, 30. I then subtracted 6 from each until I came to a number < or = to 5. If I could produce each number, 5 was a generator. for example, 10-6 = 4, 15-6 = ","The way I figured it out for the 6 sided figure was multiples of 5, 10, 15, 20, 25, 30. I then subtracted 6 from each until I came to a number < or = to 5. If I could produce each number, 5 was a generator. for example, 10-6 = 4, 15-6, = ","The way I figured it out for the 6 sided figure was multiples of 5, 10, 15, 20, 25, 30. I then subtracted 6 from each until I came to a number < or = to 5. If I could produce each number, 5 was a generator. for example, 10-6 = 4, 15-6,  = ","The way I figured it out for the 6 sided figure was multiples of 5, 10, 15, 20, 25, 30. I then subtracted 6 from each until I came to a number < or = to 5. If I could produce e ach numb er, 5 was a generator. for example, 10-6 = 4, 15-6, - = ","The way I figured it out for the 6 sided figure was multiples of 5, 10, 15, 20, 25, 30. I then subtracted 6 from each until I came to a number < or = to 5. If I could produce each number, 5 was a generator. for example, 10-6 = 4, 15-6, -6 =  ","The way I figured it out for the 6 sided figure was multiples of 5, 10, 15, 20, 25, 30. I then subtracted 6 from each until I came to a number < or = to 5. If I could produce each number, 5 was a generator. for example, 10-6 = 4, 15-6, -6 = 3 ","The way I figured it out for the 6 sided figure was multiples of 5, 10, 15, 20, 25, 30. I then subtracted 6 from each until I came to a number < or = to 5. If I could produce each number, 5 was a generator. for example, 10-6 = 4, 15-6, -6 = 3,  ","The way I figured it out for the 6 sided figure was multiples of 5, 10, 15, 20, 25, 30. I then subtracted 6 from each until I came to a number < or = to 5. If I could produce each number, 5 w as a gen erator. for example, 10-6 = 4, 15-6, -6 = 3, 20 ","The way I figured it out for the 6 sided figure was multiples of 5, 10, 15, 20, 25, 30. I then subtracted 6 from each until I came to a number < or = to 5. If I could produce each number, 5 was a generator. for example, 10-6 = 4, 15-6, -6 = 3, 20- ","The way I figured it out for the 6 sided figure was multiples of 5, 10, 15, 20, 25, 30. I then subtracted 6 from each until I came to a number < or = to 5. If I could produce each number, 5 was a generator. for example, 10-6 = 4, 15-6, -6 = 3, 20-6 ","The way I figured it out for the 6 sided figure was multiples of 5, 10, 15, 20, 25, 30. I then subtracted 6 from each until I came to a number < or = to 5. If I could produce each number, 5 was a generator. for example, 10-6 = 4, 15-6, -6 = 3, 20-6,  ","The way I figured it out for the 6 sided figure was multiples of 5, 10, 15, 20, 25, 30. I then subtracted 6 from each until I came to a number < or = to 5. If I could produce each n umber, 5  was a generator. for example, 10-6 = 4, 15-6, -6 = 3, 20-6, - ","The way I figured it out for the 6 sided figure was multiples of 5, 10, 15, 20, 25, 30. I then subtracted 6 from each until I came to a number < or = to 5. If I could produce each number, 5 was a generator. for example, 10-6 = 4, 15-6, -6 = 3, 20-6, -6 ","The way I figured it out for the 6 sided figure was multiples of 5, 10, 15, 20, 25, 30. I then subtracted 6 from each until I came to a number < or = to 5. If I could produce each number, 5 was a generator. for example, 10-6 = 4, 15-6, -6 = 3, 20-6, -6,  ","The way I figured it out for the 6 sided figure was multiples of 5, 10, 15, 20, 25, 30. I then subtracted 6 from each until I came to a number < or = to 5. If I could produce each number, 5 was a generator. for example, 10-6 = 4, 15-6, -6 = 3, 20-6, -6, - ","The way I figured it out for the 6 sided figure was multiples of 5, 10, 15, 20, 25, 30. I then subtracted 6 from each until I came to a number < or =  to 5. If  I could produce each number, 5 was a generator. for example, 10-6 = 4, 15-6, -6 = 3, 20-6, -6, -6  ","The way I figured it out for the 6 sided figure was multiples of 5, 10, 15, 20, 25, 30. I then subtracted 6 from each until I came to a number < or = to 5. If I could produce each number, 5 was a generator. for example, 10-6 = 4, 15-6, -6 = 3, 20-6, -6, -6 =  ","The way I figured it out for the 6 sided figure was multiples of 5, 10, 15, 20, 25, 30. I then subtracted 6 from each until I came to a number < or = to 5. If I could produce each number, 5 was a generator. for example, 10-6 = 4, 15-6, -6 = 3, 20-6, -6, -6 = 2 ","The way I figured it out for the 6 sided figure was multiples of 5, 10, 15, 20, 25, 30. I then subtracted 6 from each until I came to a number < or = to 5. If I could produce each number, 5 was a generator. for example, 10-6 = 4, 15-6, -6 = 3, 20-6, -6, -6 = 2,  ","The way I figured it out for the 6 sided figure was multiples of 5, 10, 15, 20, 25, 30. I the n subtra cted 6 from each until I came to a number < or = to 5. If I could produce each number, 5 was a generator. for example, 10-6 = 4, 15-6, -6 = 3, 20-6, -6, -6 = 2, 2 ","The way I figured it out for the 6 sided figure was multiples of 5, 10, 15, 20, 25, 30. I then subtracted 6 from each until I came to a number < or = to 5. If I could produce each number, 5 was a generator. for example, 10-6 = 4, 15-6, -6 = 3, 20-6, -6, -6 = 2, 25 ","The way I figured it out for the 6 sided figure was multiples of 5, 10, 15, 20, 25, 30. I then subtracted 6 from each until I came to a number < or = to 5. If I could produce each number, 5 was a generator. for example, 10-6 = 4, 15-6, -6 = 3, 20-6, -6, -6 = 2, 25- ","The way I figured it out for the 6 sided figure was multiples of 5, 10, 15, 20, 25, 30. I then subtracted 6 from each until I came to a number < or = to 5. If I could produce each number, 5 was a generator. for example, 10-6 = 4, 15-6, -6 = 3, 20-6, -6, -6 = 2, 25-6 ","The way I figure d it out  for the 6 sided figure was multiples of 5, 10, 15, 20, 25, 30. I then subtracted 6 from each until I came to a number < or = to 5. If I could produce each number, 5 was a generator. for example, 10-6 = 4, 15-6, -6 = 3, 20-6, -6, -6 = 2, 25-6,  ","The way I figured it out for the 6 sided figure was multiples of 5, 10, 15, 20, 25, 30. I then subtracted 6 from each until I came to a number < or = to 5. If I could produce each number, 5 was a generator. for example, 10-6 = 4, 15-6, -6 = 3, 20-6, -6, -6 = 2, 25-6, - ","The way I figured it out for the 6 sided figure was