[{"nsides":6,"instructions":"Let's define a new operation <img src=./images/hexagon_symbol.png style=width:14px;height:14px>. This operation will give us a way of combining two of the numbers 0, 1, 2, 3, 4, 5 to get another one of them back. Consider the hexagon at the right, where I've labeled each point with one of the numbers. To perform <img src=./images/hexagon_symbol.png style=width:14px;height:14px>, you can use the interactive diagram on the right, or perform the operation in your mind. Point the arrow at the first number on the hexagon by clicking, then click (or click and drag) to move the arrow the second number of points clockwise around the hexagon. The number the arrow arrives at is your result. (The operation is called <img src=./images/hexagon_symbol.png style=width:14px;height:14px> because it uses the hexagon, which has 6 sides.) <br /><br />For example, 3 <img src=./images/hexagon_symbol.png style=width:14px;height:14px> 5 =  2, becau se 5 steps clockwise from 3 on the hexagon brings us to 2. So 3 <img src=./images/hexagon_symbol.png style=width:14px;height:14px> 5 = 2.<br /><br />Similarly, 1 <img src=./images/hexagon_symbol.png style=width:14px;height:14px> 4 = 5, because 4 steps clockwise from 1 brings us to 5. <br /><br />Click Continue when you're ready to move on.","orientation_history":[0,[0,0,0,0,0,0,0,0,0,0]],"rt":36158,"trial_type":"polygon-arrow-instructions","trial_index":0,"trial_index_global":1,"time_elapsed":64086,"internal_chunk_id":"0-0"},{"nsides":6,"instructions":"Do you see how <img src=./images/hexagon_symbol.png style=width:14px;height:14px> works? By labeling the points of the hexagon with the numbers from 0 to 5, we ensure that when we combine two numbers under <img src=./images/hexagon_symbol.png style=width:14px;height:14px>, we only produce numbers between 0 and 5.<br /><br />Click Continue when you are ready to move on.","orientation_history":[0],"rt":3672,"trial_type":"polygon-arrow-instructions","trial_index":0,"trial_index_global":2,"time_elapsed":67759,"internal_chunk_id":"0-0"},{"nsides":6,"question":"Now try one on your own! What is 4 <img src=./images/hexagon_symbol.png style=width:14px;height:14px> 5? <br /><br /> (Remember, to perform <img src=./images/hexagon_symbol.png style=width:14px;height:14px>, you can use the interactive diagram on the right, or perform the operation in your mind. Point the arrow at the first number on the hexagon, then move the arrow the second number of points clockwise around the hexagon. The number the arrow arrives at is your result.)","response_type":"free","response_choices":[],"correct_response":"3","response":"3","orientation_history":[[0]],"response_history":["3"],"rt":14549,"trial_type":"polygon-arrow-question","trial_index":0,"trial_index_global":3,"time_elapsed":82309,"internal_chunk_id":"0-0.3-0"},{"nsides":6,"feedback":"Correct! 4 <img src=./images/h exagon_s ymbol.png style=width:14px;height:14px> 5 = 3 because 5 steps clockwise on the hexagon from 4 brings us to 3","orientation_history":[0],"rt":1313,"trial_type":"polygon-arrow-feedback","trial_index":0,"trial_index_global":4,"time_elapsed":83623,"internal_chunk_id":"0-0.3-0"},{"nsides":6,"question":"What is 3 <img src=./images/hexagon_symbol.png style=width:14px;height:14px> 2? <br /><br /> (Remember, to perform <img src=./images/hexagon_symbol.png style=width:14px;height:14px>, you can use the interactive diagram on the right, or perform the operation in your mind. Point the arrow at the first number on the hexagon, then move the arrow the second number of points clockwise around the hexagon. The number the arrow arrives at is your result.)","response_type":"free","response_choices":[],"correct_response":"5","response":"5","orientation_history":[[0]],"response_history":["5"],"rt":6250,"trial_type":"polygon-arrow-question","trial_index":0,"trial_index_global":5,"time_elapsed":89873,"internal_chunk_id":"0-0.3-0"},{"nsides":6,"feedback":"Correct! 3 <img src=./images/hexagon_symbol.png style=width:14px;height:14px> 2 = 5 because 2 steps clockwise on the hexagon from 3 brings us to 5","orientation_history":[0],"rt":4840,"trial_type":"polygon-arrow-feedback","trial_index":0,"trial_index_global":6,"time_elapsed":94714,"internal_chunk_id":"0-0.3-0"},{"nsides":6,"question":"What is 1 <img src=./images/hexagon_symbol.png style=width:14px;height:14px> 5? <br /><br /> (Remember, to perform <img src=./images/hexagon_symbol.png style=width:14px;height:14px>, you can use the interactive diagram on the right, or perform the operation in your mind. Point the arrow at the first number on the hexagon, then move the arrow the second number of points clockwise around the hexagon. The number the arrow arrives at is your result.)","response_type":"free","response_choices":[],"correct_response":"0","response":"0","orientation_history":[[0]],"response_history":["0"],"rt":11073,"trial_type":"polygon-arrow-question","trial_index":0,"trial_index_global":7,"time_elapsed":105788,"internal_chunk_id":"0-0.3-0"},{"nsides":6,"feedback":"Correct! 1 <img src=./images/hexagon_symbol.png style=width:14px;height:14px> 5 = 0 because 5 steps clockwise on the hexagon from 1 brings us to 0","orientation_history":[0],"rt":785,"trial_type":"polygon-arrow-feedback","trial_index":0,"trial_index_global":8,"time_elapsed":106574,"internal_chunk_id":"0-0.3-0"},{"nsides":6,"question":"What is 1 <img src=./images/hexagon_symbol.png style=width:14px;height:14px> 1? <br /><br /> (Remember, to perform <img src=./images/hexagon_symbol.png style=width:14px;height:14px>, you can use the interactive diagram on the right, or perform the operation in your mind. Point the arrow at the first number on the hexagon, then move the arrow the second number of points clockwise around the hexagon. The number the arrow arrives at is  your re sult.)","response_type":"free","response_choices":[],"correct_response":"2","response":"2","orientation_history":[[0]],"response_history":["2"],"rt":3101,"trial_type":"polygon-arrow-question","trial_index":0,"trial_index_global":9,"time_elapsed":109676,"internal_chunk_id":"0-0.3-0"},{"nsides":6,"feedback":"Correct! 1 <img src=./images/hexagon_symbol.png style=width:14px;height:14px> 1 = 2 because 1 step clockwise on the hexagon from 1 brings us to 2","orientation_history":[0],"rt":659,"trial_type":"polygon-arrow-feedback","trial_index":0,"trial_index_global":10,"time_elapsed":110336,"internal_chunk_id":"0-0.3-0"},{"nsides":6,"question":"What is 3 <img src=./images/hexagon_symbol.png style=width:14px;height:14px> 0? <br /><br /> (Remember, to perform <img src=./images/hexagon_symbol.png style=width:14px;height:14px>, you can use the interactive diagram on the right, or perform the operation in your mind. Point the arrow at the first number on the hexag on, then  move the arrow the second number of points clockwise around the hexagon. The number the arrow arrives at is your result.)","response_type":"free","response_choices":[],"correct_response":"3","response":"3","orientation_history":[[0]],"response_history":["3"],"rt":2506,"trial_type":"polygon-arrow-question","trial_index":0,"trial_index_global":11,"time_elapsed":112842,"internal_chunk_id":"0-0.3-0"},{"nsides":6,"feedback":"Correct! 3 <img src=./images/hexagon_symbol.png style=width:14px;height:14px> 0 = 3 because 0 steps clockwise on the hexagon from 3 brings us to 3","orientation_history":[0],"rt":867,"trial_type":"polygon-arrow-feedback","trial_index":0,"trial_index_global":12,"time_elapsed":113710,"internal_chunk_id":"0-0.3-0"},{"nsides":6,"question":"What is 4 <img src=./images/hexagon_symbol.png style=width:14px;height:14px> 4? <br /><br /> (Remember, to perform <img src=./images/hexagon_symbol.png style=width:14px;height:14px>, you can use the int eractive  diagram on the right, or perform the operation in your mind. Point the arrow at the first number on the hexagon, then move the arrow the second number of points clockwise around the hexagon. The number the arrow arrives at is your result.)","response_type":"free","response_choices":[],"correct_response":"2","response":"2","orientation_history":[[0]],"response_history":["2"],"rt":3723,"trial_type":"polygon-arrow-question","trial_index":0,"trial_index_global":13,"time_elapsed":117434,"internal_chunk_id":"0-0.3-0"},{"nsides":6,"feedback":"Correct! 4 <img src=./images/hexagon_symbol.png style=width:14px;height:14px> 4 = 2 because 4 steps clockwise on the hexagon from 4 brings us to 2","orientation_history":[0],"rt":822,"trial_type":"polygon-arrow-feedback","trial_index":0,"trial_index_global":14,"time_elapsed":118257,"internal_chunk_id":"0-0.3-0"},{"nsides":6,"question":"What is 1 <img src=./images/hexagon_symbol.png style=width:14px;height:14px> 3? <br /><br />  (Rememb er, to perform <img src=./images/hexagon_symbol.png style=width:14px;height:14px>, you can use the interactive diagram on the right, or perform the operation in your mind. Point the arrow at the first number on the hexagon, then move the arrow the second number of points clockwise around the hexagon. The number the arrow arrives at is your result.)","response_type":"free","response_choices":[],"correct_response":"4","response":"4","orientation_history":[[0]],"response_history":["4"],"rt":3651,"trial_type":"polygon-arrow-question","trial_index":0,"trial_index_global":15,"time_elapsed":121909,"internal_chunk_id":"0-0.3-0"},{"nsides":6,"feedback":"Correct! 1 <img src=./images/hexagon_symbol.png style=width:14px;height:14px> 3 = 4 because 3 steps clockwise on the hexagon from 1 brings us to 4","orientation_history":[0],"rt":914,"trial_type":"polygon-arrow-feedback","trial_index":0,"trial_index_global":16,"time_elapsed":122824,"internal_chunk_id":"0-0.3-0"},{"nsides":6,"question":"What is 4 <img src=./images/hexagon_symbol.png style=width:14px;height:14px> 3? <br /><br /> (Remember, to perform <img src=./images/hexagon_symbol.png style=width:14px;height:14px>, you can use the interactive diagram on the right, or perform the operation in your mind. Point the arrow at the first number on the hexagon, then move the arrow the second number of points clockwise around the hexagon. The number the arrow arrives at is your result.)","response_type":"free","response_choices":[],"correct_response":"1","response":"1","orientation_history":[[0]],"response_history":["1"],"rt":2789,"trial_type":"polygon-arrow-question","trial_index":0,"trial_index_global":17,"time_elapsed":125613,"internal_chunk_id":"0-0.3-0"},{"nsides":6,"feedback":"Correct! 4 <img src=./images/hexagon_symbol.png style=width:14px;height:14px> 3 = 1 because 3 steps clockwise on the hexagon from 4 brings us to 1","orientation_history":[0],"rt":860,"trial_type":"polyg on-arrow -feedback","trial_index":0,"trial_index_global":18,"time_elapsed":126473,"internal_chunk_id":"0-0.3-0"},{"nsides":6,"question":"What is 0 <img src=./images/hexagon_symbol.png style=width:14px;height:14px> 5? <br /><br /> (Remember, to perform <img src=./images/hexagon_symbol.png style=width:14px;height:14px>, you can use the interactive diagram on the right, or perform the operation in your mind. Point the arrow at the first number on the hexagon, then move the arrow the second number of points clockwise around the hexagon. The number the arrow arrives at is your result.)","response_type":"free","response_choices":[],"correct_response":"5","response":"5","orientation_history":[[0]],"response_history":["5"],"rt":5632,"trial_type":"polygon-arrow-question","trial_index":0,"trial_index_global":19,"time_elapsed":132106,"internal_chunk_id":"0-0.3-0"},{"nsides":6,"feedback":"Correct! 0 <img src=./images/hexagon_symbol.png style=width:14px;height:14px> 5 = 5  because  5 steps clockwise on the hexagon from 0 brings us to 5","orientation_history":[0],"rt":877,"trial_type":"polygon-arrow-feedback","trial_index":0,"trial_index_global":20,"time_elapsed":132983,"internal_chunk_id":"0-0.3-0"},{"nsides":6,"question":"What is 2 <img src=./images/hexagon_symbol.png style=width:14px;height:14px> 5? <br /><br /> (Remember, to perform <img src=./images/hexagon_symbol.png style=width:14px;height:14px>, you can use the interactive diagram on the right, or perform the operation in your mind. Point the arrow at the first number on the hexagon, then move the arrow the second number of points clockwise around the hexagon. The number the arrow arrives at is your result.)","response_type":"free","response_choices":[],"correct_response":"1","response":"1","orientation_history":[[0]],"response_history":["1"],"rt":4044,"trial_type":"polygon-arrow-question","trial_index":0,"trial_index_global":21,"time_elapsed":137028,"internal_chunk_id":"0-0.3-0"},{"nsides":6,"feedback":"Correct! 2 <img src=./images/hexagon_symbol.png style=width:14px;height:14px> 5 = 1 because 5 steps clockwise on the hexagon from 2 brings us to 1","orientation_history":[0],"rt":624,"trial_type":"polygon-arrow-feedback","trial_index":0,"trial_index_global":22,"time_elapsed":137653,"internal_chunk_id":"0-0.3-0"},{"nsides":6,"instructions":"Now we're going to discuss a couple special properties of this new operation, <img src=./images/hexagon_symbol.png style=width:14px;height:14px> that we've learned. First, notice that the number 0 behaves in a special way under <img src=./images/hexagon_symbol.png style=width:14px;height:14px>. Whenever we combine 0 with anything else, we get that same thing back. We'll say that 0 is the <i>identity</i> under <img src=./images/hexagon_symbol.png style=width:14px;height:14px>, because when you combine it with something it gives you that identical thing back.","orientation_history":[0],"rt":6503,"trial_type":"polygon-arrow-instructions","trial_index":0,"trial_index_global":23,"time_elapsed":144157,"internal_chunk_id":"0-0"},{"nsides":6,"instructions":"Now that we know 0 is the identity under <img src=./images/hexagon_symbol.png style=width:14px;height:14px>, we're going to make a new definition. We'll say that the <i>inverse</i> of a number is the element that you combine with it to produce the identity under our operation. For example, 5 <img src=./images/hexagon_symbol.png style=width:14px;height:14px> 1 = 0, so we say 1 is the inverse of 5 under <img src=./images/hexagon_symbol.png style=width:14px;height:14px>, (remember 0 is the identity under <img src=./images/hexagon_symbol.png style=width:14px;height:14px>). Similarly, 3 is its own inverse under <img src=./images/hexagon_symbol.png style=width:14px;height:14px>, because 3 <img src=./images/hexagon_symbol.png style=width:14px;height:14px> 3 = 0.","orientation_history":[0],"rt":36198,"trial_type":"polygon-arrow-instructions","trial_index":0,"trial_index_global":24,"time_elapsed":180356,"internal_chunk_id":"0-0"},{"nsides":6,"question":"Now you try! What is the inverse of 4 under <img src=./images/hexagon_symbol.png style=width:14px;height:14px>? <br /><br /> (Remember, the inverse of an element is the thing which you combine with it to produce the identity.)","response_type":"free","response_choices":[],"correct_response":"2","response":"2","orientation_history":[[0]],"response_history":["2"],"rt":5110,"trial_type":"polygon-arrow-question","trial_index":0,"trial_index_global":25,"time_elapsed":185466,"internal_chunk_id":"0-0.7-0"},{"nsides":6,"feedback":"Correct! The inverse of 4 under <img src=./images/hexagon_symbol.png style=width:14px;height:14px> is 2 because 4 <img src=./images/hexagon_symbol.png style=width:14px;height:14px> 2 = 0, and 0 is the identity under <img src=./images/hexagon_symbol.png style=width: 14px;hei ght:14px>.","orientation_history":[0],"rt":701,"trial_type":"polygon-arrow-feedback","trial_index":0,"trial_index_global":26,"time_elapsed":186167,"internal_chunk_id":"0-0.7-0"},{"nsides":6,"question":"What is the inverse of 1 under <img src=./images/hexagon_symbol.png style=width:14px;height:14px>? <br /><br /> (Remember, the inverse of an element is the thing which you combine with it to produce the identity.)","response_type":"free","response_choices":[],"correct_response":"5","response":"5","orientation_history":[[0]],"response_history":["5"],"rt":3399,"trial_type":"polygon-arrow-question","trial_index":0,"trial_index_global":27,"time_elapsed":189566,"internal_chunk_id":"0-0.7-0"},{"nsides":6,"feedback":"Correct! The inverse of 1 under <img src=./images/hexagon_symbol.png style=width:14px;height:14px> is 5 because 1 <img src=./images/hexagon_symbol.png style=width:14px;height:14px> 5 = 0, and 0 is the identity under <img src=./images/hexagon_s ymbol.pn g style=width:14px;height:14px>.","orientation_history":[0],"rt":567,"trial_type":"polygon-arrow-feedback","trial_index":0,"trial_index_global":28,"time_elapsed":190133,"internal_chunk_id":"0-0.7-0"},{"nsides":6,"question":"What is the inverse of 3 under <img src=./images/hexagon_symbol.png style=width:14px;height:14px>? <br /><br /> (Remember, the inverse of an element is the thing which you combine with it to produce the identity.)","response_type":"free","response_choices":[],"correct_response":"3","response":"3","orientation_history":[[0]],"response_history":["3"],"rt":3275,"trial_type":"polygon-arrow-question","trial_index":0,"trial_index_global":29,"time_elapsed":193408,"internal_chunk_id":"0-0.7-0"},{"nsides":6,"feedback":"Correct! The inverse of 3 under <img src=./images/hexagon_symbol.png style=width:14px;height:14px> is 3 because 3 <img src=./images/hexagon_symbol.png style=width:14px;height:14px> 3 = 0, and 0 is the identity under <im g src= ./images/hexagon_symbol.png style=width:14px;height:14px>.","orientation_history":[0],"rt":652,"trial_type":"polygon-arrow-feedback","trial_index":0,"trial_index_global":30,"time_elapsed":194060,"internal_chunk_id":"0-0.7-0"},{"nsides":6,"question":"What is the inverse of 2 under <img src=./images/hexagon_symbol.png style=width:14px;height:14px>? <br /><br /> (Remember, the inverse of an element is the thing which you combine with it to produce the identity.)","response_type":"free","response_choices":[],"correct_response":"4","response":"4","orientation_history":[[0]],"response_history":["4"],"rt":2658,"trial_type":"polygon-arrow-question","trial_index":0,"trial_index_global":31,"time_elapsed":196719,"internal_chunk_id":"0-0.7-0"},{"nsides":6,"feedback":"Correct! The inverse of 2 under <img src=./images/hexagon_symbol.png style=width:14px;height:14px> is 4 because 2 <img src=./images/hexagon_symbol.png style=width:14px;height:14px> 4 = 0, and 0  is the  identity under <img src=./images/hexagon_symbol.png style=width:14px;height:14px>.","orientation_history":[0],"rt":897,"trial_type":"polygon-arrow-feedback","trial_index":0,"trial_index_global":32,"time_elapsed":197616,"internal_chunk_id":"0-0.7-0"},{"nsides":6,"question":"What is the inverse of 0 under <img src=./images/hexagon_symbol.png style=width:14px;height:14px>? <br /><br /> (Remember, the inverse of an element is the thing which you combine with it to produce the identity.)","response_type":"free","response_choices":[],"correct_response":"0","response":"0","orientation_history":[[0]],"response_history":["0"],"rt":2404,"trial_type":"polygon-arrow-question","trial_index":0,"trial_index_global":33,"time_elapsed":200020,"internal_chunk_id":"0-0.7-0"},{"nsides":6,"feedback":"Correct! The inverse of 0 under <img src=./images/hexagon_symbol.png style=width:14px;height:14px> is 0 because 0 <img src=./images/hexagon_symbol.png style=width:14px;h eight:14 px> 0 = 0, and 0 is the identity under <img src=./images/hexagon_symbol.png style=width:14px;height:14px>.","orientation_history":[0],"rt":577,"trial_type":"polygon-arrow-feedback","trial_index":0,"trial_index_global":34,"time_elapsed":200597,"internal_chunk_id":"0-0.7-0"},{"instructions":"It is also possible to successively apply <img src=./images/hexagon_symbol.png style=width:14px;height:14px>, and the operation can simply be performed starting with the left-most pair. For example, 2 <img src=./images/hexagon_symbol.png style=width:14px;height:14px> 3 <img src=./images/hexagon_symbol.png style=width:14px;height:14px> 4 = 5 <img src=./images/hexagon_symbol.png style=width:14px;height:14px> 4 = 3.","rt":8643,"trial_type":"instructions","trial_index":0,"trial_index_global":35,"time_elapsed":209241,"internal_chunk_id":"0-0"},{"nsides":6,"instructions":"We have one last definition to learn today. Let's start with an example. Under our  operatio n <img src=./images/hexagon_symbol.png style=width:14px;height:14px> we can make every other number using just 1: 2 = 1 <img src=./images/hexagon_symbol.png style=width:14px;height:14px> 1, 3 = 1 <img src=./images/hexagon_symbol.png style=width:14px;height:14px> 1 <img src=./images/hexagon_symbol.png style=width:14px;height:14px> 1, 4 = 1 <img src=./images/hexagon_symbol.png style=width:14px;height:14px> 1 <img src=./images/hexagon_symbol.png style=width:14px;height:14px> 1 <img src=./images/hexagon_symbol.png style=width:14px;height:14px> 1, 5 = 1 <img src=./images/hexagon_symbol.png style=width:14px;height:14px> 1 <img src=./images/hexagon_symbol.png style=width:14px;height:14px> 1 <img src=./images/hexagon_symbol.png style=width:14px;height:14px> 1 <img src=./images/hexagon_symbol.png style=width:14px;height:14px> 1, and 0 = 1 <img src=./images/hexagon_symbol.png style=width:14px ;height: 14px> 1 <img src=./images/hexagon_symbol.png style=width:14px;height:14px> 1 <img src=./images/hexagon_symbol.png style=width:14px;height:14px> 1 <img src=./images/hexagon_symbol.png style=width:14px;height:14px> 1 <img src=./images/hexagon_symbol.png style=width:14px;height:14px> 1. Because 1 can make every other element under <img src=./images/hexagon_symbol.png style=width:14px;height:14px>, we say that 1 is a <i>generator</i> under <img src=./images/hexagon_symbol.png style=width:14px;height:14px>. <br /><br /> However, 2 is not a generator under <img src=./images/hexagon_symbol.png style=width:14px;height:14px>, because 4 = 2 <img src=./images/hexagon_symbol.png style=width:14px;height:14px> 2, and 0 = 2 <img src=./images/hexagon_symbol.png style=width:14px;height:14px> 2 <img src=./images/hexagon_symbol.png style=width:14px;height:14px> 2, but there is no way to make 1, 3, or 5 using just  2.","orientation_history":[0],"rt":33725,"trial_type":"polygon-arrow-instructions","trial_index":0,"trial_index_global":36,"time_elapsed":242966,"internal_chunk_id":"0-0"},{"nsides":6,"question":"Now you try! Is 3 a generator under <img src=./images/hexagon_symbol.png style=width:14px;height:14px>? <br /><br /> (Remember, a generator is an element which can make every other element.)","response_type":"multi","response_choices":["Yes","No"],"correct_response":"No","response":"Yes","orientation_history":[[0]],"response_history":["Yes"],"rt":16799,"trial_type":"polygon-arrow-question","trial_index":0,"trial_index_global":37,"time_elapsed":259765,"internal_chunk_id":"0-0.10-0"},{"nsides":6,"feedback":"Sorry, that's incorrect. 3 is not a generator under <img src=./images/hexagon_symbol.png style=width:14px;height:14px>, because 3 = 3, 0 = 3 <img src=./images/hexagon_symbol.png style=width:14px;height:14px> 3, but there is no way to make 1, 2, 4, or 5 using just 3 .","orientation_history":[0],"rt":6199,"trial_type":"polygon-arrow-feedback","trial_index":0,"trial_index_global":38,"time_elapsed":265964,"internal_chunk_id":"0-0.10-0"},{"nsides":6,"question":"Is 5 a generator under <img src=./images/hexagon_symbol.png style=width:14px;height:14px>? <br /><br /> (Remember, a generator is an element which can make every other element.)","response_type":"multi","response_choices":["Yes","No"],"correct_response":"Yes","response":"No","orientation_history":[[0]],"response_history":["No"],"rt":16038,"trial_type":"polygon-arrow-question","trial_index":0,"trial_index_global":39,"time_elapsed":282002,"internal_chunk_id":"0-0.10-0"},{"nsides":6,"feedback":"Sorry, that's incorrect. 5 is a generator under <img src=./images/hexagon_symbol.png style=width:14px;height:14px>, because 5 = 5, 4 = 5 <img src=./images/hexagon_symbol.png style=width:14px;height:14px> 5, 3 = 5 <img src=./images/hexagon_symbol.png style=width:14px;height:1 4px> 5  <img src=./images/hexagon_symbol.png style=width:14px;height:14px> 5, 2 = 5 <img src=./images/hexagon_symbol.png style=width:14px;height:14px> 5 <img src=./images/hexagon_symbol.png style=width:14px;height:14px> 5 <img src=./images/hexagon_symbol.png style=width:14px;height:14px> 5, 1 = 5 <img src=./images/hexagon_symbol.png style=width:14px;height:14px> 5 <img src=./images/hexagon_symbol.png style=width:14px;height:14px> 5 <img src=./images/hexagon_symbol.png style=width:14px;height:14px> 5 <img src=./images/hexagon_symbol.png style=width:14px;height:14px> 5, and 0 = 5 <img src=./images/hexagon_symbol.png style=width:14px;height:14px> 5 <img src=./images/hexagon_symbol.png style=width:14px;height:14px> 5 <img src=./images/hexagon_symbol.png style=width:14px;height:14px> 5 <img src=./images/hexagon_symbol.png style=width:14px;height:14px> 5 <img src=./images/hexagon_symbol.png style= width:14px;height:14px> 5, so you can make all of the numbers under <img src=./images/hexagon_symbol.png style=width:14px;height:14px> using 5","orientation_history":[0],"rt":46536,"trial_type":"polygon-arrow-feedback","trial_index":0,"trial_index_global":40,"time_elapsed":328539,"internal_chunk_id":"0-0.10-0"},{"nsides":6,"question":"Is 4 a generator under <img src=./images/hexagon_symbol.png style=width:14px;height:14px>? <br /><br /> (Remember, a generator is an element which can make every other element.)","response_type":"multi","response_choices":["Yes","No"],"correct_response":"No","response":"No","orientation_history":[[0]],"response_history":["No"],"rt":16182,"trial_type":"polygon-arrow-question","trial_index":0,"trial_index_global":41,"time_elapsed":344722,"internal_chunk_id":"0-0.10-0"},{"nsides":6,"feedback":"Correct! 4 is not a generator under <img src=./images/hexagon_symbol.png style=width:14px;height:14px>, because 4 = 4, 2 = 4 <im g src= ./images/hexagon_symbol.png style=width:14px;height:14px> 4, and 0 = 4 <img src=./images/hexagon_symbol.png style=width:14px;height:14px> 4 <img src=./images/hexagon_symbol.png style=width:14px;height:14px> 4, but there is no way to make 1, 3, or 5 using just 4.","orientation_history":[0],"rt":1313,"trial_type":"polygon-arrow-feedback","trial_index":0,"trial_index_global":42,"time_elapsed":346035,"internal_chunk_id":"0-0.10-0"},{"nsides":6,"question":"Is 0 a generator under <img src=./images/hexagon_symbol.png style=width:14px;height:14px>? <br /><br /> (Remember, a generator is an element which can make every other element.)","response_type":"multi","response_choices":["Yes","No"],"correct_response":"No","response":"No","orientation_history":[[0]],"response_history":["No"],"rt":3614,"trial_type":"polygon-arrow-question","trial_index":0,"trial_index_global":43,"time_elapsed":349649,"internal_chunk_id":"0-0.10-0"},{"nsides":6,"feedback":"Correct!  0 is no t a generator under <img src=./images/hexagon_symbol.png style=width:14px;height:14px>, because 0 = 0, but there is no way to make 1, 2, 3, 4, or 5 using just 0.","orientation_history":[0],"rt":718,"trial_type":"polygon-arrow-feedback","trial_index":0,"trial_index_global":44,"time_elapsed":350368,"internal_chunk_id":"0-0.10-0"},{"nsides":9,"instructions":"Now we are going to ask you some questions about a new operation, <img src=./images/nonagon_symbol.png style=width:14px;height:14px>, on the numbers 0, 1, 2, 3, 4, 5, 6, 7, 8. It works exactly like <img src=./images/hexagon_symbol.png style=width:14px;height:14px>, except now you use the nonagon shown at the right. <br /><br />Do you see how <img src=./images/nonagon_symbol.png style=width:14px;height:14px> works just like <img src=./images/hexagon_symbol.png style=width:14px;height:14px>? By labeling the points of the nonagon with the numbers from 0 to 8, we ensure that when we combi ne two n umbers under <img src=./images/nonagon_symbol.png style=width:14px;height:14px>, we only produce numbers between 0 and 8. <br /><br />We'll give you one practice question with feedback to make sure you understand the new operation. After that, try to complete the remaining questions as accurately as possible.","orientation_history":[0],"rt":7737,"trial_type":"polygon-arrow-instructions","trial_index":0,"trial_index_global":45,"time_elapsed":358105,"internal_chunk_id":"0-0"},{"nsides":9,"question":"Practice: What is 5 <img src=./images/nonagon_symbol.png style=width:14px;height:14px> 5?","response_type":"free","response_choices":[],"correct_response":"1","response":"1","orientation_history":[[0]],"response_history":["1"],"rt":5720,"trial_type":"polygon-arrow-question","trial_index":0,"trial_index_global":46,"time_elapsed":363826,"internal_chunk_id":"0-0.12-0"},{"nsides":9,"feedback":"Correct! 5 <img src=./images/nonagon_symbol.png style=width:14px;height :14px>  5 = 1 because 5 steps clockwise on the nonagon from 5 brings us to 1","orientation_history":[0],"rt":611,"trial_type":"polygon-arrow-feedback","trial_index":0,"trial_index_global":47,"time_elapsed":364437,"internal_chunk_id":"0-0.12-0"},{"nsides":9,"question":"What is 3 <img src=./images/nonagon_symbol.png style=width:14px;height:14px> 3?","response_type":"free","response_choices":[],"correct_response":"6","response":"6","orientation_history":[[0]],"response_history":["6"],"rt":4435,"trial_type":"polygon-arrow-question","trial_index":0,"trial_index_global":48,"time_elapsed":368872,"internal_chunk_id":"0-0.12-0"},{"nsides":9,"question":"What is 7 <img src=./images/nonagon_symbol.png style=width:14px;height:14px> 4?","response_type":"free","response_choices":[],"correct_response":"2","response":"2","orientation_history":[[0]],"response_history":["2"],"rt":6033,"trial_type":"polygon-arrow-question","trial_index":0,"trial_index_global":49,"time_elapsed":374905,"internal_chunk_id":"0-0.12-0"},{"nsides":9,"question":"What is 1 <img src=./images/nonagon_symbol.png style=width:14px;height:14px> 8?","response_type":"free","response_choices":[],"correct_response":"0","response":"0","orientation_history":[[0]],"response_history":["0"],"rt":6309,"trial_type":"polygon-arrow-question","trial_index":0,"trial_index_global":50,"time_elapsed":381214,"internal_chunk_id":"0-0.12-0"},{"nsides":9,"question":"What is 5 <img src=./images/nonagon_symbol.png style=width:14px;height:14px> 4?","response_type":"free","response_choices":[],"correct_response":"0","response":"0","orientation_history":[[0]],"response_history":["0"],"rt":5455,"trial_type":"polygon-arrow-question","trial_index":0,"trial_index_global":51,"time_elapsed":386669,"internal_chunk_id":"0-0.12-0"},{"nsides":9,"question":"What is 6 <img src=./images/nonagon_symbol.png style=width:14px;height:14px> 6?","response_type":"free","response_choices":[],"correct_response":"3","response":"3","orientation_history":[[0]],"response_history":["3"],"rt":4832,"trial_type":"polygon-arrow-question","trial_index":0,"trial_index_global":52,"time_elapsed":391501,"internal_chunk_id":"0-0.12-0"},{"nsides":9,"question":"What is 4 <img src=./images/nonagon_symbol.png style=width:14px;height:14px> 1? Please explain in words how you got your answer.","response_type":"free","response_choices":[],"correct_response":"","response":"The answer is 5 because I started at for an moved around the nonagon clockwise 1 time to arrive at 5.","orientation_history":[[0]],"response_history":["Tha ","Tha","The answer is 5 because I started at for an mno","The answer is 5 because I started at for an mn","The answer is 5 because I started at for an moved around the nonagon 1 time to arrive a","The answer is 5 because I started at for an moved around the nonagon cl1 time to arrive a","The answer is 5 because I started at for an moved around the nonagon clo1 time to arrive a","The answer  is 5 be cause I started at for an moved around the nonagon clock1 time to arrive a","The answer is 5 because I started at for an moved around the nonagon clockwi1 time to arrive a","The answer is 5 because I started at for an moved around the nonagon clockwis1 time to arrive a","The answer is 5 because I started at for an moved around the nonagon clockwise1 time to arrive a","The answer is 5 because I started at for an moved around the nonagon clockwise 1 time to arrive atr ","The answer is 5 because I started at for an moved around the nonagon clockwise 1 time to arrive atr","The answer is 5 because I started at for an moved around the nonagon clockwise 1 time to arrive at","The answer is 5 because I started at for an moved around the nonagon clockwise 1 time to arrive at 5."],"rt":38990,"trial_type":"polygon-arrow-question","trial_index":0,"trial_index_global":53,"time_elapsed":430491,"internal_chunk_id":"0-0.12-0"},{"nsides":9,"question":"What is 8 <img src=./images/nonagon_sym bol.png style=width:14px;height:14px> 4? Please explain in words how you got your answer.","response_type":"free","response_choices":[],"correct_response":"","response":"The answer is 3 because I started at 8 and moved clockwise around the nonagon to reach 3.","orientation_history":[[0]],"response_history":["The answer is 3 ","The answer is 3 because I start ","The answer is 3 because I started at 8 and moved clockwise around the nonagon to read","The answer is 3 because I started at 8 and moved clockwise around the nonagon to reach 3."],"rt":63862,"trial_type":"polygon-arrow-question","trial_index":0,"trial_index_global":54,"time_elapsed":494353,"internal_chunk_id":"0-0.12-0"},{"nsides":9,"question":"What is the identity under <img src=./images/nonagon_symbol.png style=width:14px;height:14px>? Please explain in words how you got your answer.","response_type":"free","response_choices":[],"correct_response":"0","response":"The identity under 9 is 0.","orientation_history":[[0]],"response_history":["The di","The d","The identity under 9 is 0 ","The identity under 9 is 0."],"rt":19699,"trial_type":"polygon-arrow-question","trial_index":0,"trial_index_global":55,"time_elapsed":514053,"internal_chunk_id":"0-0.12-0"},{"nsides":9,"question":"What is the inverse of 5 under <img src=./images/nonagon_symbol.png style=width:14px;height:14px>?","response_type":"free","response_choices":[],"correct_response":"4","response":"4","orientation_history":[[0]],"response_history":["4"],"rt":6985,"trial_type":"polygon-arrow-question","trial_index":0,"trial_index_global":56,"time_elapsed":521038,"internal_chunk_id":"0-0.12-0"},{"nsides":9,"question":"What is the inverse of 2 under <img src=./images/nonagon_symbol.png style=width:14px;height:14px>?","response_type":"free","response_choices":[],"correct_response":"7","response":"7","orientation_history":[[0]],"response_history":["7"],"rt":5545,"trial_type":"polygon-arrow-question","trial_index":0,"trial_index_global":57,"time_elapsed":526583,"internal_chunk_id":"0-0.12-0"},{"nsides":9,"question":"What is the inverse of 0 under <img src=./images/nonagon_symbol.png style=width:14px;height:14px>?","response_type":"free","response_choices":[],"correct_response":"0","response":"0","orientation_history":[[0]],"response_history":["0"],"rt":3322,"trial_type":"polygon-arrow-question","trial_index":0,"trial_index_global":58,"time_elapsed":529906,"internal_chunk_id":"0-0.12-0"},{"nsides":9,"question":"What is the inverse of 3 under <img src=./images/nonagon_symbol.png style=width:14px;height:14px>? Please explain in words how you got your answer.","response_type":"free","response_choices":[],"correct_response":"","response":"The answer is 6 because that is how many spots you need to move to reach the identity.","orientation_history":[[0]],"response_history":["The answer is 6 because that is how many spots you need to move to reach the identy","The answer is 6 because that is h ow many  spots you need to move to reach the identity."],"rt":22597,"trial_type":"polygon-arrow-question","trial_index":0,"trial_index_global":59,"time_elapsed":552504,"internal_chunk_id":"0-0.12-0"},{"nsides":9,"question":"Is 2 a generator under <img src=./images/nonagon_symbol.png style=width:14px;height:14px>? Please explain in words how you got your answer.","response_type":"free","response_choices":[],"correct_response":"","response":"No, because you cannot create every number using 2.","orientation_history":[[0]],"response_history":["No, because you cannot creat ","No, because you cannot create every number using 2."],"rt":77263,"trial_type":"polygon-arrow-question","trial_index":0,"trial_index_global":60,"time_elapsed":629767,"internal_chunk_id":"0-0.12-0"},{"nsides":9,"question":"Is 3 a generator under <img src=./images/nonagon_symbol.png style=width:14px;height:14px>? Please explain in words how you got your answer.","response_type":"free","response_choices":[],"correct_response":"","response":"No, because you can only create 3,6,and 0 using 3.  You need to be able to make every number for it to be considered a generator.","orientation_history":[[0]],"response_history":["No, because you can only creat ","No, because you can only create 3,6,and 0 using 3.  You need to be able to ge","No, because you can only create 3,6,and 0 using 3.  You need to be able to g","No, because you can only create 3,6,and 0 using 3.  You need to be able to make every number for it to be considered a ghen","No, because you can only create 3,6,and 0 using 3.  You need to be able to make every number for it to be considered a ghe","No, because you can only create 3,6,and 0 using 3.  You need to be able to make every number for it to be considered a gh","No, because you can only create 3,6,and 0 using 3.  You need to be able to make every number for it to be considered a generator."],"rt":52274,"trial_type":"polygon-arrow-question","trial_index":0,"trial_index_global":61,"time_elapsed":682042,"internal_chunk_id":"0-0.12-0"},{"nsides":9,"question":"Is 5 a generator under <img src=./images/nonagon_symbol.png style=width:14px;height:14px>? Please explain in words how you got your answer.","response_type":"free","response_choices":[],"correct_response":"","response":"Yes, because all numbers can be recreated using 5 under non(9).","orientation_history":[[0]],"response_history":["Yesw, ","Yesw,","Yesw","Yes, because all number ","Yes, because all numbers can be recreated using 5 under non(9)."],"rt":79660,"trial_type":"polygon-arrow-question","trial_index":0,"trial_index_global":62,"time_elapsed":761703,"internal_chunk_id":"0-0.12-0"},{"nsides":9,"question":"Is 6 a generator under <img src=./images/nonagon_symbol.png style=width:14px;height:14px>? Please explain in words how you got your answer.","response_type":"free","response_choices":[],"correct_response":"","response":"No because only 0, 3, and 6 can be recreated.","orientation_history":[[0]],"response_history":["No, ","No,","No because onlyu ","No because onlyu","No because only 0, 3 ","No because only 0, 3, and 6 can be recreated."],"rt":33494,"trial_type":"polygon-arrow-question","trial_index":0,"trial_index_global":63,"time_elapsed":795197,"internal_chunk_id":"0-0.12-0"},{"nsides":"n","instructions":"Now we'd like to ask you some questions about <img src=./images/ngon_symbol.png style=width:14px;height:14px>, where n could be any positive counting number. For example, n could be 3, and the polygon a triangle, or n could be any other counting number you can think of. If you need to write the operation, you can use (n), and your answers can include n to stand in for the arbitrary value if necessary. (You can use the polygon at the right to think, but it doesn't necessarily correspond to the real polygon, which is why we've left most of it dashed.)","orientation_history":[0],"rt":43275,"trial_type":"polygon-arrow-instructions","trial_index":0,"trial_index_global":64,"time_elapsed":838472,"internal_chunk_id":"0-0"},{"nsides":"n","question":"What is the formula for the inverse of 1 under <img src=./images/ngon_symbol.png style=width:14px;height:14px>?","response_type":"free","response_choices":[],"correct_response":"n-1","response":"Starting point: x","orientation_history":[[0]],"response_history":["9","(n) - ","X ","X","Star","Sta","St","S","Starting point: x"],"rt":94151,"trial_type":"polygon-arrow-question","trial_index":0,"trial_index_global":65,"time_elapsed":932624,"internal_chunk_id":"0-0.14-0"},{"nsides":"n","question":"What is the formula for the inverse of an element x under <img src=./images/ngon_symbol.png style=width:14px;height:14px>? Please explain in words why your answer is correct.","response_type":"free","response_choices":[],"correct_response":"n-x","response":"x + ((n) - x) = 0.  This is correct because this will bring you back to zero.  ","orientation_history":[[0]],"response_history":["x + (n) = 0.  ","x + ((n) = 0.  ","x + ((n)  = 0.  ","x + ((n) - = 0.  ","x + ((n) -  = 0.  ","x + ((n) - x = 0.  ","x + ((n) - x) = 0.    ","x + ((n) - x) = 0.  T  ","x + ((n) - x) = 0.  Thi  ","x + ((n) - x) = 0.  This   ","x + ((n) - x) = 0.  This is   ","x + ((n) - x) = 0.  This is co  ","x + ((n) - x) = 0.  This is cor  ","x + ((n) - x) = 0.  This is corr  ","x + ((n) - x) = 0.  This is corre  ","x + ((n) - x) = 0.  This is correc  ","x + ((n) - x) = 0.  This is correct   ","x + ((n) - x) = 0.  This is correct b  ","x + ((n) - x) = 0.  This is correct be  ","x + ((n) - x) = 0.  This is correct bec  ","x + ((n) - x) = 0.  This is correct beca  ","x + ((n) - x) = 0.  This is correct becaus  ","x + ((n) - x) = 0.  This is correct because   ","x + ((n) - x) = 0.  This is correct because th  ","x + ((n) - x) = 0.  This is correct because thi  ","x + ((n) - x) = 0.   This is  correct because this   ","x + ((n) - x) = 0.  This is correct because this w  ","x + ((n) - x) = 0.  This is correct because this wi  ","x + ((n) - x) = 0.  This is correct because this wil  ","x + ((n) - x) = 0.  This is correct because this will   ","x + ((n) - x) = 0.  This is correct because this will b  ","x + ((n) - x) = 0.  This is correct because this will br  ","x + ((n) - x) = 0.  This is correct because this will bri  ","x + ((n) - x) = 0.  This is correct because this will brin  ","x + ((n) - x) = 0.  This is correct because this will bring   ","x + ((n) - x) = 0.  This is correct because this will bring y  ","x + ((n) - x) = 0.  This is correct because this will bring you   ","x + ((n) - x) = 0.  This is correct because this will bring you b  ","x + ((n) - x) = 0.  This is correct because this will bring you ba  ","x + ((n) - x) = 0.  This is correct because this will bring you back   ","x + ((n) - x)  = 0.  Th is is correct because this will bring you back to   ","x + ((n) - x) = 0.  This is correct because this will bring you back to z  ","x + ((n) - x) = 0.  This is correct because this will bring you back to zer  ","x + ((n) - x) = 0.  This is correct because this will bring you back to zero  ","x + ((n) - x) = 0.  This is correct because this will bring you back to zero.  "],"rt":83739,"trial_type":"polygon-arrow-question","trial_index":0,"trial_index_global":66,"time_elapsed":1016364,"internal_chunk_id":"0-0.14-0"},{"nsides":"n","question":"Is there a pattern to which elements are generators? How can you know if an element x is a generator under <img src=./images/ngon_symbol.png style=width:14px;height:14px> without seeing whether it can make all the elements?.","response_type":"free","response_choices":[],"correct_response":"","response":"A number will not be a generator if it is a factor of (n).","orientation_history":[[0]],"response_history":["A  number  will not be a generator if it is a factor of the ","A number will not be a generator if it is a factor of the","A number will not be a generator if it is a factor of th","A number will not be a generator if it is a factor of t","A number will not be a generator if it is a factor of 9","A number will not be a generator if it is a factor of (n)."],"rt":47257,"trial_type":"polygon-arrow-question","trial_index":0,"trial_index_global":67,"time_elapsed":1063621,"internal_chunk_id":"0-0.14-0"},{"nsides":"n","question":"True or false: If x is an odd number, it must be a generator under <img src=./images/ngon_symbol.png style=width:14px;height:14px>.","response_type":"multi","response_choices":["True","False"],"correct_response":"False","response":"False","orientation_history":[[0]],"response_history":["False"],"rt":3747,"trial_type":"polygon-arrow-question","trial_index":0,"trial_index_global":68,"time_elapsed":1067369,"internal_chunk_id":"0-0.14-0"},{"nsides":"n","question":" True or false: If x is an even number, it must not be a generator under <img src=./images/ngon_symbol.png style=width:14px;height:14px>.","response_type":"multi","response_choices":["True","False"],"correct_response":"False","response":"False","orientation_history":[[0]],"response_history":["False"],"rt":4138,"trial_type":"polygon-arrow-question","trial_index":0,"trial_index_global":69,"time_elapsed":1071507,"internal_chunk_id":"0-0.14-0"},{"nsides":"n","question":"True or false: If x is not a generator under <img src=./images/ngon_symbol.png style=width:14px;height:14px>, x must be a divisor of n, that is, x must divide n evenly, with no remainder.","response_type":"multi","response_choices":["True","False"],"correct_response":"False","response":"True","orientation_history":[[0]],"response_history":["True"],"rt":8377,"trial_type":"polygon-arrow-question","trial_index":0,"trial_index_global":70,"time_elapsed":1079885,"internal_chunk_id":"0-0.14-0"},{"nsides":"n","question":"True or false: If x is not a generator under <img src=./images/ngon_symbol.png style=width:14px;height:14px>, x must be a multiple of a divisor of n. Please explain in words why your answer is correct.","response_type":"free","response_choices":[],"correct_response":"True","response":"This is true because x will never produce values other than multiples of itself because it will always hit the identity.","orientation_history":[[0]],"response_history":["This is br","This is b","This is true because the ","This is true because the","This is true because th","This is true because t","This is true because x will never produce fa","This is true because x will never produce f","This is true because x will never produce values other that ","This is true because x will never produce values other that","This is true because x will never produce values other than multiples of itself because it will alway s","This is true because x will never produce values other than m ultiples  of itself because it will alway ","This is true because x will never produce values other than multiples of itself because it will always hit the identity."],"rt":38698,"trial_type":"polygon-arrow-question","trial_index":0,"trial_index_global":71,"time_elapsed":1118583,"internal_chunk_id":"0-0.14-0"},{"nsides":"n","question":"If an element x is a generator under <img src=./images/ngon_symbol.png style=width:14px;height:14px>, is its inverse a generator under <img src=./images/ngon_symbol.png style=width:14px;height:14px> always, sometimes, or never?","response_type":"multi","response_choices":["Always","Sometimes","Never"],"correct_response":"Always","response":"Always","orientation_history":[[0]],"response_history":["Always"],"rt":9343,"trial_type":"polygon-arrow-question","trial_index":0,"trial_index_global":72,"time_elapsed":1127926,"internal_chunk_id":"0-0.14-0"},{"nsides":"n","question":"If an element x is a generator under <img src=./images/ngon_symb ol.png  style=width:14px;height:14px>, is x <img src=./images/ngon_symbol.png style=width:14px;height:14px> x a generator under <img src=./images/ngon_symbol.png style=width:14px;height:14px> always, sometimes, or never? Please explain in words why your answer is correct.","response_type":"free","response_choices":[],"correct_response":"Sometimes","response":"It will always be a generator because it was able to be generated by it's inverse, so it will work the other way around too.","orientation_history":[[0]],"response_history":["It i","It will always be a j","It will always be a generator because if ","It will always be a generator because if","It will always be a generator because it was able to be genereat","It will always be a generator because it was able to be generea","It will always be a generator because it was able to be genere","It will always be a generator because it was able to be generated by it ","It will always be a generator because it was abl e to be  generated by it","It will always be a generator because it was able to be generated by i","It will always be a generator because it was able to be generated by it's inverse, so it will work the other way ro","It will always be a generator because it was able to be generated by it's inverse, so it will work the other way r","It will always be a generator because it was able to be generated by it's inverse, so it will work the other way around too."],"rt":51481,"trial_type":"polygon-arrow-question","trial_index":0,"trial_index_global":73,"time_elapsed":1179408,"internal_chunk_id":"0-0.14-0"},{"nsides":"n","question":"If an element x is not a generator under <img src=./images/ngon_symbol.png style=width:14px;height:14px>, is x <img src=./images/ngon_symbol.png style=width:14px;height:14px> x a generator under <img src=./images/ngon_symbol.png style=width:14px;height:14px> always, sometimes, or never?","response_type":"multi","response_choices":["Always","Sometim es","Never"],"correct_response":"Never","response":"Never","orientation_history":[[0]],"response_history":["Always","Never"],"rt":18237,"trial_type":"polygon-arrow-question","trial_index":0,"trial_index_global":74,"time_elapsed":1197645,"internal_chunk_id":"0-0.14-0"},{"instructions":"We would like to ask you some questions about your background. Please press Continue to continue.","rt":1307,"trial_type":"instructions","trial_index":0,"trial_index_global":75,"time_elapsed":1198952,"internal_chunk_id":"0-0.15-0"},{"question":"What is your age?","response_type":"free","response_choices":[],"correct_response":"","response":"27","response_history":["27"],"rt":2502,"trial_type":"question","trial_index":0,"trial_index_global":76,"time_elapsed":1201454,"internal_chunk_id":"0-0.15-0"},{"question":"What is your level of education?","response_type":"multi","response_choices":["Did not graduate high school","High school diploma","Some college, no degree","Associates Degree","Bachel ors Degr ee","Some graduate school, no degree","Masters Degree","Doctorate, M.D., etc."],"correct_response":"","response":"Bachelors Degree","response_history":["Bachelors Degree"],"rt":2331,"trial_type":"question","trial_index":0,"trial_index_global":77,"time_elapsed":1203786,"internal_chunk_id":"0-0.15-0"},{"question":"What is the most advanced math class you've completed? If you have multiple classes and you're not sure which one is most advanced, please list them.","response_type":"free","response_choices":[],"correct_response":"","response":"Calculus","response_history":["Calculus"],"rt":6865,"trial_type":"question","trial_index":0,"trial_index_global":78,"time_elapsed":1210653,"internal_chunk_id":"0-0.15-0"},{"question":"How familiar are you with the concept of modular arithmetic?","response_type":"multi","response_choices":["1 - never heard of it","2 - heard of it but didn't know what it was","3 - seen it used or explained","4 - used it but not often or recently","5 - used it,  remembe r and understand it"],"correct_response":"1","response":"4 - used it but not often or recently","response_history":["3 - seen it used or explained","4 - used it but not often or recently"],"rt":6201,"trial_type":"question","trial_index":0,"trial_index_global":79,"time_elapsed":1216854,"internal_chunk_id":"0-0.15-0"},{"question":"How familiar are you with the concept of a mathematical group?","response_type":"multi","response_choices":["1 - never heard of it","2 - heard of it but didn't know what it was","3 - seen it used or explained","4 - used it but not often or recently","5 - used it, remember and understand it"],"correct_response":"1","response":"3 - seen it used or explained","response_history":["3 - seen it used or explained"],"rt":3423,"trial_type":"question","trial_index":0,"trial_index_global":80,"time_elapsed":1220278,"internal_chunk_id":"0-0.15-0"},{"question":"Do you feel you learned something from this HIT?","response_type":"multi","response_choices":["1 - not a t all"," 2 - somewhat","3 - definitely"],"correct_response":"1","response":"3 - definitely","response_history":["3 - definitely"],"rt":2412,"trial_type":"question","trial_index":0,"trial_index_global":81,"time_elapsed":1222691,"internal_chunk_id":"0-0.15-0"},{"question":"Do you feel you understood the concepts in this HIT?","response_type":"multi","response_choices":["1 - not at all","2 - somewhat","3 - definitely"],"correct_response":"1","response":"3 - definitely","response_history":["3 - definitely"],"rt":2022,"trial_type":"question","trial_index":0,"trial_index_global":82,"time_elapsed":1224713,"internal_chunk_id":"0-0.15-0"},{"question":"Did you enjoy this HIT?","response_type":"multi","response_choices":["1 - not at all","2 - somewhat","3 - definitely"],"correct_response":"1","response":"3 - definitely","response_history":["3 - definitely"],"rt":1647,"trial_type":"question","trial_index":0,"trial_index_global":83,"time_elapsed":1226360,"internal_chunk_id":"0-0.15-0"},{"question":"What  is your gender?","response_type":"multi","response_choices":["Female","Male","Other"],"correct_response":"","response":"Male","response_history":["Male"],"rt":1887,"trial_type":"question","trial_index":0,"trial_index_global":84,"time_elapsed":1228249,"internal_chunk_id":"0-0.15-0"},{"question":"What is/are your native language(s)? (The languages spoken in your household when you were a child.)","response_type":"free","response_choices":[],"correct_response":"","response":"English","response_history":["English"],"rt":3840,"trial_type":"question","trial_index":0,"trial_index_global":85,"time_elapsed":1232089,"internal_chunk_id":"0-0.15-0"},{"question":"Did you use pen and paper at any point on this HIT?","response_type":"free","response_choices":[],"correct_response":"","response":"No","response_history":["No"],"rt":3009,"trial_type":"question","trial_index":0,"trial_index_global":86,"time_elapsed":1235098,"internal_chunk_id":"0-0.15-0"},{"question":"Do you have any comments o n this H IT?","response_type":"free","response_choices":[],"correct_response":"","response":"This was very interesting, I would do more studies for you in the future.","response_history":["This was very interesting, W","This was very interesting, I would do more studies for you in the future if you poste","This was very interesting, I would do more studies for you in the future if you post again","This was very interesting, I would do more studies for you in the future if you post agai","This was very interesting, I would do more studies for you in the future if you post ","This was very interesting, I would do more studies for you in the future if you post","This was very interesting, I would do more studies for you in the future if you pos","This was very interesting, I would do more studies for you in the future if you po","This was very interesting, I would do more studies for you in the future."],"rt":32231,"trial_type":"question","trial_index":0,"trial_index_global":87,"time_elapsed":1267329,"internal_chunk_id":"0-0.15-0"}]