[{"nsides":6,"instructions":"Let's define a new operation <img src=./images/hexagon_symbol.png style=width:14px;height:14px>. This operation will give us a way of combining two of the numbers 0, 1, 2, 3, 4, 5 to get another one of them back. Consider the hexagon at the right, where I've labeled each point with one of the numbers. To perform <img src=./images/hexagon_symbol.png style=width:14px;height:14px>, you can use the interactive diagram on the right, or perform the operation in your mind. Point the arrow at the first number on the hexagon by clicking, then click (or click and drag) to move the arrow the second number of points clockwise around the hexagon. The number the arrow arrives at is your result. (The operation is called <img src=./images/hexagon_symbol.png style=width:14px;height:14px> because it uses the hexagon, which has 6 sides.) <br /><br />For example, 3 <img src=./images/hexagon_symbol.png style=width:14px;height:14px> 5 =  2, becau se 5 steps clockwise from 3 on the hexagon brings us to 2. So 3 <img src=./images/hexagon_symbol.png style=width:14px;height:14px> 5 = 2.<br /><br />Similarly, 1 <img src=./images/hexagon_symbol.png style=width:14px;height:14px> 4 = 5, because 4 steps clockwise from 1 brings us to 5. <br /><br />Click Continue when you're ready to move on.","orientation_history":[0],"rt":41694,"trial_type":"polygon-arrow-instructions","trial_index":0,"trial_index_global":1,"time_elapsed":952399,"internal_chunk_id":"0-0"},{"nsides":6,"instructions":"Do you see how <img src=./images/hexagon_symbol.png style=width:14px;height:14px> works? By labeling the points of the hexagon with the numbers from 0 to 5, we ensure that when we combine two numbers under <img src=./images/hexagon_symbol.png style=width:14px;height:14px>, we only produce numbers between 0 and 5.<br /><br />Click Continue when you are ready to move on.","orientation_history":[0],"rt":7056,"trial_type":"polygon-arrow-instructions","trial_index":0,"trial_index_global":2,"time_elapsed":959459,"internal_chunk_id":"0-0"},{"nsides":6,"question":"Now try one on your own! What is 4 <img src=./images/hexagon_symbol.png style=width:14px;height:14px> 5? <br /><br /> (Remember, to perform <img src=./images/hexagon_symbol.png style=width:14px;height:14px>, you can use the interactive diagram on the right, or perform the operation in your mind. Point the arrow at the first number on the hexagon, then move the arrow the second number of points clockwise around the hexagon. The number the arrow arrives at is your result.)","response_type":"free","response_choices":[],"correct_response":"3","response":"3","orientation_history":[[0]],"response_history":["3"],"rt":45692,"trial_type":"polygon-arrow-question","trial_index":0,"trial_index_global":3,"time_elapsed":1005152,"internal_chunk_id":"0-0.3-0"},{"nsides":6,"feedback":"Correct! 4 <img src=./images/hexagon_symbol.png style= width:14px;height:14px> 5 = 3 because 5 steps clockwise on the hexagon from 4 brings us to 3","orientation_history":[0],"rt":1682,"trial_type":"polygon-arrow-feedback","trial_index":0,"trial_index_global":4,"time_elapsed":1006836,"internal_chunk_id":"0-0.3-0"},{"nsides":6,"question":"What is 3 <img src=./images/hexagon_symbol.png style=width:14px;height:14px> 2? <br /><br /> (Remember, to perform <img src=./images/hexagon_symbol.png style=width:14px;height:14px>, you can use the interactive diagram on the right, or perform the operation in your mind. Point the arrow at the first number on the hexagon, then move the arrow the second number of points clockwise around the hexagon. The number the arrow arrives at is your result.)","response_type":"free","response_choices":[],"correct_response":"5","response":"5","orientation_history":[[0]],"response_history":["5"],"rt":3479,"trial_type":"polygon-arrow-question","trial_index":0,"trial_index_global":5,"time_elapsed":1010316,"internal_chunk_id":"0-0.3-0"},{"nsides":6,"feedback":"Correct! 3 <img src=./images/hexagon_symbol.png style=width:14px;height:14px> 2 = 5 because 2 steps clockwise on the hexagon from 3 brings us to 5","orientation_history":[0],"rt":1157,"trial_type":"polygon-arrow-feedback","trial_index":0,"trial_index_global":6,"time_elapsed":1011474,"internal_chunk_id":"0-0.3-0"},{"nsides":6,"question":"What is 1 <img src=./images/hexagon_symbol.png style=width:14px;height:14px> 5? <br /><br /> (Remember, to perform <img src=./images/hexagon_symbol.png style=width:14px;height:14px>, you can use the interactive diagram on the right, or perform the operation in your mind. Point the arrow at the first number on the hexagon, then move the arrow the second number of points clockwise around the hexagon. The number the arrow arrives at is your result.)","response_type":"free","response_choices":[],"correct_response":"0","response":"0","orientation_history":[[0]],"response_history":["0"],"rt":4705,"trial_type":"polygon-arrow-question","trial_index":0,"trial_index_global":7,"time_elapsed":1016180,"internal_chunk_id":"0-0.3-0"},{"nsides":6,"feedback":"Correct! 1 <img src=./images/hexagon_symbol.png style=width:14px;height:14px> 5 = 0 because 5 steps clockwise on the hexagon from 1 brings us to 0","orientation_history":[0],"rt":1972,"trial_type":"polygon-arrow-feedback","trial_index":0,"trial_index_global":8,"time_elapsed":1018153,"internal_chunk_id":"0-0.3-0"},{"nsides":6,"question":"What is 1 <img src=./images/hexagon_symbol.png style=width:14px;height:14px> 1? <br /><br /> (Remember, to perform <img src=./images/hexagon_symbol.png style=width:14px;height:14px>, you can use the interactive diagram on the right, or perform the operation in your mind. Point the arrow at the first number on the hexagon, then move the arrow the second number of points clockwise around the hexagon. The number the arrow arrives at is your resu lt.)","response_type":"free","response_choices":[],"correct_response":"2","response":"2","orientation_history":[[0]],"response_history":["2"],"rt":13370,"trial_type":"polygon-arrow-question","trial_index":0,"trial_index_global":9,"time_elapsed":1031528,"internal_chunk_id":"0-0.3-0"},{"nsides":6,"feedback":"Correct! 1 <img src=./images/hexagon_symbol.png style=width:14px;height:14px> 1 = 2 because 1 step clockwise on the hexagon from 1 brings us to 2","orientation_history":[0],"rt":2207,"trial_type":"polygon-arrow-feedback","trial_index":0,"trial_index_global":10,"time_elapsed":1033737,"internal_chunk_id":"0-0.3-0"},{"nsides":6,"question":"What is 3 <img src=./images/hexagon_symbol.png style=width:14px;height:14px> 0? <br /><br /> (Remember, to perform <img src=./images/hexagon_symbol.png style=width:14px;height:14px>, you can use the interactive diagram on the right, or perform the operation in your mind. Point the arrow at the first number on the hexagon, th en move  the arrow the second number of points clockwise around the hexagon. The number the arrow arrives at is your result.)","response_type":"free","response_choices":[],"correct_response":"3","response":"3","orientation_history":[[0]],"response_history":["3"],"rt":1745,"trial_type":"polygon-arrow-question","trial_index":0,"trial_index_global":11,"time_elapsed":1035483,"internal_chunk_id":"0-0.3-0"},{"nsides":6,"feedback":"Correct! 3 <img src=./images/hexagon_symbol.png style=width:14px;height:14px> 0 = 3 because 0 steps clockwise on the hexagon from 3 brings us to 3","orientation_history":[0],"rt":835,"trial_type":"polygon-arrow-feedback","trial_index":0,"trial_index_global":12,"time_elapsed":1036320,"internal_chunk_id":"0-0.3-0"},{"nsides":6,"question":"What is 4 <img src=./images/hexagon_symbol.png style=width:14px;height:14px> 4? <br /><br /> (Remember, to perform <img src=./images/hexagon_symbol.png style=width:14px;height:14px>, you can use the interac tive dia gram on the right, or perform the operation in your mind. Point the arrow at the first number on the hexagon, then move the arrow the second number of points clockwise around the hexagon. The number the arrow arrives at is your result.)","response_type":"free","response_choices":[],"correct_response":"2","response":"2","orientation_history":[[0]],"response_history":["2"],"rt":2683,"trial_type":"polygon-arrow-question","trial_index":0,"trial_index_global":13,"time_elapsed":1039004,"internal_chunk_id":"0-0.3-0"},{"nsides":6,"feedback":"Correct! 4 <img src=./images/hexagon_symbol.png style=width:14px;height:14px> 4 = 2 because 4 steps clockwise on the hexagon from 4 brings us to 2","orientation_history":[0],"rt":924,"trial_type":"polygon-arrow-feedback","trial_index":0,"trial_index_global":14,"time_elapsed":1039928,"internal_chunk_id":"0-0.3-0"},{"nsides":6,"question":"What is 1 <img src=./images/hexagon_symbol.png style=width:14px;height:14px> 3? <br /><br /> ( Remember , to perform <img src=./images/hexagon_symbol.png style=width:14px;height:14px>, you can use the interactive diagram on the right, or perform the operation in your mind. Point the arrow at the first number on the hexagon, then move the arrow the second number of points clockwise around the hexagon. The number the arrow arrives at is your result.)","response_type":"free","response_choices":[],"correct_response":"4","response":"4","orientation_history":[[0]],"response_history":["4"],"rt":1713,"trial_type":"polygon-arrow-question","trial_index":0,"trial_index_global":15,"time_elapsed":1041642,"internal_chunk_id":"0-0.3-0"},{"nsides":6,"feedback":"Correct! 1 <img src=./images/hexagon_symbol.png style=width:14px;height:14px> 3 = 4 because 3 steps clockwise on the hexagon from 1 brings us to 4","orientation_history":[0],"rt":764,"trial_type":"polygon-arrow-feedback","trial_index":0,"trial_index_global":16,"time_elapsed":1042407,"internal_chunk_id":"0-0.3-0"},{"nsides":6,"question":"What is 4 <img src=./images/hexagon_symbol.png style=width:14px;height:14px> 3? <br /><br /> (Remember, to perform <img src=./images/hexagon_symbol.png style=width:14px;height:14px>, you can use the interactive diagram on the right, or perform the operation in your mind. Point the arrow at the first number on the hexagon, then move the arrow the second number of points clockwise around the hexagon. The number the arrow arrives at is your result.)","response_type":"free","response_choices":[],"correct_response":"1","response":"1","orientation_history":[[0]],"response_history":["1"],"rt":3844,"trial_type":"polygon-arrow-question","trial_index":0,"trial_index_global":17,"time_elapsed":1046251,"internal_chunk_id":"0-0.3-0"},{"nsides":6,"feedback":"Correct! 4 <img src=./images/hexagon_symbol.png style=width:14px;height:14px> 3 = 1 because 3 steps clockwise on the hexagon from 4 brings us to 1","orientation_history":[0],"rt":1152,"trial_type":"pol ygon-arr ow-feedback","trial_index":0,"trial_index_global":18,"time_elapsed":1047404,"internal_chunk_id":"0-0.3-0"},{"nsides":6,"question":"What is 0 <img src=./images/hexagon_symbol.png style=width:14px;height:14px> 5? <br /><br /> (Remember, to perform <img src=./images/hexagon_symbol.png style=width:14px;height:14px>, you can use the interactive diagram on the right, or perform the operation in your mind. Point the arrow at the first number on the hexagon, then move the arrow the second number of points clockwise around the hexagon. The number the arrow arrives at is your result.)","response_type":"free","response_choices":[],"correct_response":"5","response":"5","orientation_history":[[0]],"response_history":["5"],"rt":1901,"trial_type":"polygon-arrow-question","trial_index":0,"trial_index_global":19,"time_elapsed":1049306,"internal_chunk_id":"0-0.3-0"},{"nsides":6,"feedback":"Correct! 0 <img src=./images/hexagon_symbol.png style=width:14px;height:14px> 5  = 5 beca use 5 steps clockwise on the hexagon from 0 brings us to 5","orientation_history":[0],"rt":784,"trial_type":"polygon-arrow-feedback","trial_index":0,"trial_index_global":20,"time_elapsed":1050091,"internal_chunk_id":"0-0.3-0"},{"nsides":6,"question":"What is 2 <img src=./images/hexagon_symbol.png style=width:14px;height:14px> 5? <br /><br /> (Remember, to perform <img src=./images/hexagon_symbol.png style=width:14px;height:14px>, you can use the interactive diagram on the right, or perform the operation in your mind. Point the arrow at the first number on the hexagon, then move the arrow the second number of points clockwise around the hexagon. The number the arrow arrives at is your result.)","response_type":"free","response_choices":[],"correct_response":"1","response":"1","orientation_history":[[0]],"response_history":["1"],"rt":2756,"trial_type":"polygon-arrow-question","trial_index":0,"trial_index_global":21,"time_elapsed":1052848,"internal_chunk_id":"0- 0.3-0"},{"nsides":6,"feedback":"Correct! 2 <img src=./images/hexagon_symbol.png style=width:14px;height:14px> 5 = 1 because 5 steps clockwise on the hexagon from 2 brings us to 1","orientation_history":[0],"rt":770,"trial_type":"polygon-arrow-feedback","trial_index":0,"trial_index_global":22,"time_elapsed":1053619,"internal_chunk_id":"0-0.3-0"},{"nsides":6,"instructions":"Now we're going to discuss a couple special properties of this new operation, <img src=./images/hexagon_symbol.png style=width:14px;height:14px> that we've learned. First, notice that the number 0 behaves in a special way under <img src=./images/hexagon_symbol.png style=width:14px;height:14px>. Whenever we combine 0 with anything else, we get that same thing back. We'll say that 0 is the <i>identity</i> under <img src=./images/hexagon_symbol.png style=width:14px;height:14px>, because when you combine it with something it gives you that identical thing back.","orientation_history":[0],"rt":5746,"trial_type":"polygon-arrow-instructions","trial_index":0,"trial_index_global":23,"time_elapsed":1059369,"internal_chunk_id":"0-0"},{"nsides":6,"instructions":"Now that we know 0 is the identity under <img src=./images/hexagon_symbol.png style=width:14px;height:14px>, we're going to make a new definition. We'll say that the <i>inverse</i> of a number is the element that you combine with it to produce the identity under our operation. For example, 5 <img src=./images/hexagon_symbol.png style=width:14px;height:14px> 1 = 0, so we say 1 is the inverse of 5 under <img src=./images/hexagon_symbol.png style=width:14px;height:14px>, (remember 0 is the identity under <img src=./images/hexagon_symbol.png style=width:14px;height:14px>). Similarly, 3 is its own inverse under <img src=./images/hexagon_symbol.png style=width:14px;height:14px>, because 3 <img src=./images/hexagon_symbol.png style=width:14px;height:14px> 3 = 0.","orientation_history":[0],"rt":11942,"trial_type":"polygon-arrow-instructions","trial_index":0,"trial_index_global":24,"time_elapsed":1071312,"internal_chunk_id":"0-0"},{"nsides":6,"question":"Now you try! What is the inverse of 4 under <img src=./images/hexagon_symbol.png style=width:14px;height:14px>? <br /><br /> (Remember, the inverse of an element is the thing which you combine with it to produce the identity.)","response_type":"free","response_choices":[],"correct_response":"2","response":"2","orientation_history":[[0]],"response_history":["2"],"rt":4842,"trial_type":"polygon-arrow-question","trial_index":0,"trial_index_global":25,"time_elapsed":1076155,"internal_chunk_id":"0-0.7-0"},{"nsides":6,"feedback":"Correct! The inverse of 4 under <img src=./images/hexagon_symbol.png style=width:14px;height:14px> is 2 because 4 <img src=./images/hexagon_symbol.png style=width:14px;height:14px> 2 = 0, and 0 is the identity under <img src=./images/hexagon_symbol.png styl e=widt h:14px;height:14px>.","orientation_history":[0],"rt":979,"trial_type":"polygon-arrow-feedback","trial_index":0,"trial_index_global":26,"time_elapsed":1077135,"internal_chunk_id":"0-0.7-0"},{"nsides":6,"question":"What is the inverse of 1 under <img src=./images/hexagon_symbol.png style=width:14px;height:14px>? <br /><br /> (Remember, the inverse of an element is the thing which you combine with it to produce the identity.)","response_type":"free","response_choices":[],"correct_response":"5","response":"5","orientation_history":[[0]],"response_history":["5"],"rt":2421,"trial_type":"polygon-arrow-question","trial_index":0,"trial_index_global":27,"time_elapsed":1079557,"internal_chunk_id":"0-0.7-0"},{"nsides":6,"feedback":"Correct! The inverse of 1 under <img src=./images/hexagon_symbol.png style=width:14px;height:14px> is 5 because 1 <img src=./images/hexagon_symbol.png style=width:14px;height:14px> 5 = 0, and 0 is the identity under <img src=./imag es/hexag on_symbol.png style=width:14px;height:14px>.","orientation_history":[0],"rt":793,"trial_type":"polygon-arrow-feedback","trial_index":0,"trial_index_global":28,"time_elapsed":1080352,"internal_chunk_id":"0-0.7-0"},{"nsides":6,"question":"What is the inverse of 3 under <img src=./images/hexagon_symbol.png style=width:14px;height:14px>? <br /><br /> (Remember, the inverse of an element is the thing which you combine with it to produce the identity.)","response_type":"free","response_choices":[],"correct_response":"3","response":"3","orientation_history":[[0]],"response_history":["3"],"rt":1831,"trial_type":"polygon-arrow-question","trial_index":0,"trial_index_global":29,"time_elapsed":1082183,"internal_chunk_id":"0-0.7-0"},{"nsides":6,"feedback":"Correct! The inverse of 3 under <img src=./images/hexagon_symbol.png style=width:14px;height:14px> is 3 because 3 <img src=./images/hexagon_symbol.png style=width:14px;height:14px> 3 = 0, and 0 is the iden tity und er <img src=./images/hexagon_symbol.png style=width:14px;height:14px>.","orientation_history":[0],"rt":712,"trial_type":"polygon-arrow-feedback","trial_index":0,"trial_index_global":30,"time_elapsed":1082896,"internal_chunk_id":"0-0.7-0"},{"nsides":6,"question":"What is the inverse of 2 under <img src=./images/hexagon_symbol.png style=width:14px;height:14px>? <br /><br /> (Remember, the inverse of an element is the thing which you combine with it to produce the identity.)","response_type":"free","response_choices":[],"correct_response":"4","response":"4","orientation_history":[[0]],"response_history":["4"],"rt":1728,"trial_type":"polygon-arrow-question","trial_index":0,"trial_index_global":31,"time_elapsed":1084625,"internal_chunk_id":"0-0.7-0"},{"nsides":6,"feedback":"Correct! The inverse of 2 under <img src=./images/hexagon_symbol.png style=width:14px;height:14px> is 4 because 2 <img src=./images/hexagon_symbol.png style=width:14px;height:14px > 4 =  0, and 0 is the identity under <img src=./images/hexagon_symbol.png style=width:14px;height:14px>.","orientation_history":[0],"rt":637,"trial_type":"polygon-arrow-feedback","trial_index":0,"trial_index_global":32,"time_elapsed":1085263,"internal_chunk_id":"0-0.7-0"},{"nsides":6,"question":"What is the inverse of 0 under <img src=./images/hexagon_symbol.png style=width:14px;height:14px>? <br /><br /> (Remember, the inverse of an element is the thing which you combine with it to produce the identity.)","response_type":"free","response_choices":[],"correct_response":"0","response":"0","orientation_history":[[0]],"response_history":["6","0"],"rt":4061,"trial_type":"polygon-arrow-question","trial_index":0,"trial_index_global":33,"time_elapsed":1089324,"internal_chunk_id":"0-0.7-0"},{"nsides":6,"feedback":"Correct! The inverse of 0 under <img src=./images/hexagon_symbol.png style=width:14px;height:14px> is 0 because 0 <img src=./images/hexagon_symbol.png style= width:14px;height:14px> 0 = 0, and 0 is the identity under <img src=./images/hexagon_symbol.png style=width:14px;height:14px>.","orientation_history":[0],"rt":1520,"trial_type":"polygon-arrow-feedback","trial_index":0,"trial_index_global":34,"time_elapsed":1090845,"internal_chunk_id":"0-0.7-0"},{"instructions":"It is also possible to successively apply <img src=./images/hexagon_symbol.png style=width:14px;height:14px>, and the operation can simply be performed starting with the left-most pair. For example, 2 <img src=./images/hexagon_symbol.png style=width:14px;height:14px> 3 <img src=./images/hexagon_symbol.png style=width:14px;height:14px> 4 = 5 <img src=./images/hexagon_symbol.png style=width:14px;height:14px> 4 = 3.","rt":17246,"trial_type":"instructions","trial_index":0,"trial_index_global":35,"time_elapsed":1108092,"internal_chunk_id":"0-0"},{"nsides":6,"instructions":"We have one last definition to learn today. Let's start w ith an e xample. Under our operation <img src=./images/hexagon_symbol.png style=width:14px;height:14px> we can make every other number using just 1: 2 = 1 <img src=./images/hexagon_symbol.png style=width:14px;height:14px> 1, 3 = 1 <img src=./images/hexagon_symbol.png style=width:14px;height:14px> 1 <img src=./images/hexagon_symbol.png style=width:14px;height:14px> 1, 4 = 1 <img src=./images/hexagon_symbol.png style=width:14px;height:14px> 1 <img src=./images/hexagon_symbol.png style=width:14px;height:14px> 1 <img src=./images/hexagon_symbol.png style=width:14px;height:14px> 1, 5 = 1 <img src=./images/hexagon_symbol.png style=width:14px;height:14px> 1 <img src=./images/hexagon_symbol.png style=width:14px;height:14px> 1 <img src=./images/hexagon_symbol.png style=width:14px;height:14px> 1 <img src=./images/hexagon_symbol.png style=width:14px;height:14px> 1, and 0 = 1 <img src=./images/hexagon_symbo l.png  style=width:14px;height:14px> 1 <img src=./images/hexagon_symbol.png style=width:14px;height:14px> 1 <img src=./images/hexagon_symbol.png style=width:14px;height:14px> 1 <img src=./images/hexagon_symbol.png style=width:14px;height:14px> 1 <img src=./images/hexagon_symbol.png style=width:14px;height:14px> 1. Because 1 can make every other element under <img src=./images/hexagon_symbol.png style=width:14px;height:14px>, we say that 1 is a <i>generator</i> under <img src=./images/hexagon_symbol.png style=width:14px;height:14px>. <br /><br /> However, 2 is not a generator under <img src=./images/hexagon_symbol.png style=width:14px;height:14px>, because 4 = 2 <img src=./images/hexagon_symbol.png style=width:14px;height:14px> 2, and 0 = 2 <img src=./images/hexagon_symbol.png style=width:14px;height:14px> 2 <img src=./images/hexagon_symbol.png style=width:14px;height:14px> 2, but there is no way to  make 1,  3, or 5 using just 2.","orientation_history":[0],"rt":12244,"trial_type":"polygon-arrow-instructions","trial_index":0,"trial_index_global":36,"time_elapsed":1120336,"internal_chunk_id":"0-0"},{"nsides":6,"question":"Now you try! Is 3 a generator under <img src=./images/hexagon_symbol.png style=width:14px;height:14px>? <br /><br /> (Remember, a generator is an element which can make every other element.)","response_type":"multi","response_choices":["Yes","No"],"correct_response":"No","response":"No","orientation_history":[[0]],"response_history":["No"],"rt":4599,"trial_type":"polygon-arrow-question","trial_index":0,"trial_index_global":37,"time_elapsed":1124936,"internal_chunk_id":"0-0.10-0"},{"nsides":6,"feedback":"Correct! 3 is not a generator under <img src=./images/hexagon_symbol.png style=width:14px;height:14px>, because 3 = 3, 0 = 3 <img src=./images/hexagon_symbol.png style=width:14px;height:14px> 3, but there is no way to make 1, 2, 4, or 5 usi ng just  3.","orientation_history":[0],"rt":4046,"trial_type":"polygon-arrow-feedback","trial_index":0,"trial_index_global":38,"time_elapsed":1128983,"internal_chunk_id":"0-0.10-0"},{"nsides":6,"question":"Is 5 a generator under <img src=./images/hexagon_symbol.png style=width:14px;height:14px>? <br /><br /> (Remember, a generator is an element which can make every other element.)","response_type":"multi","response_choices":["Yes","No"],"correct_response":"Yes","response":"Yes","orientation_history":[[0]],"response_history":["Yes"],"rt":4223,"trial_type":"polygon-arrow-question","trial_index":0,"trial_index_global":39,"time_elapsed":1133206,"internal_chunk_id":"0-0.10-0"},{"nsides":6,"feedback":"Correct! 5 is a generator under <img src=./images/hexagon_symbol.png style=width:14px;height:14px>, because 5 = 5, 4 = 5 <img src=./images/hexagon_symbol.png style=width:14px;height:14px> 5, 3 = 5 <img src=./images/hexagon_symbol.png style=width:14px;height:14px> 5 <im g src=./images/hexagon_symbol.png style=width:14px;height:14px> 5, 2 = 5 <img src=./images/hexagon_symbol.png style=width:14px;height:14px> 5 <img src=./images/hexagon_symbol.png style=width:14px;height:14px> 5 <img src=./images/hexagon_symbol.png style=width:14px;height:14px> 5, 1 = 5 <img src=./images/hexagon_symbol.png style=width:14px;height:14px> 5 <img src=./images/hexagon_symbol.png style=width:14px;height:14px> 5 <img src=./images/hexagon_symbol.png style=width:14px;height:14px> 5 <img src=./images/hexagon_symbol.png style=width:14px;height:14px> 5, and 0 = 5 <img src=./images/hexagon_symbol.png style=width:14px;height:14px> 5 <img src=./images/hexagon_symbol.png style=width:14px;height:14px> 5 <img src=./images/hexagon_symbol.png style=width:14px;height:14px> 5 <img src=./images/hexagon_symbol.png style=width:14px;height:14px> 5 <img src=./images/hexagon_symbol.png st yle=wi dth:14px;height:14px> 5, so you can make all of the numbers under <img src=./images/hexagon_symbol.png style=width:14px;height:14px> using 5","orientation_history":[0],"rt":3419,"trial_type":"polygon-arrow-feedback","trial_index":0,"trial_index_global":40,"time_elapsed":1136626,"internal_chunk_id":"0-0.10-0"},{"nsides":6,"question":"Is 4 a generator under <img src=./images/hexagon_symbol.png style=width:14px;height:14px>? <br /><br /> (Remember, a generator is an element which can make every other element.)","response_type":"multi","response_choices":["Yes","No"],"correct_response":"No","response":"No","orientation_history":[[0]],"response_history":["No"],"rt":2288,"trial_type":"polygon-arrow-question","trial_index":0,"trial_index_global":41,"time_elapsed":1138917,"internal_chunk_id":"0-0.10-0"},{"nsides":6,"feedback":"Correct! 4 is not a generator under <img src=./images/hexagon_symbol.png style=width:14px;height:14px>, because 4 = 4, 2 = 4 <img sr c=./im ages/hexagon_symbol.png style=width:14px;height:14px> 4, and 0 = 4 <img src=./images/hexagon_symbol.png style=width:14px;height:14px> 4 <img src=./images/hexagon_symbol.png style=width:14px;height:14px> 4, but there is no way to make 1, 3, or 5 using just 4.","orientation_history":[0],"rt":2417,"trial_type":"polygon-arrow-feedback","trial_index":0,"trial_index_global":42,"time_elapsed":1141336,"internal_chunk_id":"0-0.10-0"},{"nsides":6,"question":"Is 0 a generator under <img src=./images/hexagon_symbol.png style=width:14px;height:14px>? <br /><br /> (Remember, a generator is an element which can make every other element.)","response_type":"multi","response_choices":["Yes","No"],"correct_response":"No","response":"No","orientation_history":[[0]],"response_history":["No"],"rt":2349,"trial_type":"polygon-arrow-question","trial_index":0,"trial_index_global":43,"time_elapsed":1143686,"internal_chunk_id":"0-0.10-0"},{"nsides":6,"feedback":"Correct! 0  is not  a generator under <img src=./images/hexagon_symbol.png style=width:14px;height:14px>, because 0 = 0, but there is no way to make 1, 2, 3, 4, or 5 using just 0.","orientation_history":[0],"rt":2574,"trial_type":"polygon-arrow-feedback","trial_index":0,"trial_index_global":44,"time_elapsed":1146260,"internal_chunk_id":"0-0.10-0"},{"nsides":9,"instructions":"Now we are going to ask you some questions about a new operation, <img src=./images/nonagon_symbol.png style=width:14px;height:14px>, on the numbers 0, 1, 2, 3, 4, 5, 6, 7, 8. It works exactly like <img src=./images/hexagon_symbol.png style=width:14px;height:14px>, except now you use the nonagon shown at the right. <br /><br />Do you see how <img src=./images/nonagon_symbol.png style=width:14px;height:14px> works just like <img src=./images/hexagon_symbol.png style=width:14px;height:14px>? By labeling the points of the nonagon with the numbers from 0 to 8, we ensure that when we combi ne two n umbers under <img src=./images/nonagon_symbol.png style=width:14px;height:14px>, we only produce numbers between 0 and 8. <br /><br />We'll give you one practice question with feedback to make sure you understand the new operation. After that, try to complete the remaining questions as accurately as possible.","orientation_history":[0],"rt":11071,"trial_type":"polygon-arrow-instructions","trial_index":0,"trial_index_global":45,"time_elapsed":1157333,"internal_chunk_id":"0-0"},{"nsides":9,"question":"Practice: What is 5 <img src=./images/nonagon_symbol.png style=width:14px;height:14px> 5?","response_type":"free","response_choices":[],"correct_response":"1","response":"1","orientation_history":[[0]],"response_history":["1"],"rt":4082,"trial_type":"polygon-arrow-question","trial_index":0,"trial_index_global":46,"time_elapsed":1161416,"internal_chunk_id":"0-0.12-0"},{"nsides":9,"feedback":"Correct! 5 <img src=./images/nonagon_symbol.png style=width:14px;hei ght:14px > 5 = 1 because 5 steps clockwise on the nonagon from 5 brings us to 1","orientation_history":[0],"rt":947,"trial_type":"polygon-arrow-feedback","trial_index":0,"trial_index_global":47,"time_elapsed":1162365,"internal_chunk_id":"0-0.12-0"},{"nsides":9,"question":"What is 3 <img src=./images/nonagon_symbol.png style=width:14px;height:14px> 3?","response_type":"free","response_choices":[],"correct_response":"6","response":"6","orientation_history":[[0]],"response_history":["6"],"rt":2096,"trial_type":"polygon-arrow-question","trial_index":0,"trial_index_global":48,"time_elapsed":1164462,"internal_chunk_id":"0-0.12-0"},{"nsides":9,"question":"What is 7 <img src=./images/nonagon_symbol.png style=width:14px;height:14px> 4?","response_type":"free","response_choices":[],"correct_response":"2","response":"1","orientation_history":[[0]],"response_history":["1"],"rt":5091,"trial_type":"polygon-arrow-question","trial_index":0,"trial_index_global":49,"time_elapsed":1169554,"internal_chunk_id":"0-0.12-0"},{"nsides":9,"question":"What is 1 <img src=./images/nonagon_symbol.png style=width:14px;height:14px> 8?","response_type":"free","response_choices":[],"correct_response":"0","response":"0","orientation_history":[[0]],"response_history":["0"],"rt":3017,"trial_type":"polygon-arrow-question","trial_index":0,"trial_index_global":50,"time_elapsed":1172572,"internal_chunk_id":"0-0.12-0"},{"nsides":9,"question":"What is 5 <img src=./images/nonagon_symbol.png style=width:14px;height:14px> 4?","response_type":"free","response_choices":[],"correct_response":"0","response":"0","orientation_history":[[0]],"response_history":["0"],"rt":3532,"trial_type":"polygon-arrow-question","trial_index":0,"trial_index_global":51,"time_elapsed":1176105,"internal_chunk_id":"0-0.12-0"},{"nsides":9,"question":"What is 6 <img src=./images/nonagon_symbol.png style=width:14px;height:14px> 6?","response_type":"free","response_choices":[],"correct_response":"3","response":"3","orientation_history":[[0]],"response_history":["3"],"rt":2658,"trial_type":"polygon-arrow-question","trial_index":0,"trial_index_global":52,"time_elapsed":1178764,"internal_chunk_id":"0-0.12-0"},{"nsides":9,"question":"What is 4 <img src=./images/nonagon_symbol.png style=width:14px;height:14px> 1? Please explain in words how you got your answer.","response_type":"free","response_choices":[],"correct_response":"","response":"5. I calculated the result of (4 + 1) mod 9.","orientation_history":[[0]],"response_history":["5. I calculated the result of 5","5. I calculated the result of 4 + 1 mod 9.","5. I calculated the result of (4 + 1 mod 9.","5. I calculated the result of (4 + 1) mod 9."],"rt":31555,"trial_type":"polygon-arrow-question","trial_index":0,"trial_index_global":53,"time_elapsed":1210320,"internal_chunk_id":"0-0.12-0"},{"nsides":9,"question":"What is 8 <img src=./images/nonagon_symbol.png style=width:14px;height:14px> 4? Please explain in  words h ow you got your answer.","response_type":"free","response_choices":[],"correct_response":"","response":"3","orientation_history":[[0]],"response_history":["3"],"rt":6327,"trial_type":"polygon-arrow-question","trial_index":0,"trial_index_global":54,"time_elapsed":1216647,"internal_chunk_id":"0-0.12-0"},{"nsides":9,"question":"What is the identity under <img src=./images/nonagon_symbol.png style=width:14px;height:14px>? Please explain in words how you got your answer.","response_type":"free","response_choices":[],"correct_response":"0","response":"0. It is the same as under (6).","orientation_history":[[0]],"response_history":["0. It is the same as under (6)."],"rt":27753,"trial_type":"polygon-arrow-question","trial_index":0,"trial_index_global":55,"time_elapsed":1244401,"internal_chunk_id":"0-0.12-0"},{"nsides":9,"question":"What is the inverse of 5 under <img src=./images/nonagon_symbol.png style=width:14px;height:14px>?","response_type":"free","response_choices":[],"correct_response":"4","response":"4","orientation_history":[[0]],"response_history":["4"],"rt":3178,"trial_type":"polygon-arrow-question","trial_index":0,"trial_index_global":56,"time_elapsed":1247581,"internal_chunk_id":"0-0.12-0"},{"nsides":9,"question":"What is the inverse of 2 under <img src=./images/nonagon_symbol.png style=width:14px;height:14px>?","response_type":"free","response_choices":[],"correct_response":"7","response":"7","orientation_history":[[0]],"response_history":["7"],"rt":1851,"trial_type":"polygon-arrow-question","trial_index":0,"trial_index_global":57,"time_elapsed":1249433,"internal_chunk_id":"0-0.12-0"},{"nsides":9,"question":"What is the inverse of 0 under <img src=./images/nonagon_symbol.png style=width:14px;height:14px>?","response_type":"free","response_choices":[],"correct_response":"0","response":"0","orientation_history":[[0]],"response_history":["0"],"rt":2533,"trial_type":"polygon-arrow-question","trial_index":0,"trial_index_global":58,"time_elapsed":1251967,"internal_chunk_id":"0-0.12-0"},{"nsides":9,"question":"What is the inverse of 3 under <img src=./images/nonagon_symbol.png style=width:14px;height:14px>? Please explain in words how you got your answer.","response_type":"free","response_choices":[],"correct_response":"","response":"6. I calculated the result of 9 - 3.","orientation_history":[[0]],"response_history":["6. I calculated the result of 9 - 3."],"rt":11668,"trial_type":"polygon-arrow-question","trial_index":0,"trial_index_global":59,"time_elapsed":1263635,"internal_chunk_id":"0-0.12-0"},{"nsides":9,"question":"Is 2 a generator under <img src=./images/nonagon_symbol.png style=width:14px;height:14px>? Please explain in words how you got your answer.","response_type":"free","response_choices":[],"correct_response":"","response":"Yes, because 2 is not a factor of 9 and it is not 0.","orientation_history":[[0]],"response_history":["Yes. 2 is not a factor","Yes, because 2 is no t a fact or of 9 and it is not 0."],"rt":30084,"trial_type":"polygon-arrow-question","trial_index":0,"trial_index_global":60,"time_elapsed":1293719,"internal_chunk_id":"0-0.12-0"},{"nsides":9,"question":"Is 3 a generator under <img src=./images/nonagon_symbol.png style=width:14px;height:14px>? Please explain in words how you got your answer.","response_type":"free","response_choices":[],"correct_response":"","response":"No, because it is a factor of 9.","orientation_history":[[0]],"response_history":["No, because it is a factor of 9."],"rt":8679,"trial_type":"polygon-arrow-question","trial_index":0,"trial_index_global":61,"time_elapsed":1302399,"internal_chunk_id":"0-0.12-0"},{"nsides":9,"question":"Is 5 a generator under <img src=./images/nonagon_symbol.png style=width:14px;height:14px>? Please explain in words how you got your answer.","response_type":"free","response_choices":[],"correct_response":"","response":"Yes, because it is not a factor of 9 and it is not 0. ","orientation_history":[[0]],"response_history":["Yes, because it is not a factor of 9.","Yes, because it is not a factor of 9 and it is not 0."],"rt":23018,"trial_type":"polygon-arrow-question","trial_index":0,"trial_index_global":62,"time_elapsed":1325419,"internal_chunk_id":"0-0.12-0"},{"nsides":9,"question":"Is 6 a generator under <img src=./images/nonagon_symbol.png style=width:14px;height:14px>? Please explain in words how you got your answer.","response_type":"free","response_choices":[],"correct_response":"","response":"No, because it is a multiple of a factor of 9.","orientation_history":[[0]],"response_history":["No, because it is a multiple ofa ","No, because it is a multiple ofa","No, because it is a multiple of a factor of 9."],"rt":45095,"trial_type":"polygon-arrow-question","trial_index":0,"trial_index_global":63,"time_elapsed":1370516,"internal_chunk_id":"0-0.12-0"},{"nsides":"n","instructions":"Now we'd like to ask you some questions about <img src=./imag es/ngon_ symbol.png style=width:14px;height:14px>, where n could be any positive counting number. For example, n could be 3, and the polygon a triangle, or n could be any other counting number you can think of. If you need to write the operation, you can use (n), and your answers can include n to stand in for the arbitrary value if necessary. (You can use the polygon at the right to think, but it doesn't necessarily correspond to the real polygon, which is why we've left most of it dashed.)","orientation_history":[0],"rt":15945,"trial_type":"polygon-arrow-instructions","trial_index":0,"trial_index_global":64,"time_elapsed":1386463,"internal_chunk_id":"0-0"},{"nsides":"n","question":"What is the formula for the inverse of 1 under <img src=./images/ngon_symbol.png style=width:14px;height:14px>?","response_type":"free","response_choices":[],"correct_response":"n-1","response":"n - 1","orientation_history":[[0]],"response_history":["n - 1"],"rt":7133,"trial_type":"polyg on-arrow -question","trial_index":0,"trial_index_global":65,"time_elapsed":1393597,"internal_chunk_id":"0-0.14-0"},{"nsides":"n","question":"What is the formula for the inverse of an element x under <img src=./images/ngon_symbol.png style=width:14px;height:14px>? Please explain in words why your answer is correct.","response_type":"free","response_choices":[],"correct_response":"n-x","response":"n - x, because (x + n - x) mod n = 0","orientation_history":[[0]],"response_history":["n - x, because x + ","n - x, because x +","n - x, because x ","n - x, because x","n - x, because (n -","n - x, because (n + n","n - x, because (n + ","n - x, because (n +","n - x, because (n ","n - x, because (n","n - x, because (x + n - x) mod n = 0"],"rt":36699,"trial_type":"polygon-arrow-question","trial_index":0,"trial_index_global":66,"time_elapsed":1430297,"internal_chunk_id":"0-0.14-0"},{"nsides":"n","question":"Is there a pattern to which elements are generators? How can you know if an eleme nt x is  a generator under <img src=./images/ngon_symbol.png style=width:14px;height:14px> without seeing whether it can make all the elements?.","response_type":"free","response_choices":[],"correct_response":"","response":"I do not know if there is a pattern to which elements are generators.","orientation_history":[[0]],"response_history":["It wo","It w","It should not be a mutl","It should not be a mut","It should not be a multipl","I do not know if there is a pattern wo","I do not know if there is a pattern wto","I do not know if there is a pattern wt","I do not know if there is a pattern w","I do not know if there is a pattern to which elements are generators."],"rt":49734,"trial_type":"polygon-arrow-question","trial_index":0,"trial_index_global":67,"time_elapsed":1480032,"internal_chunk_id":"0-0.14-0"},{"nsides":"n","question":"True or false: If x is an odd number, it must be a generator under <img src=./images/ngon_symbol.png style=width:14px;height:14px>.","response_type":"multi","response_choices":["True","False"],"correct_response":"False","response":"False","orientation_history":[[0]],"response_history":["False"],"rt":4561,"trial_type":"polygon-arrow-question","trial_index":0,"trial_index_global":68,"time_elapsed":1484594,"internal_chunk_id":"0-0.14-0"},{"nsides":"n","question":"True or false: If x is an even number, it must not be a generator under <img src=./images/ngon_symbol.png style=width:14px;height:14px>.","response_type":"multi","response_choices":["True","False"],"correct_response":"False","response":"False","orientation_history":[[0]],"response_history":["False"],"rt":8610,"trial_type":"polygon-arrow-question","trial_index":0,"trial_index_global":69,"time_elapsed":1493205,"internal_chunk_id":"0-0.14-0"},{"nsides":"n","question":"True or false: If x is not a generator under <img src=./images/ngon_symbol.png style=width:14px;height:14px>, x must be a divisor of n, that is, x must divide n evenly, with no remai nder.","response_type":"multi","response_choices":["True","False"],"correct_response":"False","response":"False","orientation_history":[[0]],"response_history":["False"],"rt":9549,"trial_type":"polygon-arrow-question","trial_index":0,"trial_index_global":70,"time_elapsed":1502756,"internal_chunk_id":"0-0.14-0"},{"nsides":"n","question":"True or false: If x is not a generator under <img src=./images/ngon_symbol.png style=width:14px;height:14px>, x must be a multiple of a divisor of n. Please explain in words why your answer is correct.","response_type":"free","response_choices":[],"correct_response":"True","response":"False, because 0 is not a generator under (n) and 0 is not a multiple of a divisor of n.","orientation_history":[[0]],"response_history":["False, because 0 is not a generator une","False, because 0 is not a generator under (n) and 0 is not a multiple of a divisor of n."],"rt":97044,"trial_type":"polygon-arrow-question","trial_index":0,"trial_index_global":71,"time_elapsed":1599803,"internal_chunk_id":"0-0.14-0"},{"nsides":"n","question":"If an element x is a generator under <img src=./images/ngon_symbol.png style=width:14px;height:14px>, is its inverse a generator under <img src=./images/ngon_symbol.png style=width:14px;height:14px> always, sometimes, or never?","response_type":"multi","response_choices":["Always","Sometimes","Never"],"correct_response":"Always","response":"Always","orientation_history":[[0]],"response_history":["Always"],"rt":27642,"trial_type":"polygon-arrow-question","trial_index":0,"trial_index_global":72,"time_elapsed":1627446,"internal_chunk_id":"0-0.14-0"},{"nsides":"n","question":"If an element x is a generator under <img src=./images/ngon_symbol.png style=width:14px;height:14px>, is x <img src=./images/ngon_symbol.png style=width:14px;height:14px> x a generator under <img src=./images/ngon_symbol.png style=width:14px;height:14px> always, sometimes, or never? Please explain i n words  why your answer is correct.","response_type":"free","response_choices":[],"correct_response":"Sometimes","response":"False, because 1 is a generator under (1), but 1 (1) 1 = 0 is not a generator under (1).","orientation_history":[[0]],"response_history":["False, because 1 is a generator under (1), be","False, because 1 is a generator under (1), but 1 (1) 1 is ","False, because 1 is a generator under (1), but 1 (1) 1 is","False, because 1 is a generator under (1), but 1 (1) 1 i","False, because 1 is a generator under (1), but 1 (1) 1  = ","False, because 1 is a generator under (1), but 1 (1) 1  =","False, because 1 is a generator under (1), but 1 (1) 1  ","False, because 1 is a generator under (1), but 1 (1) 1 = 0 is u","False, because 1 is a generator under (1), but 1 (1) 1 = 0 is not a generator under 0.","False, because 1 is a generator under (1), but 1 (1) 1 = 0 is not a generator under 0","False, because 1 is a generator under (1), but 1 (1) 1 = 0 is not a generator unde r *","Fa lse, because 1 is a generator under (1), but 1 (1) 1 = 0 is not a generator under (1)."],"rt":57333,"trial_type":"polygon-arrow-question","trial_index":0,"trial_index_global":73,"time_elapsed":1684783,"internal_chunk_id":"0-0.14-0"},{"nsides":"n","question":"If an element x is not a generator under <img src=./images/ngon_symbol.png style=width:14px;height:14px>, is x <img src=./images/ngon_symbol.png style=width:14px;height:14px> x a generator under <img src=./images/ngon_symbol.png style=width:14px;height:14px> always, sometimes, or never?","response_type":"multi","response_choices":["Always","Sometimes","Never"],"correct_response":"Never","response":"Never","orientation_history":[[0]],"response_history":["Never"],"rt":25415,"trial_type":"polygon-arrow-question","trial_index":0,"trial_index_global":74,"time_elapsed":1710200,"internal_chunk_id":"0-0.14-0"},{"instructions":"We would like to ask you some questions about your background. Please press C ontinue to continue.","rt":3051,"trial_type":"instructions","trial_index":0,"trial_index_global":75,"time_elapsed":1713255,"internal_chunk_id":"0-0.15-0"},{"question":"What is your age?","response_type":"free","response_choices":[],"correct_response":"","response":"22","response_history":["22"],"rt":1956,"trial_type":"question","trial_index":0,"trial_index_global":76,"time_elapsed":1715212,"internal_chunk_id":"0-0.15-0"},{"question":"What is your level of education?","response_type":"multi","response_choices":["Did not graduate high school","High school diploma","Some college, no degree","Associates Degree","Bachelors Degree","Some graduate school, no degree","Masters Degree","Doctorate, M.D., etc."],"correct_response":"","response":"Bachelors Degree","response_history":["Bachelors Degree"],"rt":13030,"trial_type":"question","trial_index":0,"trial_index_global":77,"time_elapsed":1728243,"internal_chunk_id":"0-0.15-0"},{"question":"What is the most advanced math class you've comple ted? If  you have multiple classes and you're not sure which one is most advanced, please list them.","response_type":"free","response_choices":[],"correct_response":"","response":"Ordinary differential equations","response_history":["Ordinary differential equations"],"rt":17711,"trial_type":"question","trial_index":0,"trial_index_global":78,"time_elapsed":1745957,"internal_chunk_id":"0-0.15-0"},{"question":"How familiar are you with the concept of modular arithmetic?","response_type":"multi","response_choices":["1 - never heard of it","2 - heard of it but didn't know what it was","3 - seen it used or explained","4 - used it but not often or recently","5 - used it, remember and understand it"],"correct_response":"1","response":"5 - used it, remember and understand it","response_history":["5 - used it, remember and understand it"],"rt":11826,"trial_type":"question","trial_index":0,"trial_index_global":79,"time_elapsed":1757785,"internal_chunk_id":"0-0.15-0"},{"question":"How familiar  are you  with the concept of a mathematical group?","response_type":"multi","response_choices":["1 - never heard of it","2 - heard of it but didn't know what it was","3 - seen it used or explained","4 - used it but not often or recently","5 - used it, remember and understand it"],"correct_response":"1","response":"2 - heard of it but didn't know what it was","response_history":["2 - heard of it but didn't know what it was"],"rt":8488,"trial_type":"question","trial_index":0,"trial_index_global":80,"time_elapsed":1766278,"internal_chunk_id":"0-0.15-0"},{"question":"Do you feel you learned something from this HIT?","response_type":"multi","response_choices":["1 - not at all","2 - somewhat","3 - definitely"],"correct_response":"1","response":"2 - somewhat","response_history":["2 - somewhat"],"rt":6671,"trial_type":"question","trial_index":0,"trial_index_global":81,"time_elapsed":1772950,"internal_chunk_id":"0-0.15-0"},{"question":"Do you feel you understood the concepts in this HIT?","response_type":"multi","response_choices":["1 - not at all","2 - somewhat","3 - definitely"],"correct_response":"1","response":"2 - somewhat","response_history":["2 - somewhat"],"rt":8251,"trial_type":"question","trial_index":0,"trial_index_global":82,"time_elapsed":1781202,"internal_chunk_id":"0-0.15-0"},{"question":"Did you enjoy this HIT?","response_type":"multi","response_choices":["1 - not at all","2 - somewhat","3 - definitely"],"correct_response":"1","response":"2 - somewhat","response_history":["2 - somewhat"],"rt":4694,"trial_type":"question","trial_index":0,"trial_index_global":83,"time_elapsed":1785897,"internal_chunk_id":"0-0.15-0"},{"question":"What is your gender?","response_type":"multi","response_choices":["Female","Male","Other"],"correct_response":"","response":"Male","response_history":["Male"],"rt":3689,"trial_type":"question","trial_index":0,"trial_index_global":84,"time_elapsed":1789587,"internal_chunk_id":"0-0.15-0"},{"question":"What is/are your native language (s)? (Th e languages spoken in your household when you were a child.)","response_type":"free","response_choices":[],"correct_response":"","response":"English","response_history":["English"],"rt":8042,"trial_type":"question","trial_index":0,"trial_index_global":85,"time_elapsed":1797631,"internal_chunk_id":"0-0.15-0"},{"question":"Did you use pen and paper at any point on this HIT?","response_type":"free","response_choices":[],"correct_response":"","response":"No.","response_history":["No."],"rt":3641,"trial_type":"question","trial_index":0,"trial_index_global":86,"time_elapsed":1801272,"internal_chunk_id":"0-0.15-0"},{"question":"Do you have any comments on this HIT?","response_type":"free","response_choices":[],"correct_response":"","response":"No.","response_history":["No."],"rt":3297,"trial_type":"question","trial_index":0,"trial_index_global":87,"time_elapsed":1804570,"internal_chunk_id":"0-0.15-0"}]