[{"nsides":6,"instructions":"Let's define a new operation <img src=./images/hexagon_symbol.png style=width:14px;height:14px>. This operation will give us a way of combining two of the numbers 0, 1, 2, 3, 4, 5 to get another one of them back. Consider the hexagon at the right, where I've labeled each point with one of the numbers. To perform <img src=./images/hexagon_symbol.png style=width:14px;height:14px>, you can use the interactive diagram on the right, or perform the operation in your mind. Point the arrow at the first number on the hexagon by clicking, then click (or click and drag) to move the arrow the second number of points clockwise around the hexagon. The number the arrow arrives at is your result. (The operation is called <img src=./images/hexagon_symbol.png style=width:14px;height:14px> because it uses the hexagon, which has 6 sides.) <br /><br />For example, 3 <img src=./images/hexagon_symbol.png style=width:14px;height:14px> 5 =  2, becau se 5 steps clockwise from 3 on the hexagon brings us to 2. So 3 <img src=./images/hexagon_symbol.png style=width:14px;height:14px> 5 = 2.<br /><br />Similarly, 1 <img src=./images/hexagon_symbol.png style=width:14px;height:14px> 4 = 5, because 4 steps clockwise from 1 brings us to 5. <br /><br />Click Continue when you're ready to move on.","orientation_history":[0],"rt":8498,"trial_type":"polygon-arrow-instructions","trial_index":0,"trial_index_global":1,"time_elapsed":1960064,"internal_chunk_id":"0-0"},{"nsides":6,"instructions":"Do you see how <img src=./images/hexagon_symbol.png style=width:14px;height:14px> works? By labeling the points of the hexagon with the numbers from 0 to 5, we ensure that when we combine two numbers under <img src=./images/hexagon_symbol.png style=width:14px;height:14px>, we only produce numbers between 0 and 5.<br /><br />Click Continue when you are ready to move on.","orientation_history":[0],"rt":5809,"trial_type":"polygon-arrow-instructions","trial_index":0,"trial_index_global":2,"time_elapsed":1965879,"internal_chunk_id":"0-0"},{"nsides":6,"question":"Now try one on your own! What is 4 <img src=./images/hexagon_symbol.png style=width:14px;height:14px> 5? <br /><br /> (Remember, to perform <img src=./images/hexagon_symbol.png style=width:14px;height:14px>, you can use the interactive diagram on the right, or perform the operation in your mind. Point the arrow at the first number on the hexagon, then move the arrow the second number of points clockwise around the hexagon. The number the arrow arrives at is your result.)","response_type":"free","response_choices":[],"correct_response":"3","response":"3","orientation_history":[[0],[0,0,0,0,0,0,0,-0.08508817515730538,-0.3872155070485661,-0.7630198054474064,-1.0188141726765192,-1.2630033969076884,-1.3887888559033676,-1.5019398374938522,-1.5518982332157947,-1.6006280981422591,-1.6299488961670487,-1.659050102840812,-1.6878855160495627,-1.6974306377425332,-1.7164115362420915,-1.725844337624201,-1.756307896047118,-1.7587662874636596,-1.7924505584602262,-1.8204955145819195,-1.8400823661984997,-1.8533846314974038,-1.8668529366556452,-1.8668529366556452,-1.8804854328053455,-1.8804854328053455,-1.8804854328053455,-1.8804854328053455,-1.8804854328053455,-1.8804854328053455,-1.9082341474034923,-1.9223451886965943,-1.936610052643097,-1.936610052643097,-1.936610052643097,-1.936610052643097,-1.936610052643097,-1.9463590473949512,-1.9463590473949512,-1.9463590473949512,-1.9463590473949512,-1.9463590473949512,-1.9463590473949512,-1.9463590473949512,-1.9463590473949512,-1.9607565662006818,-1.9607565662006818,-1.9703951017613495,-1.9703951017613495,4.1887902047863905],[4.1418062173889005,4.1418062173889005,4.1418062173889005,4.1418062173889005,4.1418062173889005,4.1418062173889005,4.1418062173889005,4.1418062173889005,4.1418062173889005,4.1418062173889005,4.145659762861183,4.3371181575287325,4.404336199360913,4.788002123621519,4.964484961052763,5.061159983968596,5.061159983968596,5.100707698557155,5.1263879829968895,5.157966267359271,5.2395349239710995,5.282971743380479,5.353497749244395,5.442724748408468,5.467027617711668,5.533742864102738,5.5473918076475925,5.5473918076475925,5.5473918076475925,5.5473918076475925,5.5473918076475925,5.5473918076475925,5.5473918076475925,5.5473918076475925,5.5473918076475925,5.5473918076475925,5.5473918076475925,5.5473918076475925,5.5473918076475925,5.5473918076475925,5.5473918076475925,5.561530456314825,5.569094608567428,5.592394378901867,5.616627488349903,5.704470362266387,5.8686784325948,5.997855886997451,6.124530044993184,6.216617143403762,6.256524958804988,6.256524958804988,6.256524958804988,6.256524958804988,6.256524958804988,6.256524958804988,6.256524958804988,6.256524958804988,6.256524958804988,6.256524958804988,6.256524958804988,6.256524958804988,6.256524958804988,6.256524958804988,6.256524958804988,6.256524958804988,6.256524958804988,6.256524958804988,6.256524958804988,6.256524958804988,6.256524958804988,6.26985276388544,0.013332543294145571,0.09559811866384038,0.2624593998262763,0.5452271555372752,0.8567056281827385,1.1025615940046931,1.226577643812429,1.278527844183598,1.278527844183598,1.278527844183598,1.278527844183598,1.278527844183598,1.278527844183598,1.278527844183598,1.278527844183598,1.278527844183598,1.278527844183598,1.278527844183598,1.278527844183598,1.278527844183598,1.278527844183598,1.2890244595215443,1.2971370057128062,1.2924966677897851,1.2937087884082754,1.2862778424868995,1.2644291741788496,1.2285007183648542,1.1562894522101106,1.053308585820788,1.0255691712576214,1.0182119765041824,1.0029522825314565,1.0029522825314565,1.0029522825314565,1.0029522825314565,1.0029522825314565,1.0029522825314565,1.0029522825314565,1.0029522825314565,1.0029522825314565,0.9950380092716608,0.9431669009934022,0.8243395064944875,0.6647744948173455,0.3045108832021124,5.846558147366045,5.2775384203914495,5.119359765753461,5.05852494395405,5.05852494395405,5.05852494395405,5.05852494395405,5.05852494395405,5.05852494395405,5.05852494395405,5.05852494395405,5.053367933881039,5.053367933881039,5.053367933881039,5.053367933881039,5.067619842431371,5.095673128130375,5.16164909299657,5.191302578932275,5.222877302301465,5.222877302301465,5.222877302301465,5.222877302301465,5.222877302301465,5.222877302301465,5.222877302301465,5.222877302301465,5.222877302301465,5.222877302301465,5.222877302301465,5.222877302301465,5.222877302301465,5.222877302301465,5.310147371977772,5.447828748060195,5.632763893636062,5.742765806909002,5.834461963168865,5.834461963168865,5.834461963168865,5.834461963168865,5.878293520894503,5.89347673583672,5.89347673583672,5.924414636909014,5.924414636909014,5.924414636909014,5.924414636909014,5.924414636909014,5.924414636909014,5.924414636909014,5.924414636909014,5.924414636909014,5.924414636909014,5.924414636909014,5.924414636909014,5.924414636909014,5.924414636909014,5.924414636909014,5.924414636909014,5.988455201970209,6.05895055607049,6.183516654688424,0,0.07919907096945145,0.1263081170632403,0.1263081170632403,0.15741687272659055,0.15741687272659055,0.18822150530477066,0.3660565158474183,0.5292467808318448,0.6904464570546919,0.835356559119391,0.8850668158886102,0.9097531579442096,1.0756630633264925,1.1681416732430239,1.2809498368832768,1.3765553306134926,1.3765553306134926,1.3765553306134926,1.3765553306134926,1.3765553306134926,1.379611867197882,1.4310874525057329,1.4963075365810148,1.5273454314033656,1.5567127509720364,1.5567127509720364,1.5567127509720364,1.5567127509720364,1.5567127509720364,1.5567127509720364,1.5567127509720364,1.5567127509720364,1.5567127509720364,1.5567127509720364,1.5567127509720364,1.5567127509720364,1.5567127509720364,1.5567127509720364,1.5567127509720364,1.5567127509720364,1.5567127509720364,1.7069352876480373,1.822124110955737,1.8721415505050008,1.8721415505050008,1.8721415505050008,1.8844169790115948,1.8844169790115948,1.8844169790115948,1.8844169790115948,1.9206519286519947,1.9789454305499858,2.0235747986184327,2.087026997406644,2.0971886910213167,2.1269625569153496,2.1462209773301817,2.1742298042331587,2.1833338834052,2.2011977482684038,2.2099590680125583,2.2099590680125583,2.2099590680125583,2.2099590680125583,2.2099590680125583,2.2164856159031814,2.2854466224387373,2.356194490192345,2.439335722080786,2.5171823039631525,2.5602124697848936,2.613518205163434,2.688526660210063,2.6992184306130484,2.7305281061999285,2.756729005578131,2.756729005578131,2.756729005578131,2.756729005578131,2.7868870015788527,2.819842099193151,2.8908833941683842,2.9441970937399127,2.983823915993839,3.029702387418117,3.0419240010986313,3.065652017323899,3.065652017323899,3.065652017323899,3.065652017323899,3.065652017323899,3.065652017323899,3.065652017323899,3.065652017323899,3.065652017323899,3.07716581416424,3.141592653589793,3.162208289215397,3.141592653589793]],"response_history":["3"],"rt":12214,"trial_type":"polygon-arrow-question ","trial_index":0,"trial_index_global":3,"time_elapsed":1978097,"internal_chunk_id":"0-0.3-0"},{"nsides":6,"feedback":"Correct! 4 <img src=./images/hexagon_symbol.png style=width:14px;height:14px> 5 = 3 because 5 steps clockwise on the hexagon from 4 brings us to 3","orientation_history":[0],"rt":1311,"trial_type":"polygon-arrow-feedback","trial_index":0,"trial_index_global":4,"time_elapsed":1979414,"internal_chunk_id":"0-0.3-0"},{"nsides":6,"question":"What is 3 <img src=./images/hexagon_symbol.png style=width:14px;height:14px> 2? <br /><br /> (Remember, to perform <img src=./images/hexagon_symbol.png style=width:14px;height:14px>, you can use the interactive diagram on the right, or perform the operation in your mind. Point the arrow at the first number on the hexagon, then move the arrow the second number of points clockwise around the hexagon. The number the arrow arrives at is your result.)","response_type":"free","response_choices":[],"correct_response":"5","response":"5","orientation_history":[[0]],"response_history":["5"],"rt":4274,"trial_type":"polygon-arrow-question","trial_index":0,"trial_index_global":5,"time_elapsed":1983692,"internal_chunk_id":"0-0.3-0"},{"nsides":6,"feedback":"Correct! 3 <img src=./images/hexagon_symbol.png style=width:14px;height:14px> 2 = 5 because 2 steps clockwise on the hexagon from 3 brings us to 5","orientation_history":[0],"rt":906,"trial_type":"polygon-arrow-feedback","trial_index":0,"trial_index_global":6,"time_elapsed":1984605,"internal_chunk_id":"0-0.3-0"},{"nsides":6,"question":"What is 1 <img src=./images/hexagon_symbol.png style=width:14px;height:14px> 5? <br /><br /> (Remember, to perform <img src=./images/hexagon_symbol.png style=width:14px;height:14px>, you can use the interactive diagram on the right, or perform the operation in your mind. Point the arrow at the first number on the hexagon, then move the arrow the second number of points clockwise around the hexa gon. The  number the arrow arrives at is your result.)","response_type":"free","response_choices":[],"correct_response":"0","response":"0","orientation_history":[[0]],"response_history":["0"],"rt":5371,"trial_type":"polygon-arrow-question","trial_index":0,"trial_index_global":7,"time_elapsed":1989982,"internal_chunk_id":"0-0.3-0"},{"nsides":6,"feedback":"Correct! 1 <img src=./images/hexagon_symbol.png style=width:14px;height:14px> 5 = 0 because 5 steps clockwise on the hexagon from 1 brings us to 0","orientation_history":[0],"rt":773,"trial_type":"polygon-arrow-feedback","trial_index":0,"trial_index_global":8,"time_elapsed":1990757,"internal_chunk_id":"0-0.3-0"},{"nsides":6,"question":"What is 1 <img src=./images/hexagon_symbol.png style=width:14px;height:14px> 1? <br /><br /> (Remember, to perform <img src=./images/hexagon_symbol.png style=width:14px;height:14px>, you can use the interactive diagram on the right, or perform the operation in your mind. Point t he arrow  at the first number on the hexagon, then move the arrow the second number of points clockwise around the hexagon. The number the arrow arrives at is your result.)","response_type":"free","response_choices":[],"correct_response":"2","response":"2","orientation_history":[[0]],"response_history":["2"],"rt":3471,"trial_type":"polygon-arrow-question","trial_index":0,"trial_index_global":9,"time_elapsed":1994229,"internal_chunk_id":"0-0.3-0"},{"nsides":6,"feedback":"Correct! 1 <img src=./images/hexagon_symbol.png style=width:14px;height:14px> 1 = 2 because 1 step clockwise on the hexagon from 1 brings us to 2","orientation_history":[0],"rt":942,"trial_type":"polygon-arrow-feedback","trial_index":0,"trial_index_global":10,"time_elapsed":1995173,"internal_chunk_id":"0-0.3-0"},{"nsides":6,"question":"What is 3 <img src=./images/hexagon_symbol.png style=width:14px;height:14px> 0? <br /><br /> (Remember, to perform <img src=./images/hexagon_symbol.png style=width :14px;he ight:14px>, you can use the interactive diagram on the right, or perform the operation in your mind. Point the arrow at the first number on the hexagon, then move the arrow the second number of points clockwise around the hexagon. The number the arrow arrives at is your result.)","response_type":"free","response_choices":[],"correct_response":"3","response":"3","orientation_history":[[0]],"response_history":["3"],"rt":4223,"trial_type":"polygon-arrow-question","trial_index":0,"trial_index_global":11,"time_elapsed":1999400,"internal_chunk_id":"0-0.3-0"},{"nsides":6,"feedback":"Correct! 3 <img src=./images/hexagon_symbol.png style=width:14px;height:14px> 0 = 3 because 0 steps clockwise on the hexagon from 3 brings us to 3","orientation_history":[0],"rt":1008,"trial_type":"polygon-arrow-feedback","trial_index":0,"trial_index_global":12,"time_elapsed":2000413,"internal_chunk_id":"0-0.3-0"},{"nsides":6,"question":"What is 4 <img src=./images/hexagon_symbol.png style =width :14px;height:14px> 4? <br /><br /> (Remember, to perform <img src=./images/hexagon_symbol.png style=width:14px;height:14px>, you can use the interactive diagram on the right, or perform the operation in your mind. Point the arrow at the first number on the hexagon, then move the arrow the second number of points clockwise around the hexagon. The number the arrow arrives at is your result.)","response_type":"free","response_choices":[],"correct_response":"2","response":"2","orientation_history":[[0]],"response_history":["2"],"rt":7973,"trial_type":"polygon-arrow-question","trial_index":0,"trial_index_global":13,"time_elapsed":2008388,"internal_chunk_id":"0-0.3-0"},{"nsides":6,"feedback":"Correct! 4 <img src=./images/hexagon_symbol.png style=width:14px;height:14px> 4 = 2 because 4 steps clockwise on the hexagon from 4 brings us to 2","orientation_history":[0],"rt":862,"trial_type":"polygon-arrow-feedback","trial_index":0,"trial_index_global":14,"time_elapsed":2009251,"internal_chunk_id":"0-0.3-0"},{"nsides":6,"question":"What is 1 <img src=./images/hexagon_symbol.png style=width:14px;height:14px> 3? <br /><br /> (Remember, to perform <img src=./images/hexagon_symbol.png style=width:14px;height:14px>, you can use the interactive diagram on the right, or perform the operation in your mind. Point the arrow at the first number on the hexagon, then move the arrow the second number of points clockwise around the hexagon. The number the arrow arrives at is your result.)","response_type":"free","response_choices":[],"correct_response":"4","response":"4","orientation_history":[[0]],"response_history":["4"],"rt":4130,"trial_type":"polygon-arrow-question","trial_index":0,"trial_index_global":15,"time_elapsed":2013383,"internal_chunk_id":"0-0.3-0"},{"nsides":6,"feedback":"Correct! 1 <img src=./images/hexagon_symbol.png style=width:14px;height:14px> 3 = 4 because 3 steps clockwise on the hexagon from 1 brings us to 4","orientation_history":[0],"rt":833,"trial_type":"polygon-arrow-feedback","trial_index":0,"trial_index_global":16,"time_elapsed":2014219,"internal_chunk_id":"0-0.3-0"},{"nsides":6,"question":"What is 4 <img src=./images/hexagon_symbol.png style=width:14px;height:14px> 3? <br /><br /> (Remember, to perform <img src=./images/hexagon_symbol.png style=width:14px;height:14px>, you can use the interactive diagram on the right, or perform the operation in your mind. Point the arrow at the first number on the hexagon, then move the arrow the second number of points clockwise around the hexagon. The number the arrow arrives at is your result.)","response_type":"free","response_choices":[],"correct_response":"1","response":"1","orientation_history":[[0]],"response_history":["1"],"rt":4207,"trial_type":"polygon-arrow-question","trial_index":0,"trial_index_global":17,"time_elapsed":2018427,"internal_chunk_id":"0-0.3-0"},{"nsides":6,"feedback":"Correct! 4 <img src=./images/hexagon_symb ol.png  style=width:14px;height:14px> 3 = 1 because 3 steps clockwise on the hexagon from 4 brings us to 1","orientation_history":[0],"rt":1094,"trial_type":"polygon-arrow-feedback","trial_index":0,"trial_index_global":18,"time_elapsed":2019523,"internal_chunk_id":"0-0.3-0"},{"nsides":6,"question":"What is 0 <img src=./images/hexagon_symbol.png style=width:14px;height:14px> 5? <br /><br /> (Remember, to perform <img src=./images/hexagon_symbol.png style=width:14px;height:14px>, you can use the interactive diagram on the right, or perform the operation in your mind. Point the arrow at the first number on the hexagon, then move the arrow the second number of points clockwise around the hexagon. The number the arrow arrives at is your result.)","response_type":"free","response_choices":[],"correct_response":"5","response":"5","orientation_history":[[0]],"response_history":["5"],"rt":3583,"trial_type":"polygon-arrow-question","trial_index":0,"trial_index_global":19,"time_elapsed":2023107,"internal_chunk_id":"0-0.3-0"},{"nsides":6,"feedback":"Correct! 0 <img src=./images/hexagon_symbol.png style=width:14px;height:14px> 5 = 5 because 5 steps clockwise on the hexagon from 0 brings us to 5","orientation_history":[0],"rt":975,"trial_type":"polygon-arrow-feedback","trial_index":0,"trial_index_global":20,"time_elapsed":2024083,"internal_chunk_id":"0-0.3-0"},{"nsides":6,"question":"What is 2 <img src=./images/hexagon_symbol.png style=width:14px;height:14px> 5? <br /><br /> (Remember, to perform <img src=./images/hexagon_symbol.png style=width:14px;height:14px>, you can use the interactive diagram on the right, or perform the operation in your mind. Point the arrow at the first number on the hexagon, then move the arrow the second number of points clockwise around the hexagon. The number the arrow arrives at is your result.)","response_type":"free","response_choices":[],"correct_response":"1","response":"1","orientation_history":[[0]],"response_history":["1"],"rt":6854,"trial_type":"polygon-arrow-question","trial_index":0,"trial_index_global":21,"time_elapsed":2030939,"internal_chunk_id":"0-0.3-0"},{"nsides":6,"feedback":"Correct! 2 <img src=./images/hexagon_symbol.png style=width:14px;height:14px> 5 = 1 because 5 steps clockwise on the hexagon from 2 brings us to 1","orientation_history":[0],"rt":1141,"trial_type":"polygon-arrow-feedback","trial_index":0,"trial_index_global":22,"time_elapsed":2032082,"internal_chunk_id":"0-0.3-0"},{"nsides":6,"instructions":"Now we're going to discuss a couple special properties of this new operation, <img src=./images/hexagon_symbol.png style=width:14px;height:14px> that we've learned. First, notice that the number 0 behaves in a special way under <img src=./images/hexagon_symbol.png style=width:14px;height:14px>. Whenever we combine 0 with anything else, we get that same thing back. We'll say that 0 is the <i>identity</i> under <img src=./image s/hexago n_symbol.png style=width:14px;height:14px>, because when you combine it with something it gives you that identical thing back.","orientation_history":[0],"rt":4843,"trial_type":"polygon-arrow-instructions","trial_index":0,"trial_index_global":23,"time_elapsed":2036933,"internal_chunk_id":"0-0"},{"nsides":6,"instructions":"Now that we know 0 is the identity under <img src=./images/hexagon_symbol.png style=width:14px;height:14px>, we're going to make a new definition. We'll say that the <i>inverse</i> of a number is the element that you combine with it to produce the identity under our operation. For example, 5 <img src=./images/hexagon_symbol.png style=width:14px;height:14px> 1 = 0, so we say 1 is the inverse of 5 under <img src=./images/hexagon_symbol.png style=width:14px;height:14px>, (remember 0 is the identity under <img src=./images/hexagon_symbol.png style=width:14px;height:14px>). Similarly, 3 is its own inverse under <img src=./ images/h exagon_symbol.png style=width:14px;height:14px>, because 3 <img src=./images/hexagon_symbol.png style=width:14px;height:14px> 3 = 0.","orientation_history":[0],"rt":1339,"trial_type":"polygon-arrow-instructions","trial_index":0,"trial_index_global":24,"time_elapsed":2038275,"internal_chunk_id":"0-0"},{"nsides":6,"question":"Now you try! What is the inverse of 4 under <img src=./images/hexagon_symbol.png style=width:14px;height:14px>? <br /><br /> (Remember, the inverse of an element is the thing which you combine with it to produce the identity.)","response_type":"free","response_choices":[],"correct_response":"2","response":"2","orientation_history":[[0]],"response_history":["2"],"rt":8199,"trial_type":"polygon-arrow-question","trial_index":0,"trial_index_global":25,"time_elapsed":2046478,"internal_chunk_id":"0-0.7-0"},{"nsides":6,"feedback":"Correct! The inverse of 4 under <img src=./images/hexagon_symbol.png style=width:14px;height:14px> is 2  because  4 <img src=./images/hexagon_symbol.png style=width:14px;height:14px> 2 = 0, and 0 is the identity under <img src=./images/hexagon_symbol.png style=width:14px;height:14px>.","orientation_history":[0],"rt":1271,"trial_type":"polygon-arrow-feedback","trial_index":0,"trial_index_global":26,"time_elapsed":2047755,"internal_chunk_id":"0-0.7-0"},{"nsides":6,"question":"What is the inverse of 1 under <img src=./images/hexagon_symbol.png style=width:14px;height:14px>? <br /><br /> (Remember, the inverse of an element is the thing which you combine with it to produce the identity.)","response_type":"free","response_choices":[],"correct_response":"5","response":"5","orientation_history":[[0]],"response_history":["5"],"rt":11788,"trial_type":"polygon-arrow-question","trial_index":0,"trial_index_global":27,"time_elapsed":2059549,"internal_chunk_id":"0-0.7-0"},{"nsides":6,"feedback":"Correct! The inverse of 1 under <img src=./images/hexagon_symbol.png style= width:14 px;height:14px> is 5 because 1 <img src=./images/hexagon_symbol.png style=width:14px;height:14px> 5 = 0, and 0 is the identity under <img src=./images/hexagon_symbol.png style=width:14px;height:14px>.","orientation_history":[0],"rt":13512,"trial_type":"polygon-arrow-feedback","trial_index":0,"trial_index_global":28,"time_elapsed":2073065,"internal_chunk_id":"0-0.7-0"},{"nsides":6,"question":"What is the inverse of 3 under <img src=./images/hexagon_symbol.png style=width:14px;height:14px>? <br /><br /> (Remember, the inverse of an element is the thing which you combine with it to produce the identity.)","response_type":"free","response_choices":[],"correct_response":"3","response":"3","orientation_history":[[0]],"response_history":["3"],"rt":5905,"trial_type":"polygon-arrow-question","trial_index":0,"trial_index_global":29,"time_elapsed":2078972,"internal_chunk_id":"0-0.7-0"},{"nsides":6,"feedback":"Correct! The inverse of 3 under <img src=./images /hexagon _symbol.png style=width:14px;height:14px> is 3 because 3 <img src=./images/hexagon_symbol.png style=width:14px;height:14px> 3 = 0, and 0 is the identity under <img src=./images/hexagon_symbol.png style=width:14px;height:14px>.","orientation_history":[0],"rt":3628,"trial_type":"polygon-arrow-feedback","trial_index":0,"trial_index_global":30,"time_elapsed":2082602,"internal_chunk_id":"0-0.7-0"},{"nsides":6,"question":"What is the inverse of 2 under <img src=./images/hexagon_symbol.png style=width:14px;height:14px>? <br /><br /> (Remember, the inverse of an element is the thing which you combine with it to produce the identity.)","response_type":"free","response_choices":[],"correct_response":"4","response":"4","orientation_history":[[0]],"response_history":["4"],"rt":5922,"trial_type":"polygon-arrow-question","trial_index":0,"trial_index_global":31,"time_elapsed":2088528,"internal_chunk_id":"0-0.7-0"},{"nsides":6,"feedback":"Correct! The inverse o f 2 unde r <img src=./images/hexagon_symbol.png style=width:14px;height:14px> is 4 because 2 <img src=./images/hexagon_symbol.png style=width:14px;height:14px> 4 = 0, and 0 is the identity under <img src=./images/hexagon_symbol.png style=width:14px;height:14px>.","orientation_history":[0],"rt":1793,"trial_type":"polygon-arrow-feedback","trial_index":0,"trial_index_global":32,"time_elapsed":2090323,"internal_chunk_id":"0-0.7-0"},{"nsides":6,"question":"What is the inverse of 0 under <img src=./images/hexagon_symbol.png style=width:14px;height:14px>? <br /><br /> (Remember, the inverse of an element is the thing which you combine with it to produce the identity.)","response_type":"free","response_choices":[],"correct_response":"0","response":"0","orientation_history":[[0]],"response_history":["0"],"rt":5179,"trial_type":"polygon-arrow-question","trial_index":0,"trial_index_global":33,"time_elapsed":2095505,"internal_chunk_id":"0-0.7-0"},{"nsides":6,"feedback":"C orrect! The inverse of 0 under <img src=./images/hexagon_symbol.png style=width:14px;height:14px> is 0 because 0 <img src=./images/hexagon_symbol.png style=width:14px;height:14px> 0 = 0, and 0 is the identity under <img src=./images/hexagon_symbol.png style=width:14px;height:14px>.","orientation_history":[0],"rt":1440,"trial_type":"polygon-arrow-feedback","trial_index":0,"trial_index_global":34,"time_elapsed":2096947,"internal_chunk_id":"0-0.7-0"},{"instructions":"It is also possible to successively apply <img src=./images/hexagon_symbol.png style=width:14px;height:14px>, and the operation can simply be performed starting with the left-most pair. For example, 2 <img src=./images/hexagon_symbol.png style=width:14px;height:14px> 3 <img src=./images/hexagon_symbol.png style=width:14px;height:14px> 4 = 5 <img src=./images/hexagon_symbol.png style=width:14px;height:14px> 4 = 3.","rt":7888,"trial_type":"instructions","trial_index":0,"trial_index_global":35,"time_elapsed":2104839,"internal_chunk_id":"0-0"},{"nsides":6,"instructions":"We have one last definition to learn today. Let's start with an example. Under our operation <img src=./images/hexagon_symbol.png style=width:14px;height:14px> we can make every other number using just 1: 2 = 1 <img src=./images/hexagon_symbol.png style=width:14px;height:14px> 1, 3 = 1 <img src=./images/hexagon_symbol.png style=width:14px;height:14px> 1 <img src=./images/hexagon_symbol.png style=width:14px;height:14px> 1, 4 = 1 <img src=./images/hexagon_symbol.png style=width:14px;height:14px> 1 <img src=./images/hexagon_symbol.png style=width:14px;height:14px> 1 <img src=./images/hexagon_symbol.png style=width:14px;height:14px> 1, 5 = 1 <img src=./images/hexagon_symbol.png style=width:14px;height:14px> 1 <img src=./images/hexagon_symbol.png style=width:14px;height:14px> 1 <img src=./images/hexagon_sym bol.png style=width:14px;height:14px> 1 <img src=./images/hexagon_symbol.png style=width:14px;height:14px> 1, and 0 = 1 <img src=./images/hexagon_symbol.png style=width:14px;height:14px> 1 <img src=./images/hexagon_symbol.png style=width:14px;height:14px> 1 <img src=./images/hexagon_symbol.png style=width:14px;height:14px> 1 <img src=./images/hexagon_symbol.png style=width:14px;height:14px> 1 <img src=./images/hexagon_symbol.png style=width:14px;height:14px> 1. Because 1 can make every other element under <img src=./images/hexagon_symbol.png style=width:14px;height:14px>, we say that 1 is a <i>generator</i> under <img src=./images/hexagon_symbol.png style=width:14px;height:14px>. <br /><br /> However, 2 is not a generator under <img src=./images/hexagon_symbol.png style=width:14px;height:14px>, because 4 = 2 <img src=./images/hexagon_symbol.png style=width:14px;height:14px> 2, and 0 = 2 <img src= ./images /hexagon_symbol.png style=width:14px;height:14px> 2 <img src=./images/hexagon_symbol.png style=width:14px;height:14px> 2, but there is no way to make 1, 3, or 5 using just 2.","orientation_history":[0],"rt":10079,"trial_type":"polygon-arrow-instructions","trial_index":0,"trial_index_global":36,"time_elapsed":2114923,"internal_chunk_id":"0-0"},{"nsides":6,"question":"Now you try! Is 3 a generator under <img src=./images/hexagon_symbol.png style=width:14px;height:14px>? <br /><br /> (Remember, a generator is an element which can make every other element.)","response_type":"multi","response_choices":["Yes","No"],"correct_response":"No","response":"No","orientation_history":[[0]],"response_history":["No"],"rt":11608,"trial_type":"polygon-arrow-question","trial_index":0,"trial_index_global":37,"time_elapsed":2126534,"internal_chunk_id":"0-0.10-0"},{"nsides":6,"feedback":"Correct! 3 is not a generator under <img src=./images/hexagon_symbol.png style=wid th:14px; height:14px>, because 3 = 3, 0 = 3 <img src=./images/hexagon_symbol.png style=width:14px;height:14px> 3, but there is no way to make 1, 2, 4, or 5 using just 3.","orientation_history":[0],"rt":33118,"trial_type":"polygon-arrow-feedback","trial_index":0,"trial_index_global":38,"time_elapsed":2159654,"internal_chunk_id":"0-0.10-0"},{"nsides":6,"question":"Is 5 a generator under <img src=./images/hexagon_symbol.png style=width:14px;height:14px>? <br /><br /> (Remember, a generator is an element which can make every other element.)","response_type":"multi","response_choices":["Yes","No"],"correct_response":"Yes","response":"Yes","orientation_history":[[0]],"response_history":["Yes"],"rt":8608,"trial_type":"polygon-arrow-question","trial_index":0,"trial_index_global":39,"time_elapsed":2168266,"internal_chunk_id":"0-0.10-0"},{"nsides":6,"feedback":"Correct! 5 is a generator under <img src=./images/hexagon_symbol.png style=width:14px;height:14px>, because  5 = 5, 4  = 5 <img src=./images/hexagon_symbol.png style=width:14px;height:14px> 5, 3 = 5 <img src=./images/hexagon_symbol.png style=width:14px;height:14px> 5 <img src=./images/hexagon_symbol.png style=width:14px;height:14px> 5, 2 = 5 <img src=./images/hexagon_symbol.png style=width:14px;height:14px> 5 <img src=./images/hexagon_symbol.png style=width:14px;height:14px> 5 <img src=./images/hexagon_symbol.png style=width:14px;height:14px> 5, 1 = 5 <img src=./images/hexagon_symbol.png style=width:14px;height:14px> 5 <img src=./images/hexagon_symbol.png style=width:14px;height:14px> 5 <img src=./images/hexagon_symbol.png style=width:14px;height:14px> 5 <img src=./images/hexagon_symbol.png style=width:14px;height:14px> 5, and 0 = 5 <img src=./images/hexagon_symbol.png style=width:14px;height:14px> 5 <img src=./images/hexagon_symbol.png style=width:14px;height:14px> 5 <img src=./images/hexagon_ symbol.p ng style=width:14px;height:14px> 5 <img src=./images/hexagon_symbol.png style=width:14px;height:14px> 5 <img src=./images/hexagon_symbol.png style=width:14px;height:14px> 5, so you can make all of the numbers under <img src=./images/hexagon_symbol.png style=width:14px;height:14px> using 5","orientation_history":[0],"rt":7214,"trial_type":"polygon-arrow-feedback","trial_index":0,"trial_index_global":40,"time_elapsed":2175486,"internal_chunk_id":"0-0.10-0"},{"nsides":6,"question":"Is 4 a generator under <img src=./images/hexagon_symbol.png style=width:14px;height:14px>? <br /><br /> (Remember, a generator is an element which can make every other element.)","response_type":"multi","response_choices":["Yes","No"],"correct_response":"No","response":"No","orientation_history":[[0]],"response_history":["No"],"rt":5150,"trial_type":"polygon-arrow-question","trial_index":0,"trial_index_global":41,"time_elapsed":2180640,"internal_chunk_id":"0-0.10 -0"},{"nsides":6,"feedback":"Correct! 4 is not a generator under <img src=./images/hexagon_symbol.png style=width:14px;height:14px>, because 4 = 4, 2 = 4 <img src=./images/hexagon_symbol.png style=width:14px;height:14px> 4, and 0 = 4 <img src=./images/hexagon_symbol.png style=width:14px;height:14px> 4 <img src=./images/hexagon_symbol.png style=width:14px;height:14px> 4, but there is no way to make 1, 3, or 5 using just 4.","orientation_history":[0],"rt":3928,"trial_type":"polygon-arrow-feedback","trial_index":0,"trial_index_global":42,"time_elapsed":2184573,"internal_chunk_id":"0-0.10-0"},{"nsides":6,"question":"Is 0 a generator under <img src=./images/hexagon_symbol.png style=width:14px;height:14px>? <br /><br /> (Remember, a generator is an element which can make every other element.)","response_type":"multi","response_choices":["Yes","No"],"correct_response":"No","response":"Yes","orientation_history":[[0]],"response_history":["No","Yes"],"rt":12372,"trial_type":"polygon-arrow-question","trial_index":0,"trial_index_global":43,"time_elapsed":2196948,"internal_chunk_id":"0-0.10-0"},{"nsides":6,"feedback":"Sorry, that's incorrect. 0 is not a generator under <img src=./images/hexagon_symbol.png style=width:14px;height:14px>, because 0 = 0, but there is no way to make 1, 2, 3, 4, or 5 using just 0.","orientation_history":[0],"rt":4254,"trial_type":"polygon-arrow-feedback","trial_index":0,"trial_index_global":44,"time_elapsed":2201204,"internal_chunk_id":"0-0.10-0"},{"nsides":9,"instructions":"Now we are going to ask you some questions about a new operation, <img src=./images/nonagon_symbol.png style=width:14px;height:14px>, on the numbers 0, 1, 2, 3, 4, 5, 6, 7, 8. It works exactly like <img src=./images/hexagon_symbol.png style=width:14px;height:14px>, except now you use the nonagon shown at the right. <br /><br />Do you see how <img src=./images/nonagon_symbol.png style=width:14px;height:14p x> wor ks just like <img src=./images/hexagon_symbol.png style=width:14px;height:14px>? By labeling the points of the nonagon with the numbers from 0 to 8, we ensure that when we combine two numbers under <img src=./images/nonagon_symbol.png style=width:14px;height:14px>, we only produce numbers between 0 and 8. <br /><br />We'll give you one practice question with feedback to make sure you understand the new operation. After that, try to complete the remaining questions as accurately as possible.","orientation_history":[0],"rt":13678,"trial_type":"polygon-arrow-instructions","trial_index":0,"trial_index_global":45,"time_elapsed":2214883,"internal_chunk_id":"0-0"},{"nsides":9,"question":"Practice: What is 5 <img src=./images/nonagon_symbol.png style=width:14px;height:14px> 5?","response_type":"free","response_choices":[],"correct_response":"1","response":"1","orientation_history":[[0]],"response_history":["1"],"rt":9191,"trial_type":"polygon-arrow-question","trial_index":0,"trial_index_global":46,"time_elapsed":2224075,"internal_chunk_id":"0-0.12-0"},{"nsides":9,"feedback":"Correct! 5 <img src=./images/nonagon_symbol.png style=width:14px;height:14px> 5 = 1 because 5 steps clockwise on the nonagon from 5 brings us to 1","orientation_history":[0],"rt":3559,"trial_type":"polygon-arrow-feedback","trial_index":0,"trial_index_global":47,"time_elapsed":2227635,"internal_chunk_id":"0-0.12-0"},{"nsides":9,"question":"What is 3 <img src=./images/nonagon_symbol.png style=width:14px;height:14px> 3?","response_type":"free","response_choices":[],"correct_response":"6","response":"6","orientation_history":[[0]],"response_history":["5","6"],"rt":7894,"trial_type":"polygon-arrow-question","trial_index":0,"trial_index_global":48,"time_elapsed":2235530,"internal_chunk_id":"0-0.12-0"},{"nsides":9,"question":"What is 7 <img src=./images/nonagon_symbol.png style=width:14px;height:14px> 4?","response_type":"free","response_choices":[],"correct_response":"2","response":"2","orientation_history":[[0]],"response_history":["2"],"rt":7975,"trial_type":"polygon-arrow-question","trial_index":0,"trial_index_global":49,"time_elapsed":2243506,"internal_chunk_id":"0-0.12-0"},{"nsides":9,"question":"What is 1 <img src=./images/nonagon_symbol.png style=width:14px;height:14px> 8?","response_type":"free","response_choices":[],"correct_response":"0","response":"0","orientation_history":[[0]],"response_history":["0"],"rt":10538,"trial_type":"polygon-arrow-question","trial_index":0,"trial_index_global":50,"time_elapsed":2254047,"internal_chunk_id":"0-0.12-0"},{"nsides":9,"question":"What is 5 <img src=./images/nonagon_symbol.png style=width:14px;height:14px> 4?","response_type":"free","response_choices":[],"correct_response":"0","response":"0","orientation_history":[[0]],"response_history":["0"],"rt":8574,"trial_type":"polygon-arrow-question","trial_index":0,"trial_index_global":51,"time_elapsed":2262627,"internal_chunk_id":"0-0.12-0"},{"nsides":9,"question":"What is 6 <img src=./images/nonagon_symbol.png style=width:14px;height:14px> 6?","response_type":"free","response_choices":[],"correct_response":"3","response":"3","orientation_history":[[0]],"response_history":["3"],"rt":8878,"trial_type":"polygon-arrow-question","trial_index":0,"trial_index_global":52,"time_elapsed":2271507,"internal_chunk_id":"0-0.12-0"},{"nsides":9,"question":"What is 4 <img src=./images/nonagon_symbol.png style=width:14px;height:14px> 1? Please explain in words how you got your answer.","response_type":"free","response_choices":[],"correct_response":"","response":"moving the arrow from 4 with 1 equals 5","orientation_history":[[0]],"response_history":["moving the arrow from 4 with 1 equals 5"],"rt":55270,"trial_type":"polygon-arrow-question","trial_index":0,"trial_index_global":53,"time_elapsed":2326784,"internal_chunk_id":"0-0.12-0"},{"nsides":9,"question":"What is 8 <img src=./images/nonagon_sym bol.png style=width:14px;height:14px> 4? Please explain in words how you got your answer.","response_type":"free","response_choices":[],"correct_response":"","response":"the arrow was at 8. I moved the arrow 4 points. The answer is 3 ","orientation_history":[[0],[5.529026977212406,5.529026977212406,5.529026977212406,5.529026977212406,5.529026977212406,5.529026977212406,5.529026977212406,5.585053606381854],[5.585053606381854,5.585053606381854,5.585053606381854,5.585053606381854,5.585053606381854,5.585053606381854,5.585053606381854,5.585053606381854,5.585053606381854,5.605849955276569,5.638607562897243,5.67332686326916,5.6976078047053775,5.722825010004658,5.748999728945878,5.762451832258585,5.790094558901309,5.835381618787371,5.886806826805346,5.958114291590636,5.993542499454482,6.043778116404469,6.089852044058811,6.1212225025291565,6.169134661404661,6.185305758391525,6.201564488196655,6.201564488196655,6.201564488196655,6.201564488196655,6.201564488196655,6.201564488196655,6.234312808926162,6.25078578331499,6.283886272030328,6.333789312092211,6.333789312092211,0.06726912862656587,0.06726912862656587,0.06726912862656587,0.06726912862656587,0.06726912862656587,0.06726912862656587,0.06726912862656587,0.06726912862656587,0.06726912862656587,0.06726912862656587,0.06726912862656587,0.06726912862656587,0.06726912862656587,0.06726912862656587,0.10059012450481308,0.13383729240238962,0.18341075550655606,0.216159076236063,0.31224779175342987,0.38355525653872036,0.4381604174392282,0.49967690419710364,0.546788420619162,0.5708954247506619,0.5864152428730887,0.5953435770529254,0.5953435770529254,0.6107467233396093,0.6107467233396093,0.6353738611009929,0.6895719998137734,0.7037773444145169,0.7420100708501185,0.7420100708501185,0.7420100708501185,0.7554140937724484,0.7554140937724484,0.7685290514928431,0.7924990408690044,0.7924990408690044,0.7924990408690044,0.7924990408690044,0.8039254407140826,0.8039254407140826,0.8039254407140826,0.8039254407140826,0.8039254407140826,0.8039254407140826,0.8165384415112386,0.8526672920240141,0.938872865699793,1.0546924484276063,1.1147871332894868,1.2033952402722177,1.2372720068462275,1.3114840207308438,1.345153057895939,1.345153057895939,1.359765796416351,1.359765796416351,1.359765796416351,1.359765796416351,1.359765796416351,1.359765796416351,1.359765796416351,1.359765796416351,1.359765796416351,1.359765796416351,1.359765796416351,1.378435826013205,1.3930867922945982,1.4078458681446187,1.4555056022905557,1.4704230175902466,1.4729167780068355,1.489905434689631,1.489905434689631,1.504536406329591,1.5064773139635417,1.5064773139635417,1.5064773139635417,1.5064773139635417,1.5064773139635417,1.5064773139635417,1.5064773139635417,1.520956710854598,1.5500580818937217,1.5500580818937217,1.5646681295198508,1.5646681295198508,1.5793096327057397,1.5939763980233905,1.6527702777993138,1.6821545128195343,1.7551741999883268,1.844056792097294,1.8724811311452731,1.9183651117599134,1.9598160098181046,1.9781625749312248,1.9917686015025842,1.9917686015025842,1.9917686015025842,1.9917686015025842,1.9917686015025842,1.9917686015025842,1.9917686015025842,2.0052392892396815,2.0052392892396815,2.0052392892396815,2.0185718325338273,2.031763679381487,2.031763679381487,2.031763679381487,2.031763679381487,2.031763679381487,2.031763679381487,2.031763679381487,2.031763679381487,2.031763679381487,2.031763679381487,2.031763679381487,2.031763679381487,2.0943951023931953]],"response_history":["the ae","the arrow was at 8. I moved the arrow 4 poins. ","the arrow was at 8. I moved the arrow 4 points.  ","the arrow was at 8. I moved the arrow 4 points. T ","the arrow was at 8. I moved the arrow 4 points. Th ","the arrow was at 8. I moved the arrow 4 points. The  ","the arrow was at 8. I moved the arrow 4 points. The a ","the arrow was at 8. I moved the arrow 4 points. The an ","the arrow was at 8. I moved the arrow 4 points. The ans ","the arrow was at 8. I moved the arrow 4 points. The answ ","the arrow was at 8. I moved the a rrow 4 p oints. The answe ","the arrow was at 8. I moved the arrow 4 points. The answer  ","the arrow was at 8. I moved the arrow 4 points. The answer i ","the arrow was at 8. I moved the arrow 4 points. The answer is  ","the arrow was at 8. I moved the arrow 4 points. The answer is 3 "],"rt":80993,"trial_type":"polygon-arrow-question","trial_index":0,"trial_index_global":54,"time_elapsed":2407781,"internal_chunk_id":"0-0.12-0"},{"nsides":9,"question":"What is the identity under <img src=./images/nonagon_symbol.png style=width:14px;height:14px>? Please explain in words how you got your answer.","response_type":"free","response_choices":[],"correct_response":"0","response":"0 because it gives me the same number I added","orientation_history":[[0]],"response_history":["0 because it gives me the i","0 because it gives me the same number I added"],"rt":108972,"trial_type":"polygon-arrow-question","trial_index":0,"trial_index_global":55,"time_elapsed":2516756,"internal_chunk_id":" 0-0.12-0 "},{"nsides":9,"question":"What is the inverse of 5 under <img src=./images/nonagon_symbol.png style=width:14px;height:14px>?","response_type":"free","response_choices":[],"correct_response":"4","response":"4","orientation_history":[[0],[3.5315105175206454,3.5315105175206454,3.5315105175206454,3.5315105175206454,3.5315105175206454,3.5315105175206454,3.5315105175206454,3.5315105175206454,3.5315105175206454,3.5315105175206454,3.5315105175206454,3.490658503988659]],"response_history":["4"],"rt":14024,"trial_type":"polygon-arrow-question","trial_index":0,"trial_index_global":56,"time_elapsed":2530786,"internal_chunk_id":"0-0.12-0"},{"nsides":9,"question":"What is the inverse of 2 under <img src=./images/nonagon_symbol.png style=width:14px;height:14px>?","response_type":"free","response_choices":[],"correct_response":"7","response":"7","orientation_history":[[0],[0,0,0,0,0,0,0,0,0.0332690514242302,0.051821339702178504,0.05298480630925462,0.09086398965734555,0.11544375599129797,0.13972314498523963,0.16222125523940756,0.1854454253828508,0.20940509622226533,0.20940509622226533,0.20940509622226533,0.2539774729466793,0.27956915415193007,0.30587887140485215,0.30587887140485215,0.36061865145473293,0.40896047992755236,0.42854752690930886,0.42854752690930886,0.47661408288013485,0.5059625968226205,0.5245478172787941,0.5245478172787941,0.5605035375993936,0.5778779837189811,0.6235142226943828,0.6398239432497461,0.6712525271496491,0.7272980782926564,0.7417558438122372,0.783224253778524,0.7965469295929231,0.8504305795608889,0.8889554064239967,0.9114235350098222,0.9619220819215807,0.9868199113286793,0.9868199113286793,0.9963253284595441,0.9963253284595441,1.0528344447811124,1.0528344447811124,1.0912770348023004,1.0912770348023004,1.1133322814958153,1.1133322814958153,1.1564021981366863,1.1564021981366863,1.1773944483795684,1.2182498244163793,1.2331740894064644,1.2529734819728573,1.2529734819728573,1.2529734819728573,1.2529734819728573,1.3023703680250471,1.3023703680250471,1.3023703680250471,1.3023703680250471,1.3247050565262628,1.3247050565262628,1.3395669441053686,1.3723647906721999,1.3723647906721999,1.3723647906721999,1.3897759663884797,1.3897759663884797,1.3897759663884797,1.4067646230712751,1.4067646230712751,1.4067646230712751,1.4067646230712751,1.4067646230712751,1.4067646230712751,1.4067646230712751,1.4067646230712751,1.3962634015954636]],"response_history":["7"],"rt":237562,"trial_type":"polygon-arrow-question","trial_index":0,"trial_index_global":57,"time_elapsed":2768355,"internal_chunk_id":"0-0.12-0"},{"nsides":9,"question":"What is the inverse of 0 under <img src=./images/nonagon_symbol.png style=width:14px;height:14px>?","response_type":"free","response_choices":[],"correct_response":"0","response":"0","orientation_history":[[0]],"response_history":["0"],"rt":3633,"trial_type":"polygon-arrow-question","trial_index":0,"trial_index_global":58,"time_elapsed":2772000,"internal_chunk_id":"0-0.12-0"},{"nsides":9,"question":"W hat is the inverse of 3 under <img src=./images/nonagon_symbol.png style=width:14px;height:14px>? Please explain in words how you got your answer.","response_type":"free","response_choices":[],"correct_response":"","response":"adding 6 to 3 is 9","orientation_history":[[0],[0,0,0,0,0,0,0,0,0,-0.015336220841729586,-0.015336220841729586,0.0430767839237618,0.32890723116953957,0.7711360559987122,1.1950933285026077,1.4183362847876793,1.5554601059531672,1.5707963267948966,1.5707963267948966,1.5999851147876913,1.5999851147876913,1.5999851147876913,1.6138731107186584,1.628878805617769,1.6567422726097847,1.6713732442497446,1.7094360639290547,1.7418821693918551,1.7778378897124547,1.7778378897124547,1.7906240207017867,1.7906240207017867,1.7906240207017867,1.7906240207017867,1.7906240207017867,1.7906240207017867,1.7906240207017867,1.7906240207017867,1.8284363573118347,1.853160315664468,1.853160315664468,1.8774726461965794,1.8894687839486901,1.8894687839486901,1.9131310874487655,1.9247937636267927,1.9247937636267927,1.9477746038822707,1.9590901959252984,1.9813663823155028,1.992325259003207,2.013881281705984,2.013881281705984,2.013881281705984,2.013881281705984,2.013881281705984,2.013881281705984,2.013881281705984,2.013881281705984,2.013881281705984,2.013881281705984,2.0244774883894956,2.0244774883894956,2.0244774883894956,2.0244774883894956,2.0943951023931953]],"response_history":["adding 6 t0","adding 6 to 3 ","adding 6 to 3, ","adding 6 to 3,","adding 6 to 3 is 9"],"rt":27275,"trial_type":"polygon-arrow-question","trial_index":0,"trial_index_global":59,"time_elapsed":2799279,"internal_chunk_id":"0-0.12-0"},{"nsides":9,"question":"Is 2 a generator under <img src=./images/nonagon_symbol.png style=width:14px;height:14px>? Please explain in words how you got your answer.","response_type":"free","response_choices":[],"correct_response":"","response":"no, because I can't make 1, 3, 5 using 2","orientation_history":[[0]],"response_history":["no, because  I can't  make 1 ","no, because I can't make 1, 3 5 ","no, because I can't make 1, 3, 5 using 2"],"rt":84841,"trial_type":"polygon-arrow-question","trial_index":0,"trial_index_global":60,"time_elapsed":2884126,"internal_chunk_id":"0-0.12-0"},{"nsides":9,"question":"Is 3 a generator under <img src=./images/nonagon_symbol.png style=width:14px;height:14px>? Please explain in words how you got your answer.","response_type":"free","response_choices":[],"correct_response":"","response":"no","orientation_history":[[0]],"response_history":["no"],"rt":14002,"trial_type":"polygon-arrow-question","trial_index":0,"trial_index_global":61,"time_elapsed":2898139,"internal_chunk_id":"0-0.12-0"},{"nsides":9,"question":"Is 5 a generator under <img src=./images/nonagon_symbol.png style=width:14px;height:14px>? Please explain in words how you got your answer.","response_type":"free","response_choices":[],"correct_response":"","response":"yes, I can make all the numbers using 5 ","orientation_history":[[0]],"response_history":["yesm","yes, I can make all the numbers using 5 "],"rt":58507,"trial_type":"polygon-arrow-question","trial_index":0,"trial_index_global":62,"time_elapsed":2956652,"internal_chunk_id":"0-0.12-0"},{"nsides":9,"question":"Is 6 a generator under <img src=./images/nonagon_symbol.png style=width:14px;height:14px>? Please explain in words how you got your answer.","response_type":"free","response_choices":[],"correct_response":"","response":"no ","orientation_history":[[0]],"response_history":["no "],"rt":4106,"trial_type":"polygon-arrow-question","trial_index":0,"trial_index_global":63,"time_elapsed":2960769,"internal_chunk_id":"0-0.12-0"},{"nsides":"n","instructions":"Now we'd like to ask you some questions about <img src=./images/ngon_symbol.png style=width:14px;height:14px>, where n could be any positive counting number. For example, n could be 3, and the polygon a triangle, or n could be any other counting number you can think of.  If you  need to write the operation, you can use (n), and your answers can include n to stand in for the arbitrary value if necessary. (You can use the polygon at the right to think, but it doesn't necessarily correspond to the real polygon, which is why we've left most of it dashed.)","orientation_history":[0],"rt":6227,"trial_type":"polygon-arrow-instructions","trial_index":0,"trial_index_global":64,"time_elapsed":2967002,"internal_chunk_id":"0-0"},{"nsides":"n","question":"What is the formula for the inverse of 1 under <img src=./images/ngon_symbol.png style=width:14px;height:14px>?","response_type":"free","response_choices":[],"correct_response":"n-1","response":"don't know ","orientation_history":[[0]],"response_history":["don't know "],"rt":11843,"trial_type":"polygon-arrow-question","trial_index":0,"trial_index_global":65,"time_elapsed":2978848,"internal_chunk_id":"0-0.14-0"},{"nsides":"n","question":"What is the formula for the inverse of an element x under <img  src=./ images/ngon_symbol.png style=width:14px;height:14px>? Please explain in words why your answer is correct.","response_type":"free","response_choices":[],"correct_response":"n-x","response":"don't know ","orientation_history":[[0]],"response_history":["don't know "],"rt":8429,"trial_type":"polygon-arrow-question","trial_index":0,"trial_index_global":66,"time_elapsed":2987280,"internal_chunk_id":"0-0.14-0"},{"nsides":"n","question":"Is there a pattern to which elements are generators? How can you know if an element x is a generator under <img src=./images/ngon_symbol.png style=width:14px;height:14px> without seeing whether it can make all the elements?.","response_type":"free","response_choices":[],"correct_response":"","response":"don't know ","orientation_history":[[0]],"response_history":["no ","no","n","don't know "],"rt":12837,"trial_type":"polygon-arrow-question","trial_index":0,"trial_index_global":67,"time_elapsed":3000120,"internal_chunk_id":"0-0.14-0"},{"nsides":"n","question":"True or false: If x is an odd number, it must be a generator under <img src=./images/ngon_symbol.png style=width:14px;height:14px>.","response_type":"multi","response_choices":["True","False"],"correct_response":"False","response":"False","orientation_history":[[0]],"response_history":["False"],"rt":16787,"trial_type":"polygon-arrow-question","trial_index":0,"trial_index_global":68,"time_elapsed":3016911,"internal_chunk_id":"0-0.14-0"},{"nsides":"n","question":"True or false: If x is an even number, it must not be a generator under <img src=./images/ngon_symbol.png style=width:14px;height:14px>.","response_type":"multi","response_choices":["True","False"],"correct_response":"False","response":"False","orientation_history":[[0]],"response_history":["False"],"rt":6534,"trial_type":"polygon-arrow-question","trial_index":0,"trial_index_global":69,"time_elapsed":3023447,"internal_chunk_id":"0-0.14-0"},{"nsides":"n","question":"True or false: If x  is not a  generator under <img src=./images/ngon_symbol.png style=width:14px;height:14px>, x must be a divisor of n, that is, x must divide n evenly, with no remainder.","response_type":"multi","response_choices":["True","False"],"correct_response":"False","response":"False","orientation_history":[[0]],"response_history":["False"],"rt":9565,"trial_type":"polygon-arrow-question","trial_index":0,"trial_index_global":70,"time_elapsed":3033014,"internal_chunk_id":"0-0.14-0"},{"nsides":"n","question":"True or false: If x is not a generator under <img src=./images/ngon_symbol.png style=width:14px;height:14px>, x must be a multiple of a divisor of n. Please explain in words why your answer is correct.","response_type":"free","response_choices":[],"correct_response":"True","response":"don't know ","orientation_history":[[0]],"response_history":["don't know "],"rt":10145,"trial_type":"polygon-arrow-question","trial_index":0,"trial_index_global":71,"time_elapsed":3043163,"internal_chunk_id":"0-0.14-0"},{"nsides":"n","question":"If an element x is a generator under <img src=./images/ngon_symbol.png style=width:14px;height:14px>, is its inverse a generator under <img src=./images/ngon_symbol.png style=width:14px;height:14px> always, sometimes, or never?","response_type":"multi","response_choices":["Always","Sometimes","Never"],"correct_response":"Always","response":"Never","orientation_history":[[0]],"response_history":["Never"],"rt":4867,"trial_type":"polygon-arrow-question","trial_index":0,"trial_index_global":72,"time_elapsed":3048046,"internal_chunk_id":"0-0.14-0"},{"nsides":"n","question":"If an element x is a generator under <img src=./images/ngon_symbol.png style=width:14px;height:14px>, is x <img src=./images/ngon_symbol.png style=width:14px;height:14px> x a generator under <img src=./images/ngon_symbol.png style=width:14px;height:14px> always, sometimes, or never? Please explain in words why your answer is co rrect.","response_type":"free","response_choices":[],"correct_response":"Sometimes","response":"don't know ","orientation_history":[[0]],"response_history":["don' know ","don't know "],"rt":9435,"trial_type":"polygon-arrow-question","trial_index":0,"trial_index_global":73,"time_elapsed":3057488,"internal_chunk_id":"0-0.14-0"},{"nsides":"n","question":"If an element x is not a generator under <img src=./images/ngon_symbol.png style=width:14px;height:14px>, is x <img src=./images/ngon_symbol.png style=width:14px;height:14px> x a generator under <img src=./images/ngon_symbol.png style=width:14px;height:14px> always, sometimes, or never?","response_type":"multi","response_choices":["Always","Sometimes","Never"],"correct_response":"Never","response":"Never","orientation_history":[[0]],"response_history":["Never"],"rt":6963,"trial_type":"polygon-arrow-question","trial_index":0,"trial_index_global":74,"time_elapsed":3064461,"internal_chunk_id":"0-0.14-0"},{"instructions":"W e would like to ask you some questions about your background. Please press Continue to continue.","rt":1827,"trial_type":"instructions","trial_index":0,"trial_index_global":75,"time_elapsed":3066293,"internal_chunk_id":"0-0.15-0"},{"question":"What is your age?","response_type":"free","response_choices":[],"correct_response":"","response":"34","response_history":["34"],"rt":3595,"trial_type":"question","trial_index":0,"trial_index_global":76,"time_elapsed":3069893,"internal_chunk_id":"0-0.15-0"},{"question":"What is your level of education?","response_type":"multi","response_choices":["Did not graduate high school","High school diploma","Some college, no degree","Associates Degree","Bachelors Degree","Some graduate school, no degree","Masters Degree","Doctorate, M.D., etc."],"correct_response":"","response":"High school diploma","response_history":["High school diploma"],"rt":2748,"trial_type":"question","trial_index":0,"trial_index_global":77,"time_elapsed":3072645,"internal_chunk_id":"0-0.15-0"},{"question":"What is the most advanced math class you've completed? If you have multiple classes and you're not sure which one is most advanced, please list them.","response_type":"free","response_choices":[],"correct_response":"","response":"Algebra 1, Geometry, Algebra 2, Trigonometry","response_history":["Algebra 2/Trigonometry","Algebra 1\nGeometryAlgebra 2/Trigonometry","Algebra 1,\nGeometryAlgebra 2/Trigonometry","Algebra 1\nGeometryAlgebra 2/Trigonometry","Algebra 1,\nGeometryAlgebra 2/Trigonometry","Algebra 1,GeometryAlgebra 2/Trigonometry","Algebra 1, GeometryAlgebra 2/Trigonometry","Algebra 1, Geometry,Algebra 2/Trigonometry","Algebra 1, Geometry, Algebra 2/Trigonometry","Algebra 1, Geometry, Algebra 2Trigonometry","Algebra 1, Geometry, Algebra 2,Trigonometry","Algebra 1, Geometry, Algebra 2, Trigonometry"],"rt":74634,"trial_type":"question","trial_index":0,"trial_index_global":78,"time_elapsed":3147284,"internal_chunk_id":"0-0.15-0"},{"question":"How f amiliar are you with the concept of modular arithmetic?","response_type":"multi","response_choices":["1 - never heard of it","2 - heard of it but didn't know what it was","3 - seen it used or explained","4 - used it but not often or recently","5 - used it, remember and understand it"],"correct_response":"1","response":"1 - never heard of it","response_history":["1 - never heard of it"],"rt":4871,"trial_type":"question","trial_index":0,"trial_index_global":79,"time_elapsed":3152161,"internal_chunk_id":"0-0.15-0"},{"question":"How familiar are you with the concept of a mathematical group?","response_type":"multi","response_choices":["1 - never heard of it","2 - heard of it but didn't know what it was","3 - seen it used or explained","4 - used it but not often or recently","5 - used it, remember and understand it"],"correct_response":"1","response":"1 - never heard of it","response_history":["1 - never heard of it"],"rt":3549,"trial_type":"question","trial_index":0,"trial_index_global":80,"time_elapsed":3155716,"internal_chunk_id":"0-0.15-0"},{"question":"Do you feel you learned something from this HIT?","response_type":"multi","response_choices":["1 - not at all","2 - somewhat","3 - definitely"],"correct_response":"1","response":"2 - somewhat","response_history":["2 - somewhat"],"rt":3410,"trial_type":"question","trial_index":0,"trial_index_global":81,"time_elapsed":3159129,"internal_chunk_id":"0-0.15-0"},{"question":"Do you feel you understood the concepts in this HIT?","response_type":"multi","response_choices":["1 - not at all","2 - somewhat","3 - definitely"],"correct_response":"1","response":"2 - somewhat","response_history":["2 - somewhat"],"rt":4904,"trial_type":"question","trial_index":0,"trial_index_global":82,"time_elapsed":3164038,"internal_chunk_id":"0-0.15-0"},{"question":"Did you enjoy this HIT?","response_type":"multi","response_choices":["1 - not at all","2 - somewhat","3 - definitely"],"correct_response":"1","response":"1 - not at all","response_history":["2 - somewhat","1 - not at all"],"rt":5638,"trial_type":"question","trial_index":0,"trial_index_global":83,"time_elapsed":3169681,"internal_chunk_id":"0-0.15-0"},{"question":"What is your gender?","response_type":"multi","response_choices":["Female","Male","Other"],"correct_response":"","response":"Female","response_history":["Female"],"rt":2929,"trial_type":"question","trial_index":0,"trial_index_global":84,"time_elapsed":3172615,"internal_chunk_id":"0-0.15-0"},{"question":"What is/are your native language(s)? (The languages spoken in your household when you were a child.)","response_type":"free","response_choices":[],"correct_response":"","response":"english ","response_history":["english "],"rt":8021,"trial_type":"question","trial_index":0,"trial_index_global":85,"time_elapsed":3180642,"internal_chunk_id":"0-0.15-0"},{"question":"Did you use pen and paper at any point on this HIT?","response_type":"free","response_choices":[],"correct_response":"","response":"y es ","response_history":["yes "],"rt":5194,"trial_type":"question","trial_index":0,"trial_index_global":86,"time_elapsed":3185840,"internal_chunk_id":"0-0.15-0"},{"question":"Do you have any comments on this HIT?","response_type":"free","response_choices":[],"correct_response":"","response":"no","response_history":["no"],"rt":2541,"trial_type":"question","trial_index":0,"trial_index_global":87,"time_elapsed":3188385,"internal_chunk_id":"0-0.15-0"}]