[{"nsides":6,"instructions":"Let's define a new operation <img src=./images/hexagon_symbol.png style=width:14px;height:14px>. This operation will give us a way of combining two of the numbers 0, 1, 2, 3, 4, 5 to get another one of them back. To perform <img src=./images/hexagon_symbol.png style=width:14px;height:14px>, you can either use a method based on the hexagon at right, or a method based on arithmetic.<br /><b>Hexagon method:</b> you can use the interactive diagram on the right, or perform the operation in your mind. Point the arrow at the first number on the hexagon by clicking, then click (or click and drag) to move the arrow the second number of points clockwise around the hexagon. The number the arrow arrives at is your result. (The operation is called <img src=./images/hexagon_symbol.png style=width:14px;height:14px> because it uses the hexagon, which has 6 sides.) <br ><b>Arithmetic method:</b> you start with the first number, and then add  the sec ond one to it. If the sum is smaller than 6, that's your result. If the sum is 6 or bigger, you subtract 6 to get your result. <br /><br />For example, 3 <img src=./images/hexagon_symbol.png style=width:14px;height:14px> 5 = 2, because 5 steps clockwise from 3 on the hexagon brings us to 2. Equivalently, 3 + 5 = 8, and 8 is bigger than 6, so we subtract 6, and 8 - 6 = 2. So 3 <img src=./images/hexagon_symbol.png style=width:14px;height:14px> 5 = 2.<br /><br />Similarly, 1 <img src=./images/hexagon_symbol.png style=width:14px;height:14px> 4 = 5, because 1 + 4 = 5, and 5 is less than 6 so we leave it alone. Equivalently, 4 steps clockwise from 1 on the hexagon brings us to 5. <br /><br />Click Continue when you're ready to move on.","orientation_history":[0],"rt":89819,"trial_type":"polygon-arrow-instructions","trial_index":0,"trial_index_global":1,"time_elapsed":411418,"internal_chunk_id":"0-0"},{"nsides":6,"instructions":"Do you see how the differ ent ways  of performing <img src=./images/hexagon_symbol.png style=width:14px;height:14px> give the same result? By labeling the points of the hexagon with the numbers from 0 to 5, we ensure that when we combine two numbers using the hexagon, we only produce numbers between 0 and 5. When we use the arithmetic strategy, adding the second number to the first mimics counting around the hexagon, and subtracting 6 each time we get above 5 makes sure the results correspond to the numbers on the points of the hexagon. <br /><br />Click Continue when you're ready to move on.","orientation_history":[0],"rt":138977,"trial_type":"polygon-arrow-instructions","trial_index":0,"trial_index_global":2,"time_elapsed":550399,"internal_chunk_id":"0-0"},{"nsides":6,"question":"Now try one on your own! What is 4 <img src=./images/hexagon_symbol.png style=width:14px;height:14px> 5? <br /><br /> (Remember, to perform <img src=./images/hexagon_symbol.png style=width:14px;height:14px >, you  can either use a method based on the hexagon at right, or a method based on arithmetic.<br /><br /><b>Hexagon method:</b> you can use the interactive diagram on the right, or perform the operation in your mind. Point the arrow at the first number, then move the arrow the second number of points clockwise around the hexagon. The number the arrow arrives at is your result. <br /><br /><b>Arithmetic method:</b> you start with the first number, and then add the second one to it. If the sum is smaller than 6, that's your result. If the sum is 6 or bigger, you subtract 6 to get your result.)","response_type":"free","response_choices":[],"correct_response":"3","response":"5","orientation_history":[[0],[0,0,0,0,0,0,0,0,0,0,0,0.04523660777916816,0.07520038915852578,0.13443022037090113,0.14905683679352855,0.19241264803587366,0.23487637691687402,0.24881128568961075,0.2899011018934343,0.30827986665954477,0.3269751672551773,0.3787711284821895,0.3787711284821895,0.42476018422516026,0.44453404683215125,0.4574199315062837,0.4574199315062837,0.4773658059588253,0.4773658059588253,0.4899962625150487,0.4899962625150487,0.5024402520802584,0.5224207648418628,0.5224207648418628,0.5224207648418628,0.5345794947861039,0.5345794947861039,0.5345794947861039,0.5345794947861039,0.5345794947861039,0.5345794947861039,0.5345794947861039,0.5345794947861039,0.5224207648418628,0.5224207648418628,0.5024402520802584,0.5024402520802584,0.4899962625150487,0.4899962625150487,0.4899962625150487,0.4899962625150487,0.4899962625150487,0.4899962625150487,0.4899962625150487,0.4899962625150487,0.4899962625150487,0.4899962625150487,0.4899962625150487,0.4899962625150487,0.4899962625150487,0.4899962625150487,0.4899962625150487,0.4899962625150487,0.4899962625150487,0.4899962625150487,0.4899962625150487,0.4899962625150487,0.4899962625150487,0.4899962625150487,0.4899962625150487,0.4899962625150487,0.4899962625150487,0.4899962625150487,0.4899962625150487,0.4899962625150487,0.4899962625150487,0.4899962625150487,0.4899962625150487,0.4899962625150487,0.4899962625150487,0.4899962625150487,0.4899962625150487,0.4899962625150487,0.4899962625150487,0.4899962625150487,0.4899962625150487,0.4899962625150487,0.4899962625150487,0.4899962625150487,0.4899962625150487,0.4899962625150487,0.4899962625150487,0.4899962625150487,0.4899962625150487,0.4899962625150487,0.4899962625150487,0.4899962625150487,0.4899962625150487,0.4899962625150487,0.4899962625150487,0.4899962625150487,0.6361825435188284,0.6664235934873315,0.7191445639396542,0.770892863538914,0.8324935050955181,0.8552510099468233,0.8998880071340906,0.9415026517112046,0.9540355675396928,0.9875375206798909,1.000577275723212,1.0480276649996476,1.0822704924059137,1.1364161671943127,1.4639120914905537,1.554350441224881,1.5824538297795843,1.6222906751676827,1.6615120082264603,1.7550154896584542,1.998970576766931,2.096086307562679,2.1629218455120123,2.200113989596872,2.2151730921069275,2.2844614935178456,2.32375749369094,2.4874800668408046,2.541861877966665,2.557125388848553,2.579001496708095,2.6006177006823874,2.6254044476262,2.696491304979248,2.759113892447382,2.927068148166839,2.9828359774028126,2.990869244604168,3.0312202052001935,3.1367974118495896,3.23351065163515,3.392925134945938,3.4179199285648583,3.4549400444387883,3.4795700992041176,3.5041255022406372,3.549508070022779,3.5973420219992853,3.6209651458183236,3.6820711404703483,3.7050457722324532,3.741192551801331,3.7685378416022384,3.785093762383078,3.8178242250329775,3.8499990810778866,3.855118680199545,3.876331983309257,3.8815675375656644,3.886803091822072,3.89209346459739,3.897273052396804,3.9182003567897103,3.9286531284458848,3.939095613814173,3.943986347561622,3.9488234591422655,3.9543553861695897,3.9796969403745734,3.9853598780227077,4.011717702265538,4.021998317560817,4.032249139260122,4.03816941454768,4.046716214980291,4.0609650410377185,4.082987220562984,4.093018396693807,4.109135024976249,4.119102169461277,4.122847080696846,4.132696184656452,4.142495768336991,4.14871005843136,4.1584763768834225,4.168188779791118,4.1778458954515845,4.187446408970517,4.187446408970517,4.1937642425247095,4.2033180919623065,4.2033180919623065,4.2033180919623065,4.2033180919623065,4.2033180919623065,4.2033180919623065,4.2033180919623065,4.2033180919623065,4.2033180919623065,4.2033180919623065,4.2033180919623065,4.2033180919623065,4.2033180919623065,4.1887902047863905],[4.1887902047863905,4.1887902047863905,4.1887902047863905,4.1887902047863905,4.1887902047863905,4.1887902047863905,4.1887902047863905,4.1887902047863905,4.1887902047863905,4.1887902047863905,4.1887902047863905,4.1887902047863905,4.1887902047863905,4.1887902047863905,4.1887902047863905,4.1887902047863905,4.1887902047863905,4.1887902047863905,4.1887902047863905,4.1887902047863905,4.1887902047863905,4.1887902047863905,4.1887902047863905,4.1887902047863905,4.1887902047863905,4.1887902047863905,4.1887902047863905,4.1887902047863905,4.1887902047863905,4.1887902047863905,4.1887902047863905,4.1887902047863905,4.1887902047863905,4.1887902047863905,4.1887902047863905,4.1887902047863905,4.1887902047863905,4.1887902047863905,4.1887902047863905,4.1887902047863905,4.1887902047863905,4.1887902047863905,4.1887902047863905,4.1887902047863905,4.1887902047863905,4.1887902047863905,4.1887902047863905,4.1887902047863905,4.1887902047863905,4.1887902047863905,4.304706581078907,4.431679370692986,4.481415437148944,4.549685244205771,4.613357448155773,4.6594122330898475,4.722930910658136,4.768354190079713,4.798196074746822,4.857668183072936,4.887194534647478,4.9165142108115445,4.9310815647200945,4.9455795750294325,4.988602913470403,5.002769865803524,5.03081358990599,5.044681465054778,5.058441122400741,5.058441122400741,5.0856204696015395,5.0856204696015395,5.112323309803075,5.125488200600507,5.138525017921929,5.15143125561672,5.15143125561672,5.176843083152341,5.189344764331959,5.189344764331959,5.213931477054294,5.213931477054294,5.226013846696606,5.226013846696606,5.226013846696606,5.237954109735111,5.237954109735111,5.237954109735111,5.237954109735111,5.237954109735111,5.237954109735111,5.237954109735111,5.237954109735111,5.237954109735111,5.237954109735111,5.237954109735111,5.237954109735111,5.237954109735111,5.237954109735111,5.237954109735111,5.237954109735111,5.232001799080519,5.232001799080519,5.232001799080519,5.232001799080519,5.235987755982988]],"response_history":["5"],"rt":66849,"trial_type":"polygon-arrow-question","trial_index":0,"trial_index_global":3,"time_elapsed":617255,"internal_chunk_id":"0-0.3-0"},{"nsides":6,"feedback":"Sorry, that was incorrect. 4 <img src=./images/hexagon_symbol.png style=width:14px;height:14px> 5 = 3 because 5 steps clockwise on the hexagon from 4 brings us to 3. Equivalently, 4 + 5 = 9 and 9 - 6 = 3.","orientation_history":[0,[0,0,0,0,0,0,0,0,0,0,0,0,0,0,0,0,0,0,0,0,0,0,0,0,0,0,0,0,0,0,0,0,0,0,0,0,0,0,0,0,0,0,0,0,0,0,0,0,0,0,0,0,0,0,0,0,0,0,0,0,0,0,0.06128732279293758,0.13945239921500518,0.31021942742588027,0.39956708705208976,0.432888082930337,0.4792125336309436,0.5121916143611236,0.5325567354214988,0.6302836427802176,0.6922198273310217,0.7849323972457541,0.8740675633453175,0.9020758014549171,0.9927524197369904,1.0417210065141216,1.0478255338848612,1.1102745216277388,1.126907968446026,1.1595304236120625,1.2450997418756204,1.3035806585245102,1.3933703069272343,1.4762934881917402,1.5192064806882104,1.579620074661524,1.6358959478344406,1.7141807377638452,1.8183364597295388,1.8723689707421456,1.9205431778367923,1.9428277497640756,1.9470075860931986,1.9798793835401636,1.993549621598996,2.0069847277757207,2.029568595088947,2.0450620530769408,2.0574300683875273,2.069626399506504,2.0721132287861272,2.0840065819364253,2.0898899834010125,2.0898899834010125,2.0921380125852482,2.0921380125852482,2.097916691731676,2.097916691731676,2.1036539950992763,2.1036539950992763,2.1036539950992763,2.1036539950992763,2.1036539950992763,2.1036539950992763,2.1036539950992763,2.1036539950992763,2.1036539950992763,2.1036539950992763,2.1036539950992763,2.1036539950992763,2.1036539950992763,2.1036539950992763,2.1036539950992763,2.1036539950992763,2.1036539950992763,2.1036539950992763,2.1036539950992763,2.1490688085182037,2.2071774549827965,2.2169516525669044,2.2356767899319254,2.2608483036972036,2.275476568399933,2.305437630148725,2.3254349641218757,2.391329273552255,2.452944522337114,2.4687750191674778,2.5066703147160525,2.5368858232500178,2.542989083255884,2.566714507253057,2.5765636112126633,2.6051391165855065,2.663313152362154,2.7021462930399394,2.775194577191715,2.8622378436329146,2.909070783199037,3.0067331894097244,3.0886145621926047,3.1256468586312254,3.2014930147200693,3.2398829232535804,3.2784755653505395,3.3278340182264095,3.359543116612847,3.417878859538115,3.4350406794287927,3.484135018331983,3.532252334407128,3.5394074059869047,3.578077843307674,3.6147519923887295,3.629979241765847,3.659775148716855,3.682670857436284,3.6896405879286047,3.705796175503218,3.7174382361138507,3.7359416617522476,3.77113937682765,3.7777413317586346,3.801279584574016,3.818543648987226,3.824923826131482,3.848648187639789,3.8605321782374484,3.8724262647317023,3.890243338532859,3.8962312909167722,3.908135490475082,3.908135490475082,3.908135490475082,3.9139809059732698,3.9139809059732698,3.9139809059732698,3.9139809059732698,3.9139809059732698,3.9139809059732698,3.9139809059732698,3.9139809059732698,3.9139809059732698,3.9139809059732698,3.9139809059732698,3.9139809059732698,3.9139809059732698,3.9139809059732698,3.9139809059732698,3.9139809059732698,3.9139809059732698,3.9139809059732698,3.9139809059732698,3.9139809059732698,3.9139809059732698,3.9139809059732698,3.9139809059732698,3.9139809059732698,3.9139809059732698,3.9139809059732698,3.9139809059732698,3.9139809059732698,3.9139809059732698,3.9139809059732698,3.9139809059732698,3.9139809059732698,3.9139809059732698,3.9139809059732698,3.9139809059732698,3.9139809059732698,3.9139809059732698,3.9139809059732698,3.9139809059732698,3.9139809059732698,3.9139809059732698,3.9139809059732698,3.9139809059732698,3.9139809059732698,3.9139809059732698,3.9139809059732698,3.9139809059732698,3.9139809059732698,3.9139809059732698,3.9139809059732698,3.9139809059732698,3.9139809059732698,3.9139809059732698,3.9139809059732698,3.9139809059732698,3.9139809059732698,3.9139809059732698,3.9139809059732698,3.9139809059732698,3.9139809059732698,3.9139809059732698,3.9139809059732698,3.9139809059732698,3.9139809059732698,3.9139809059732698,3.9139809059732698,3.9139809059732698,3.9139809059732698,3.9139809059732698,3.9139809059732698,3.9139809059732698,3.9139809059732698,3.9139809059732698,3.9139809059732698,3.9139809059732698,3.9139809059732698,3.9139809059732698,3.9139809059732698,3.9139809059732698,3.9139809059732698,3.9139809059732698,3.9139809059732698,3.9139809059732698,3.9139809059732698,3.9139809059732698,3.9139809059732698,3.9139809059732698,3.9139809059732698,3.9139809059732698,3.9139809059732698,3.9139809059732698,3.9139809059732698,3.9139809059732698,3.9139809059732698,3.9139809059732698,3.9139809059732698,3.9139809059732698,3.9139809059732698,3.9139809059732698,3.9139809059732698,3.9139809059732698,3.9139809059732698,3.9139809059732698,3.9139809059732698,3.9139809059732698,3.9139809059732698,3.9139809059732698,3.9139809059732698,3.9139809059732698,3.9139809059732698,3.9139809059732698,3.9139809059732698,3.9139809059732698,3.9139809059732698,3.9139809059732698,3.9139809059732698,3.9139809059732698,3.9139809059732698,3.9139809059732698,3.9139809059732698,3.9139809059732698,3.9139809059732698,3.9139809059732698,3.9139809059732698,3.9139809059732698,3.9139809059732698,3.9139809059732698,3.9139809059732698,3.9139809059732698,3.9139809059732698,3.9139809059732698,3.9139809059732698,3.9139809059732698,3.9139809059732698,3.9139809059732698,3.9139809059732698,3.9139809059732698,3.9139809059732698,3.9139809059732698,3.9139809059732698,3.9139809059732698,3.9139809059732698,3.9139809059732698,3.9139809059732698,3.9139809059732698,3.9139809059732698,3.9139809059732698,3.9139809059732698,3.9139809059732698,3.8456415821473877,3.782628570161112,3.7446258034784994,3.6705146935226027,3.5301747750693537,3.425337431936069,3.2896261823222455,3.2544165211657927,3.206921843036691,3.1469619780320994,3.087028101334254,2.970583517882719,2.92477495037032,2.9134375676694435,2.8686245404097037,2.871333861609165,2.860390037907972,2.8495071468968214,2.8495071468968214,2.8386872369881364,2.8386872369881364,2.8386872369881364,2.8386872369881364,2.8386872369881364,2.8386872369881364,2.8386872369881364,2.8386872369881364,2.8386872369881364,2.8386872369881364,2.8386872369881364,2.8386872369881364,2.8386872369881364,2.8386872369881364,2.8386872369881364,2.8386872369881364,2.8386872369881364,2.8386872369881364,2.8386872369881364,2.8356438783901528,2.8487132862538513,2.8541247970859382,2.83072515222127,2.793374392264693,2.5558374001807374,1.695631628701457,1.361626301373387,1.1494297570267407,1.0208906864779044,0.9617113144440106,0.7480162175843112,0.677866746057201,0.562850495340274,0.5291048107361842,0.5106530225330692,0.5096599742001149,0.5096599742001149,0.5096599742001149,0.5096599742001149,0.5096599742001149,0.5096599742001149,0.5096599742001149,0.5096599742001149,0.5096599742001149,0.5096599742001149,0.5096599742001149,0.5096599742001149,0.5096599742001149,0.5096599742001149,0.5096599742001149,0.5096599742001149,0.5096599742001149,0.5096599742001149,0.5096599742001149,0.5096599742001149,0.5096599742001149,0.5096599742001149,0.15210601280595992,0.1478714804434802,0.13901874789786928,0.14518009938205867,0.14909397372200894,0.1666360337794115,0.17156210230783442,0.17536181580483778,0.19603932198341667,0.17189914307700693,0.12700921152548483,0.0935954684762923,0.0935954684762923,0.06890912642069269,0.044100321640297535,0.044100321640297535,0.044100321640297535,0.044100321640297535,0.044100321640297535,0.044100321640297535,0.044100321640297535,0.044100321640297535,0.044100321640297535,0.044100321640297535,0.044100321640297535,0.044100321640297535,0.046012365199308736,0.02182353554047256,0.02182353554047256,-0.0037390768832044063,-0.0037390768832044063,0.023241974305499014,0.048024434918674475,0.046012365199308736,0.31996842217773436,0.6057486897174819,0.6985178546258026,0.7546386373269791,0.7750439680135172,0.8252282271458526,0.9260177637164867,0.9631038557069668,1.001815099112949,1.0193084093173566,1.0366374163277734,1.0537941676369225,1.0596309841413838,1.1255299261396414,1.192269812867412,1.2329910687056367,1.2697114543457608,1.2867710344936745,1.297828213614807,1.311540161432565,1.311540161432565,1.311540161432565,1.311540161432565,1.311540161432565,1.311540161432565,1.311540161432565,1.311540161432565,1.311540161432565,1.311540161432565,1.311540161432565,1.311540161432565,1.4255964954543638,1.5943312126327334,1.7235167578741684,1.8903510129598295,2.038757740258459,2.038757740258459,2.0582377356682926,2.0713774324192022,2.0713774324192022,2.0713774324192022,2.086825641613675,2.0994173659090443,2.1139841049937336,2.1200395749321084,2.1397805476938507,2.1397805476938507,2.1397805476938507,2.1397805476938507,2.1397805476938507,2.1397805476938507,2.1397805476938507,2.1496046880401534,2.180724977415125,2.2347750769211303,2.2347750769211303,2.2895529357687185,2.3097294492907365,2.31490903709015,2.3307825067310266,2.341649759126278,2.3920031278976994,2.4673320187260397,2.4981164557398814,2.5522338121757615,2.57041362724874,2.581586346687479,2.603734623126987,2.62900570344554,2.62900570344554,2.6582551770486247,2.684205634392448,2.741246753146504,2.8416656347336233,2.8858918624681533,2.9118220601895644,2.919909969196739,2.928023243139721,2.9361609285110846,2.9361609285110846,2.945684450104697,2.9701029335290987,2.9946915006393335,3.0029206387026472,3.0276918956308827,3.0359732798085575,3.061286932928199,3.069534309149718,3.0862479181494638,3.0862479181494638,3.0862479181494638,3.0944411532113185,3.1026365897694115,3.1026365897694115,3.1026365897694115,3.1026365897694115,3.1026365897694115,3.1026365897694115,3.1026365897694115,3.1026365897694115,3.1026365897694115,3.1026365897694115,3.1026365897694115,3.1026365897694115,3.1026365897694115,3.1026365897694115,3.1026365897694115,3.1026365897694115,3.1026365897694115,3.1026365897694115,3.1026365897694115,3.1026365897694115,3.1026365897694115,3.1026365897694115,3.1026365897694115,3.141592653589793]],"rt":83221,"trial_type":"polygon-arrow-feedback","trial_index":0,"trial_index_global":4,"time_elapsed":700481,"internal_chunk_id":"0-0.3-0"},{"nsides":6,"question":"What is 3 <img src=./images/hexagon_symbol.png style=width:14px;height:14px> 2? Try to solve this problem using the hexagon. <br /><br /> (Remember, to perform <img src=./images/hexagon_symbol.png style=width:14px;height:14px> on the hexagon, you can use the interactive diagram on the right, or perform the operation in your mind. Point the arrow at the first number on the hexagon, and then move the arrow the second number of points  clockwis e around the hexagon.)","response_type":"free","response_choices":[],"correct_response":"5","response":"5","orientation_history":[[0],[0,0,0,0,0,0,0,0,0,0,0,0,0,0,0,0,0,0,0,0,0,0,0,0,0,0,0,0,0,0,0,0,0,0,-6.2528845954300465,-6.174558170146227,-6.174558170146227,-6.1573777301309205,-6.126137896700652,-6.108121828146597,-6.061351732820567,-6.061351732820567,-6.026917272853348,-6.011518338660493,-5.99193793190938,-5.946284396908174,-5.9313601319180895,-5.926085124327106,-5.896326001186232,-5.896326001186232,-5.881697736483502,-5.846615744417012,-5.811429479412323,-5.754782678438556,-5.741091724115387,-5.706113389048001,-5.6276784862339735,-5.6276784862339735,-5.590907378767824,-5.55776394381813,-5.536348517210601,-5.493162714939094,-5.482636787907368,-5.44099420880878,-5.409085497418828,-5.399495556018927,-5.378844447450326,-5.358281793360606,-5.317488110492741,-5.289209461196521,-5.257360008693313,-5.218148405358136,-5.179751919532396,-5.160886233510726,-5.129646400080458,-5.11123762712212,-5.062440074298093,-5.031975461826734,-5.0146973597645506,-4.96818547484834,-4.951863290704461,-4.920138856838296,-4.847985005630342,-4.795684783722553,-4.4549054578569045,-4.285944877032389,-4.250756711263625,-4.221039373439546,-4.217063594906393,-4.173662860387906,-4.076989138527098,-4.055355637281728,-4.036195455659232,-4.023730727284148,-4.017589746233811,-4.017589746233811,-4.017589746233811,-4.011509113603633,-4.000496342979909,-3.9945244456619515,-3.9945244456619515,-3.9886123523822494,-3.9827595764027217,-3.9661348730207777,-3.9604507853943574,-3.9548247209802425,-3.9440873435477255,-3.922478357688013,-3.9118404611124715,-3.8748203452385415,-3.858699052267536,-3.762424751196004,-3.6604434008866225,-3.6168393776783114,-3.5698906341347616,-3.5630694575285644,-3.536269878073646,-3.5125430220594884,-3.4648977420004767,-3.3327661917447404,-3.1637384279346903,-3.133904845750272,-3.1043870510215084,-3.075391801954013,-3.068536092466916,-3.032516582804326,-3.0110156373480983,-2.9683523265933376,-2.9472265529381207,-2.933230813867217,-2.9193113013585403,-2.8969796307088505,-2.8727682015763802,-2.739322260418859,-2.6563639091966165,-2.5003055794970135,-2.387165250332086,-2.35642753609817,-2.2846935986049326,-2.2248190419507576,-2.184963633722102,-2.1514305185431857,-2.13202119151131,-2.1164708018772487,-2.0877223989818265,-2.0782314525163113,-2.056659357723716,-2.0255240288958136,-2.000662195675668,-1.9822734640470028,-1.963277476377753,-1.9322863879109224,-1.903822090576587,-1.890670082000943,-1.8093200670587688,-1.711097982559938,-1.607837336507231,-1.488079803483628,-1.4507690321898927,-1.4052745429129923,-1.3757924711276486,-1.3611658547050212,-1.3305202947572035,-1.278362571727758,-1.2456595796732435,-1.1968753006495545,-1.1874172851724811,-1.1710412560979133,-1.144068515385806,-1.1411390963353405,-1.1278136590991092,-1.114648209565475,-1.1018019693986165,-1.0821302611957808,-1.0557106677894232,-1.0088571300308793,-0.9013594560052258,-0.8368159712985026,-0.6716672938838748,-0.5686059886929495,-0.545081611079377,-0.5134741475016149,-0.4588775031247767,-0.4346092571950688,-0.4030739737044593,-0.39591419151509477,-0.3711868589465448,-0.3711868589465448,-0.34638019699289924,-0.31167629705517097,-0.28869929753612045,-0.25754398067089745,-0.2178288832023334,-0.21164849217911552,-0.1953592062525864,-0.17895574215555676,-0.17071358994716324,-0.16244581140871794,-0.16244581140871794,-0.14583745789603775,-0.1472011260380448,-0.1472011260380448,-0.13879430858357988,-0.1303655007851967,-0.12191581843541766,-0.10495837969214339,-0.08021169102763892,-0.06295132184521535,-0.05430297012055263,-0.04617615526559593,-0.037432705736171634,-0.0286812018508682,-0.019922974658455495,-0.002546911383000783,0.006301029358512622,-6.259185624788559,-6.241492513553419,-6.241492513553419,-6.241492513553419,-6.241492513553419,-6.232651495180665,-6.223421716258514,-6.223421716258514,-6.214514682845501,-6.214514682845501,-6.214514682845501,-6.214514682845501,-6.214514682845501,-6.214514682845501,-6.214514682845501,-6.214514682845501,-6.214514682845501,-6.214514682845501,-6.214514682845501,-6.214514682845501,-6.214514682845501,-6.214514682845501,-6.214514682845501,-6.214514682845501,-6.214514682845501,-6.214514682845501,-6.214514682845501,-6.214514682845501,-6.214514682845501,-6.214514682845501,-6.214514682845501,-6.214514682845501,-6.214514682845501,-6.214514682845501,-6.214514682845501,-6.214514682845501,-6.214514682845501,-6.214514682845501,-6.214514682845501,-6.214514682845501,-6.214514682845501,-6.214514682845501,-6.214514682845501,-6.214514682845501,-6.214514682845501,-6.214514682845501,-6.214514682845501,-6.214514682845501,-6.214514682845501,-6.214514682845501,-6.214514682845501,-6.214514682845501,-6.214514682845501,-6.214514682845501,-6.214514682845501,-6.214514682845501,-6.214514682845501,-6.214514682845501,-6.214514682845501,-6.214514682845501,-6.214514682845501,-6.214514682845501,-6.214514682845501,-6.214514682845501,-6.214514682845501,-6.214514682845501,-6.214514682845501,-6.214514682845501,-6.214514682845501,-6.214514682845501,-6.214514682845501,-6.214514682845501,-6.214514682845501,-6.214514682845501,-6.214514682845501,-6.214514682845501,-6.214514682845501,-6.214514682845501,-6.214514682845501,-6.214514682845501,-6.214514682845501,-6.214514682845501,-6.214514682845501,-6.214514682845501,-6.214514682845501,-6.214514682845501,-6.214514682845501,-6.214514682845501,-6.214514682845501,-6.214514682845501,-6.214514682845501,-6.214514682845501,-6.214514682845501,-6.214514682845501,-6.214514682845501,-6.214514682845501,-6.214514682845501,-6.214514682845501,-6.214514682845501,-6.214514682845501,-6.214514682845501,-6.214514682845501,-6.214514682845501,-6.214514682845501,-6.214514682845501,-6.214514682845501,-6.214514682845501,-6.214514682845501,-6.214514682845501,-6.214514682845501,-6.214514682845501,-6.214514682845501,-6.214514682845501,-6.214514682845501,-6.214514682845501,-6.214514682845501,-6.214514682845501,-6.214514682845501,-6.214514682845501,-6.214514682845501,-6.214514682845501,-6.214514682845501,-6.214514682845501,-6.214514682845501,-6.214514682845501,-6.214514682845501,-6.214514682845501,-6.214514682845501,-6.214514682845501,-6.214514682845501,-6.214514682845501,-6.214514682845501,-6.214514682845501,-6.214514682845501,-6.214514682845501,-6.214514682845501,-6.214514682845501,-6.214514682845501,-6.214514682845501,-6.214514682845501,-6.214514682845501,-6.214514682845501,-6.214514682845501,-6.214514682845501,-6.214514682845501,-6.214514682845501,-6.214514682845501,-6.214514682845501,-6.214514682845501,-6.214514682845501,-6.214514682845501,-6.214514682845501,-6.214514682845501,-6.214514682845501,-6.214514682845501,-6.214514682845501,-6.214514682845501,-6.214514682845501,-6.214514682845501,-6.214514682845501,-6.214514682845501,-6.214514682845501,-6.214514682845501,-6.214514682845501,-6.214514682845501,-6.214514682845501,-6.214514682845501,-6.214514682845501,-6.214514682845501,-6.214514682845501,-6.214514682845501,-6.214514682845501,-6.214514682845501,-6.214514682845501,-6.214514682845501,-6.214514682845501,-6.214514682845501,-6.214514682845501,-6.214514682845501,-6.214514682845501,-6.214514682845501,-6.214514682845501,-6.214514682845501,-6.214514682845501,-6.214514682845501,-6.214514682845501,-6.214514682845501,-6.214514682845501,-6.214514682845501,-6.214514682845501,-6.214514682845501,-6.214514682845501,-6.214514682845501,-6.214514682845501,-6.214514682845501,-6.214514682845501,-6.214514682845501,-6.214514682845501,-6.214514682845501,-6.214514682845501,-6.214514682845501,-6.214514682845501,-6.214514682845501,-6.214514682845501,-6.214514682845501,-6.214514682845501,-6.214514682845501,-6.214514682845501,-6.214514682845501,-6.214514682845501,-6.214514682845501,-6.214514682845501,-6.214514682845501,-6.214514682845501,-6.214514682845501,-6.214514682845501,-6.214514682845501,-6.214514682845501,-6.214514682845501,-6.214514682845501,-6.214514682845501,-6.214514682845501,-6.214514682845501,-6.214514682845501,-6.214514682845501,-6.214514682845501,-6.214514682845501,-6.214514682845501,-6.214514682845501,-6.214514682845501,-6.214514682845501,-6.214514682845501,-6.214514682845501,-6.214514682845501,-6.214514682845501,-6.214514682845501,-6.214514682845501,-6.214514682845501,-6.214514682845501,-6.214514682845501,-6.214514682845501,-6.214514682845501,-6.214514682845501,-6.214514682845501,-6.214514682845501,-6.214514682845501,-6.214514682845501,-6.214514682845501,-6.214514682845501,-6.214514682845501,-6.214514682845501,-6.214514682845501,-6.214514682845501,-6.214514682845501,-6.214514682845501,-6.214514682845501,-6.214514682845501,-6.214514682845501,-6.214514682845501,-6.214514682845501,-6.214514682845501,-6.214514682845501,-6.214514682845501,-6.214514682845501,-6.214514682845501,-6.214514682845501,-6.214514682845501,-6.214514682845501,-6.214514682845501,-6.214514682845501,-6.214514682845501,-6.214514682845501,-6.214514682845501,-6.214514682845501,-6.214514682845501,-6.214514682845501,-6.214514682845501,-6.214514682845501,-6.214514682845501,-6.214514682845501,-6.214514682845501,-6.214514682845501,-6.214514682845501,-6.214514682845501,-6.214514682845501,-6.214514682845501,-6.214514682845501,-6.214514682845501,-6.214514682845501,-6.214514682845501,-6.214514682845501,-6.214514682845501,-6.214514682845501,-6.214514682845501,-6.214514682845501,-6.214514682845501,-6.214514682845501,-6.214514682845501,-6.214514682845501,-6.214514682845501,-6.214514682845501,-6.214514682845501,-6.214514682845501,-6.214514682845501,-6.214514682845501,-6.214514682845501,-6.214514682845501,-6.214514682845501,-6.214514682845501,-6.214514682845501,-6.214514682845501,-6.214514682845501,-6.214514682845501,-6.214514682845501,-6.214514682845501,-6.214514682845501,-6.214514682845501,-6.214514682845501,-6.214514682845501,-6.214514682845501,-6.214514682845501,-6.214514682845501,-6.214514682845501,-6.214514682845501,-6.214514682845501,-6.214514682845501,-6.214514682845501,-6.214514682845501,-6.214514682845501,-6.214514682845501,-6.214514682845501,-6.214514682845501,-6.214514682845501,-6.214514682845501,-6.214514682845501,-6.214514682845501,-6.214514682845501,-6.214514682845501,-6.214514682845501,-6.214514682845501,-6.214514682845501,-6.214514682845501,-6.214514682845501,-6.214514682845501,-6.214514682845501,-6.214514682845501,-6.214514682845501,-6.214514682845501,-6.214514682845501,-6.214514682845501,-6.214514682845501,-6.214514682845501,-6.214514682845501,-6.214514682845501,-6.214514682845501,-6.214514682845501,-6.214514682845501,-6.214514682845501,-6.214514682845501,-6.214514682845501,-6.214514682845501,-6.214514682845501,-6.214514682845501,-6.214514682845501,-6.214514682845501,-6.214514682845501,-6.214514682845501,-6.214514682845501,-6.214514682845501,-6.214514682845501,-6.214514682845501,-6.214514682845501,-6.214514682845501,-6.214514682845501,-6.214514682845501,-6.214514682845501,-6.214514682845501,-6.214514682845501,-6.214514682845501,-6.214514682845501,-6.214514682845501,-6.214514682845501,-6.214514682845501,-6.214514682845501,-6.214514682845501,-6.214514682845501,-6.214514682845501,-6.214514682845501,-6.214514682845501,-6.214514682845501,-6.214514682845501,-6.214514682845501,-6.214514682845501,-6.214514682845501,-6.214514682845501,-6.214514682845501,-6.214514682845501,-6.214514682845501,-6.214514682845501,-6.214514682845501,-6.214514682845501,-6.214514682845501,-6.214514682845501,-6.214514682845501,-6.214514682845501,-6.214514682845501,-6.214514682845501,-6.214514682845501,-6.214514682845501,-6.214514682845501,-6.214514682845501,-6.214514682845501,-6.214514682845501,-6.214514682845501,-6.214514682845501,-6.214514682845501,-6.214514682845501,-6.214514682845501,-6.214514682845501,-6.214514682845501,-6.214514682845501,-6.214514682845501,-6.214514682845501,-6.214514682845501,-6.214514682845501,-6.214514682845501,-6.214514682845501,-6.214514682845501,-6.214514682845501,-6.214514682845501,-6.214514682845501,-6.214514682845501,-6.214514682845501,-6.214514682845501,-6.214514682845501,-6.214514682845501,-6.214514682845501,-6.214514682845501,-6.214514682845501,-6.214514682845501,-6.214514682845501,-6.214514682845501,-6.214514682845501,-6.214514682845501,-6.214514682845501,-6.214514682845501,-6.214514682845501,-6.214514682845501,-6.214514682845501,-6.214514682845501,-6.214514682845501,-6.214514682845501,-6.214514682845501,-6.214514682845501,-6.214514682845501,-6.214514682845501,-6.214514682845501,-6.214514682845501,-6.214514682845501,-6.214514682845501,-6.214514682845501,-6.214514682845501,-6.214514682845501,-6.214514682845501,-6.214514682845501,-6.214514682845501,-6.214514682845501,-6.214514682845501,-6.214514682845501,-6.214514682845501,-6.214514682845501,-6.214514682845501,-6.214514682845501,-6.214514682845501,-6.214514682845501,-6.214514682845501,-6.214514682845501,-6.214514682845501,-6.214514682845501,-6.214514682845501,-6.214514682845501,-6.214514682845501,-6.214514682845501,-6.214514682845501,-6.174847689535937,-6.14002589263162,-6.128939009822745,-6.09797632971276,-6.096274799976613,-6.070639391454936,-6.036318110114365,-6.000775853148905,-5.882541084375487,-5.7223798967778245,-5.6843991322276555,-5.64401189832806,-5.5442869585466275,-5.469650504987196,-4.8586137349306115,-4.720490247320383,-4.627584050781351,-4.490914730480203,-4.382480963118611,-3.7519273379542524,-3.657472402559206,-3.5730461027208316,-3.483891964790989,-3.421883134858743,-3.2878174081357145,-3.2672944206200865,-3.258030439172944,-3.2490131728345366,-3.2339399717406776,-3.2339399717406776,-3.2339399717406776,-3.2339399717406776,-3.219033927522574,-3.211947591393228,-3.211947591393228,-3.1972457302849318,-3.1972457302849318,-3.19018561024771,-3.19018561024771,-3.183119121347058,-3.183119121347058,-3.176046961580478,-3.176046961580478,-3.1689698323348074,-3.1689698323348074,-3.1689698323348074,-3.1689698323348074,-3.1689698323348074,-3.1689698323348074,-3.1689698323348074,-3.1689698323348074,-3.1689698323348074,-3.1689698323348074,-3.1689698323348074,-3.1689698323348074,-3.1689698323348074,-3.1689698323348074,-3.1689698323348074,-3.1689698323348074,-3.1689698323348074,-3.1689698323348074,-3.1689698323348074,-3.1689698323348074,-3.1689698323348074,-3.1689698323348074,-3.1689698323348074,-3.1689698323348074,-3.1689698323348074,-3.1689698323348074,-3.1689698323348074,-3.1689698323348074,-3.1689698323348074,-3.1689698323348074,-3.1689698323348074,-3.1689698323348074,-3.1689698323348074,-3.1689698323348074,-3.1689698323348074,-3.1689698323348074,-3.1689698323348074,-3.1689698323348074,-3.1689698323348074,-3.1689698323348074,-3.1689698323348074,-3.1689698323348074,-3.1689698323348074,-3.1689698323348074,-3.1689698323348074,-3.1689698323348074,-3.1689698323348074,-3.1689698323348074,-3.1689698323348074,-3.1689698323348074,-3.1689698323348074,-3.1689698323348074,-3.1689698323348074,-3.1689698323348074,-3.1689698323348074,-3.1689698323348074,-3.1689698323348074,-3.1689698323348074,-3.1689698323348074,-3.1689698323348074,-3.1689698323348074,-3.1689698323348074,-3.1689698323348074,-3.1689698323348074,-3.1689698323348074,-3.1689698323348074,-3.1689698323348074,-3.1689698323348074,-3.141478758373885,-3.111058895934428,-3.0291890994634576,-2.9694125217432914,-2.846994533588651,-2.8073727020426498,-2.7909939699455153,-2.631131066638603,-2.5445371795751375,-2.471447442206708,-2.422828514935571,-2.3910025300395175,-2.2456820874151653,-1.7757076735536916,-1.593128407611788,-1.495477719765117,-1.4595572554027605,-1.3469642085851001,-1.258801297543724,-1.1450885228782761,-1.0779805885573772,-1.059602292553949,-1.050547463861129,-1.0239219036613214,-1.0152264706495426,-0.9813411407454247,-0.956862113954144,-0.948878814036628,-0.9409830189979616,-0.9331742663730509,-0.9254520613755766,-0.9254520613755766,-0.9254520613755766,-0.9254520613755766,-0.9178158788366737,-0.9178158788366737,-0.9178158788366737,-0.9178158788366737,-0.9178158788366737,-0.9178158788366737,-0.9178158788366737,-0.9178158788366737,5.235987755982988]],"response_history":["5"],"rt":22392,"trial_type":"polygon-arrow-question","trial_index":0,"trial_index_global":5,"time_elapsed":722879,"internal_chunk_id":"0-0.3-0"},{"nsides":6,"feedback":"Correct! 3 <img src=./images/hexagon_symbol.png style=width:14px;height:14px> 2 = 5 because 2 steps clockwise on the hexagon from 3 brings us to 5. Equivalently, 3 + 2 = 5 and 5 is less than 6.","orientation_history":[0],"rt":4880,"trial_type":"polygon-arrow-feedback","trial_index":0,"trial_index_global":6,"time_elapsed":727763,"internal_chunk_id":"0-0.3-0"},{"nsides":6,"question":"What is 1 <img src=./images/hexagon_symbol.png style=width:14px;height:14px> 5? Try to solve this probem using the arithmetic technique. <br /><br /> (Remember, to perform <img src=./images/hexagon_symbol.png style=width:14px;height:14px> by arithmetic, you start with the first number, and then add the second one to it. If the sum is smaller than 6, tha t's your  result. If the sum is 6 or bigger, you subtract 6 to get your result.)","response_type":"free","response_choices":[],"correct_response":"0","response":"0","orientation_history":[[0],[0,0,0,0,0,0,0,0,0,0,0,0,0,0,0,0,0,0,0,0,0,0,0,0,0,0,0,0,0,0,0,0,0,0,0,0,0,0,0,0,0,0,0,0,0,0,0,0,0,0,0,0,0,0,0,0,0,0.033013100572383935,0.08354101864752561,0.15176828940673825,0.2043661275230353,0.20810711726545983,0.250124415307289,0.28886471297076843,0.32809104913883136,0.4075412880338798,0.4633916581489599,0.5573128923111926,0.6342937796998885,0.6720173313022463,0.769270529553812,0.769270529553812,0.769270529553812,0.793075555738882,0.8053993800665875,0.851438051915512,0.9574920348585828,1.0030137104227135,1.1267201966297782,1.2085327293818997,1.242626571388727,1.2805012418316015,1.3025727122831863,1.3684458525401189,1.416662669293741,1.4455152300423826,1.5546686929512603,1.6947704173478906,1.7322648602347481,1.7786923399891839,1.7786923399891839,1.811377023384646,1.8505947314154687,1.8800293399679024,1.9226496290962447,2.0371819879737374,2.0597672000102576,2.0776074565224323,2.086392760210066,2.0950881932218444,2.120636295999026,2.1289735231259623,2.153452549917243,2.1905071164750054,2.2132345753749867,2.24233994898999,2.2494069691479632,2.2563917216813123,2.290108460626766,2.3025844196570473,2.321664026114396,2.321664026114396,2.3278723389004568,2.346127388207019,2.3522613737969604,2.370732087275657,2.402485666344666,2.4158706937098477,2.5647780247633514,2.8471653607410454,2.9119045862656687,2.9234398633425647,2.946671964943236,2.9701007658946237,3.0055610343811328,3.041326779214986,3.0893361692333814,3.1375126296003426,3.149556743171078,3.1856332709011665,3.209603260277328,3.209603260277328,3.233476744446203,3.245369005111181,3.2707750303818592,3.3228605795960378,3.3348504126996525,3.358644820392973,3.443263025556049,3.482773702754257,3.5776188820319326,3.6526109633325663,3.6526109633325663,3.6952214732291355,3.7426564112865193,3.7899604188409137,3.873843067269675,3.9290429982165835,4.0015230703443505,4.035218177690367,4.115179047743727,4.1939589684431,4.232613737540247,4.270638878201423,4.302392735804692,4.3247434913943446,4.348494358684038,4.374510792144411,4.473814081115112,4.544496191213351,4.5805021288202425,4.6732768890996015,4.764337804799053,4.786921233741799,4.89581673024634,4.917308409216072,4.977493548459348,5.018011900937696,5.03787683718886,5.090254381813291,5.11864798298838,5.12795636385738,5.15990895554186,5.1689584822556425,5.186808295367962,5.195608068221183,5.20432417078877,5.256948341523859,5.327951980880023,5.434076406661518,5.49517220095183,5.5292426132154855,5.542807672587802,5.583348361701578,5.611951669667595,5.700328455812444,5.803410064335144,5.844203747203009,5.888226336533043,5.903078716826306,5.934134399500568,5.96728160323597,5.99236376793484,6.032517044470218,6.061315061937915,6.071320486758483,6.087962898739308,6.106069859565142,6.122768278798207,6.131148571115699,6.131148571115699,6.147965788086784,6.156400452162054,6.1648509552286965,6.1648509552286965,6.1648509552286965,6.173316131791702,6.173316131791702,6.173316131791702,6.1817948038954205,6.1817948038954205,6.1817948038954205,6.1817948038954205,6.1817948038954205,6.1817948038954205,6.1817948038954205,6.1817948038954205,6.1817948038954205,6.1817948038954205,6.1817948038954205,6.1817948038954205,6.1817948038954205,6.1817948038954205,6.1817948038954205,6.1817948038954205,6.1817948038954205,6.1817948038954205,6.1817948038954205,6.1817948038954205,6.1817948038954205,6.1817948038954205,6.1817948038954205,6.1817948038954205,6.1817948038954205,6.1817948038954205,6.1817948038954205,6.1817948038954205,6.190285782066172,6.190285782066172,6.198201184034906,6.198201184034906,6.198201184034906,6.198201184034906,6.198201184034906,6.198201184034906,6.198201184034906,6.198201184034906,6.198201184034906,6.198201184034906,6.198201184034906,6.198201184034906,6.198201184034906,6.198201184034906,6.198201184034906,6.198201184034906,6.198201184034906,6.198201184034906,6.198201184034906,6.198201184034906,6.198201184034906,6.198201184034906,6.198201184034906,6.198201184034906,6.198201184034906,6.198201184034906,6.198201184034906,6.198201184034906,6.198201184034906,6.198201184034906,6.198201184034906,6.198201184034906,6.198201184034906,6.198201184034906,6.198201184034906,6.198201184034906,6.198201184034906,6.198201184034906,6.198201184034906,6.198201184034906,6.198201184034906,6.198201184034906,6.198201184034906,6.198201184034906,6.198201184034906,6.198201184034906,6.198201184034906,6.198201184034906,6.198201184034906,6.198201184034906,6.198201184034906,6.198201184034906,6.198201184034906,6.198201184034906,6.198201184034906,6.198201184034906,6.198201184034906,6.198201184034906,6.198201184034906,6.198201184034906,6.198201184034906,6.198201184034906,6.198201184034906,6.198201184034906,6.198201184034906,6.198201184034906,6.198201184034906,6.198201184034906,6.198201184034906,6.198201184034906,6.198201184034906,6.198201184034906,6.198201184034906,6.198201184034906,6.198201184034906,6.198201184034906,6.198201184034906,6.198201184034906,6.198201184034906,6.198201184034906,6.198201184034906,6.198201184034906,6.198201184034906,6.198201184034906,6.198201184034906,6.198201184034906,6.198201184034906,6.198201184034906,6.198201184034906,6.198201184034906,6.198201184034906,6.198201184034906,6.198201184034906,6.198201184034906,6.198201184034906,6.198201184034906,6.198201184034906,6.198201184034906,6.198201184034906,6.198201184034906,6.198201184034906,6.198201184034906,6.198201184034906,6.198201184034906,6.198201184034906,6.198201184034906,6.198201184034906,6.206263117461161,6.231674217211799,6.240515235584553,0.0020521812293419206,0.04800448115779532,0.0770596279252429,0.1151878051394517,0.15525149254587145,0.16628777323887456,0.19630438666510575,0.21716931769299097,0.2568810692430743,0.2935753106988199,0.3056229205530059,0.32689630657706714,0.366154940335113,0.3875062914696292,0.42624658913310864,0.4348087953937436,0.45172163110404173,0.4727247204841116,0.4727247204841116,0.49370559481604737,0.5112632876898568,0.5275176616895689,0.5718749697039313,0.6051959655821785,0.6984215700092022,0.730827939532624,0.7374341561266974,0.7629011889351488,0.7883764846722529,0.8007067109100864,0.8132672764195142,0.8198602383231967,0.8518846133624579,0.8771305552258958,0.8882034238668012,0.9076214997309373,0.9374773014108981,0.942516196006177,0.9618235122456462,0.9690991746268022,0.9859408105341245,0.9859408105341245,0.9859408105341245,0.9905849719016033,0.9979059228339611,0.9979059228339611,0.9979059228339611,0.9979059228339611,0.9979059228339611,0.9979059228339611,0.9979059228339611,0.9979059228339611,0.9979059228339611,0.9979059228339611,0.9979059228339611,0.9979059228339611,0.9979059228339611,0.9979059228339611,0.9979059228339611,0.9979059228339611,0.9979059228339611,0.9979059228339611,0.9979059228339611,0.9979059228339611,0.9979059228339611,0.9979059228339611,0.9979059228339611,0.9979059228339611,0.9979059228339611,0.9979059228339611,0.9979059228339611,0.9979059228339611,0.9979059228339611,0.9979059228339611,0.9979059228339611,0.9979059228339611,0.9979059228339611,0.9979059228339611,0.9979059228339611,0.9979059228339611,0.9979059228339611,0.9979059228339611,0.9979059228339611,0.9979059228339611,0.9979059228339611,0.9979059228339611,0.9979059228339611,0.9979059228339611,0.9979059228339611,0.9979059228339611,0.9979059228339611,0.9979059228339611,0.9979059228339611,0.9979059228339611,0.9979059228339611,0.9979059228339611,0.9979059228339611,0.9979059228339611,1.0052942081797094,1.0127499434291762,1.027864085112204,1.0432486942854229,1.058903617846819,1.0828911817705102,1.0910210839504542,1.1242039201169527,1.1671448871709815,1.1936633895287976,1.2298600441121588,1.304893903530012,1.3711887358015193,1.4113286379056584,1.4315827332562545,1.4611919117926708,1.5125882855093697,1.533619170814214,1.6289995801189256,1.764308538825473,1.8172777709683063,1.8698833927019713,1.8928112216559079,1.9635765219021857,2.0499799240276806,2.0725616750216513,2.0985011492533827,2.115355687934066,2.120636295999026,2.120636295999026,2.126006172784887,2.134384193394939,2.134384193394939,2.134384193394939,2.134384193394939,2.134384193394939,2.134384193394939,2.134384193394939,2.134384193394939,2.134384193394939,2.134384193394939,2.134384193394939,2.134384193394939,2.134384193394939,2.134384193394939,2.134384193394939,2.134384193394939,2.134384193394939,2.134384193394939,2.134384193394939,2.3097730964299337,2.459495782367047,2.5309900146712936,2.593142508513311,2.6195146204750808,2.7130545781487694,2.7747370714979533,2.810960715329412,2.8693136371805537,2.9622247369613195,2.9868252826119988,3.0223834112234567,3.0451782044631406,3.0566085304451125,3.0795203639380375,3.0795203639380375,3.091387308159149,3.091387308159149,3.091387308159149,3.114101872481866,3.1368281670104476,3.1828731343829566,3.264104756880315,3.327490176149749,3.5510874880857886,3.6722538606354043,3.768966128539441,3.902167750131827,3.9550821275392583,4.084534381485179,4.168186898114694,4.211226624688518,4.25892345479317,4.3157549694286885,4.356330977071433,4.421072097411882,4.442995580310301,4.571906351994292,4.606614630219568,4.6177712439037215,4.640762841295336,4.662940350662806,4.674042781214334,4.787957502800916,4.857636456961744,5.095322295117187,5.337734060550286,5.367867502794794,5.412326376250293,5.441141157460155,5.461528001808099,5.481659509938502,5.4949920532326475,5.501524446189666,5.507969227191424,5.559424449541234,6.0696621134860695,6.22707898621266,6.22707898621266,6.22707898621266,6.22707898621266,6.22707898621266,6.22707898621266,6.22707898621266,6.22707898621266,6.22707898621266,6.22707898621266,6.22707898621266,6.22707898621266,6.22707898621266,6.22707898621266,6.22707898621266,6.22707898621266,6.22707898621266,6.22707898621266,6.22707898621266,6.22707898621266,6.22707898621266,6.22707898621266,6.22707898621266,6.22707898621266,6.22707898621266,6.22707898621266,6.22707898621266,6.22707898621266,6.22707898621266,6.22707898621266,6.22707898621266,6.22707898621266,6.22707898621266,6.22707898621266,6.22707898621266,6.22707898621266,6.22707898621266,6.22707898621266,6.22707898621266,5.888148738954243,4.896781896218467,4.896781896218467,4.896781896218467,4.896781896218467,4.896781896218467,4.896781896218467,4.896781896218467,4.896781896218467,4.896781896218467,4.896781896218467,4.896781896218467,4.896781896218467,4.896781896218467,4.896781896218467,4.896781896218467,4.896781896218467,4.896781896218467,4.896781896218467,4.896781896218467,4.896781896218467,4.896781896218467,4.896781896218467,4.896781896218467,4.896781896218467,4.896781896218467,4.896781896218467,4.896781896218467,4.896781896218467,4.896781896218467,4.896781896218467,4.896781896218467,4.896781896218467,4.896781896218467,4.896781896218467,4.896781896218467,4.896781896218467,4.896781896218467,4.896781896218467,4.896781896218467,4.896781896218467,4.896781896218467,4.896781896218467,4.896781896218467,4.896781896218467,4.896781896218467,4.896781896218467,4.896781896218467,4.896781896218467,4.896781896218467,4.896781896218467,4.896781896218467,4.896781896218467,4.896781896218467,4.896781896218467,4.896781896218467,4.896781896218467,4.896781896218467,4.896781896218467,4.896781896218467,4.896781896218467,4.896781896218467,4.896781896218467,4.896781896218467,4.896781896218467,4.896781896218467,4.896781896218467,4.896781896218467,4.896781896218467,4.896781896218467,4.896781896218467,4.896781896218467,4.896781896218467,4.896781896218467,4.896781896218467,4.896781896218467,4.896781896218467,4.896781896218467,4.896781896218467,4.896781896218467,4.896781896218467,4.896781896218467,4.896781896218467,4.896781896218467,4.896781896218467,4.896781896218467,4.896781896218467,4.896781896218467,4.896781896218467,4.896781896218467,4.896781896218467,4.896781896218467,4.896781896218467,4.896781896218467,4.896781896218467,4.896781896218467,4.896781896218467,4.896781896218467,4.896781896218467,4.896781896218467,4.896781896218467,4.896781896218467,4.896781896218467,4.896781896218467,4.896781896218467,4.896781896218467,4.896781896218467,4.896781896218467,4.896781896218467,4.896781896218467,4.896781896218467,4.896781896218467,4.896781896218467,4.896781896218467,4.896781896218467,4.896781896218467,4.896781896218467,4.896781896218467,4.896781896218467,4.896781896218467,4.896781896218467,4.896781896218467,4.896781896218467,4.896781896218467,4.896781896218467,4.896781896218467,4.896781896218467,4.896781896218467,4.896781896218467,4.896781896218467,4.896781896218467,4.896781896218467,4.896781896218467,4.896781896218467,4.896781896218467,4.896781896218467,4.896781896218467,4.896781896218467,4.896781896218467,4.896781896218467,4.896781896218467,4.896781896218467,4.896781896218467,4.896781896218467,4.896781896218467,4.896781896218467,4.896781896218467,4.896781896218467,4.896781896218467,4.896781896218467,4.896781896218467,4.896781896218467,4.896781896218467,4.896781896218467,4.896781896218467,4.896781896218467,4.896781896218467,4.896781896218467,4.896781896218467,4.896781896218467,4.896781896218467,4.896781896218467,4.896781896218467,4.896781896218467,4.896781896218467,4.896781896218467,4.896781896218467,4.896781896218467,4.896781896218467,4.896781896218467,4.896781896218467,4.896781896218467,4.896781896218467,4.896781896218467,4.896781896218467,4.896781896218467,4.896781896218467,4.896781896218467,4.896781896218467,4.896781896218467,4.896781896218467,4.896781896218467,4.896781896218467,4.896781896218467,4.896781896218467,4.896781896218467,4.896781896218467,4.896781896218467,4.896781896218467,4.896781896218467,4.896781896218467,4.896781896218467,4.896781896218467,4.896781896218467,4.896781896218467,4.896781896218467,4.896781896218467,4.896781896218467,4.896781896218467,4.896781896218467,4.896781896218467,4.896781896218467,4.896781896218467,4.896781896218467,4.896781896218467,4.896781896218467,4.896781896218467,4.896781896218467,4.896781896218467,4.896781896218467,4.896781896218467,4.896781896218467,4.896781896218467,4.896781896218467,4.896781896218467,4.896781896218467,4.896781896218467,4.896781896218467,4.896781896218467,4.896781896218467,4.896781896218467,4.896781896218467,4.896781896218467,4.896781896218467,4.896781896218467,4.896781896218467,4.896781896218467,4.896781896218467,4.896781896218467,4.896781896218467,4.896781896218467,4.896781896218467,4.896781896218467,4.896781896218467,4.896781896218467,4.896781896218467,4.896781896218467,4.896781896218467,4.896781896218467,4.896781896218467,4.896781896218467,4.896781896218467,4.896781896218467,4.896781896218467,4.896781896218467,4.896781896218467,4.896781896218467,4.896781896218467,4.896781896218467,4.896781896218467,4.896781896218467,4.896781896218467,4.896781896218467,4.896781896218467,4.896781896218467,4.896781896218467,4.896781896218467,4.896781896218467,4.896781896218467,4.896781896218467,4.896781896218467,4.896781896218467,4.896781896218467,4.896781896218467,4.896781896218467,4.896781896218467,4.896781896218467,4.896781896218467,4.896781896218467,4.896781896218467,4.896781896218467,4.896781896218467,4.896781896218467,4.896781896218467,4.896781896218467,4.896781896218467,4.896781896218467,4.896781896218467,4.896781896218467,4.896781896218467,4.896781896218467,4.896781896218467,4.896781896218467,4.896781896218467,4.896781896218467,4.896781896218467,4.896781896218467,4.896781896218467,4.896781896218467,4.896781896218467,4.896781896218467,4.896781896218467,4.896781896218467,4.896781896218467,4.896781896218467,4.896781896218467,4.896781896218467,4.896781896218467,4.896781896218467,4.896781896218467,4.896781896218467,4.896781896218467,4.896781896218467,4.896781896218467,4.896781896218467,4.896781896218467,4.896781896218467,4.896781896218467,4.896781896218467,4.896781896218467,4.896781896218467,4.896781896218467,4.896781896218467,4.896781896218467,4.896781896218467,4.896781896218467,4.896781896218467,4.896781896218467,4.896781896218467,4.896781896218467,4.896781896218467,4.896781896218467,4.896781896218467,4.896781896218467,4.896781896218467,4.896781896218467,4.896781896218467,4.896781896218467,4.896781896218467,4.896781896218467,4.896781896218467,4.896781896218467,4.896781896218467,4.896781896218467,4.896781896218467,4.896781896218467,4.896781896218467,4.896781896218467,4.896781896218467,4.896781896218467,4.896781896218467,4.896781896218467,4.896781896218467,4.896781896218467,4.896781896218467,4.896781896218467,4.896781896218467,4.896781896218467,4.896781896218467,4.896781896218467,4.896781896218467,4.896781896218467,4.896781896218467,4.896781896218467,4.896781896218467,4.896781896218467,4.896781896218467,4.896781896218467,4.896781896218467,4.896781896218467,4.896781896218467,4.896781896218467,4.896781896218467,4.896781896218467,4.896781896218467,4.896781896218467,4.896781896218467,4.896781896218467,4.896781896218467,4.896781896218467,4.896781896218467,4.896781896218467,4.896781896218467,4.896781896218467,4.896781896218467,4.896781896218467,4.896781896218467,4.896781896218467,4.896781896218467,4.896781896218467,4.896781896218467,4.896781896218467,4.896781896218467,4.896781896218467,4.896781896218467,4.896781896218467,4.896781896218467,4.896781896218467,4.896781896218467,4.896781896218467,4.896781896218467,4.896781896218467,4.896781896218467,4.896781896218467,4.896781896218467,4.896781896218467,4.896781896218467,4.896781896218467,4.896781896218467,4.896781896218467,4.896781896218467,4.896781896218467,4.896781896218467,4.896781896218467,4.896781896218467,4.896781896218467,4.896781896218467,4.896781896218467,4.896781896218467,4.896781896218467,4.896781896218467,4.896781896218467,4.896781896218467,4.896781896218467,4.896781896218467,4.896781896218467,4.896781896218467,4.896781896218467,4.896781896218467,4.896781896218467,4.896781896218467,4.896781896218467,4.896781896218467,4.896781896218467,4.896781896218467,4.896781896218467,4.896781896218467,4.896781896218467,4.896781896218467,4.896781896218467,4.896781896218467,4.896781896218467,4.896781896218467,4.896781896218467,4.896781896218467,4.896781896218467,4.896781896218467,4.896781896218467,4.896781896218467,4.896781896218467,4.896781896218467,4.896781896218467,4.896781896218467,4.896781896218467,4.896781896218467,4.896781896218467,4.896781896218467,4.896781896218467,4.896781896218467,4.896781896218467,4.896781896218467,4.896781896218467,4.896781896218467,4.896781896218467,4.896781896218467,4.896781896218467,4.896781896218467,4.896781896218467,4.896781896218467,4.896781896218467,4.896781896218467,4.896781896218467,4.896781896218467,4.896781896218467,4.896781896218467,4.896781896218467,4.896781896218467,4.896781896218467,4.896781896218467,4.896781896218467,4.896781896218467,4.896781896218467,4.896781896218467,4.896781896218467,4.896781896218467,4.896781896218467,4.896781896218467,4.896781896218467,4.896781896218467,4.896781896218467,4.896781896218467,4.896781896218467,4.896781896218467,4.896781896218467,4.896781896218467,4.896781896218467,4.896781896218467,4.896781896218467,4.896781896218467,4.896781896218467,4.896781896218467,4.896781896218467,4.896781896218467,4.896781896218467,4.896781896218467,4.896781896218467,4.896781896218467,4.896781896218467,4.896781896218467,4.896781896218467,4.896781896218467,4.896781896218467,4.896781896218467,4.896781896218467,4.896781896218467,4.896781896218467,4.896781896218467,4.896781896218467,4.896781896218467,4.896781896218467,4.896781896218467,4.896781896218467,4.896781896218467,4.896781896218467,4.896781896218467,4.896781896218467,4.896781896218467,4.896781896218467,4.896781896218467,4.896781896218467,4.896781896218467,4.896781896218467,4.896781896218467,4.896781896218467,4.896781896218467,4.896781896218467,4.896781896218467,4.896781896218467,4.896781896218467,4.896781896218467,4.896781896218467,4.896781896218467,4.896781896218467,4.896781896218467,4.896781896218467,4.896781896218467,4.896781896218467,4.896781896218467,4.896781896218467,4.896781896218467,4.896781896218467,4.896781896218467,4.896781896218467,4.896781896218467,4.896781896218467,4.896781896218467,4.896781896218467,4.896781896218467,4.896781896218467,4.896781896218467,4.896781896218467,4.896781896218467,4.896781896218467,4.896781896218467,4.896781896218467,4.896781896218467,4.896781896218467,4.896781896218467,4.896781896218467,4.896781896218467,4.896781896218467,4.896781896218467,4.896781896218467,4.896781896218467,4.896781896218467,4.896781896218467,4.896781896218467,4.896781896218467,4.896781896218467,4.896781896218467,4.896781896218467,4.896781896218467,4.896781896218467,4.896781896218467,4.896781896218467,4.896781896218467,4.896781896218467,4.896781896218467,4.896781896218467,4.896781896218467,4.896781896218467,4.896781896218467,4.896781896218467,4.896781896218467,4.896781896218467,4.896781896218467,4.896781896218467,4.896781896218467,4.896781896218467,4.896781896218467,4.896781896218467,4.896781896218467,4.896781896218467,4.896781896218467,4.896781896218467,4.896781896218467,4.896781896218467,4.896781896218467,4.896781896218467,4.896781896218467,4.896781896218467,4.896781896218467,4.896781896218467,4.896781896218467,4.896781896218467,4.896781896218467,4.896781896218467,4.896781896218467,4.896781896218467,4.896781896218467,4.896781896218467,4.896781896218467,4.896781896218467,4.896781896218467,4.896781896218467,4.896781896218467,4.896781896218467,4.896781896218467,4.896781896218467,4.896781896218467,4.896781896218467,4.896781896218467,4.896781896218467,4.896781896218467,4.896781896218467,4.896781896218467,4.896781896218467,4.896781896218467,4.896781896218467,4.896781896218467,4.896781896218467,4.896781896218467,4.896781896218467,4.896781896218467,4.896781896218467,4.896781896218467,4.896781896218467,4.896781896218467,4.896781896218467,4.896781896218467,4.896781896218467,4.896781896218467,4.896781896218467,4.896781896218467,4.896781896218467,4.896781896218467,4.896781896218467,4.896781896218467,4.896781896218467,4.896781896218467,4.896781896218467,4.896781896218467,4.896781896218467,4.896781896218467,4.896781896218467,4.896781896218467,4.896781896218467,4.896781896218467,4.896781896218467,4.896781896218467,4.896781896218467,4.896781896218467,4.896781896218467,4.896781896218467,4.896781896218467,4.896781896218467,4.896781896218467,4.896781896218467,4.896781896218467,4.896781896218467,4.896781896218467,4.896781896218467,4.896781896218467,4.896781896218467,4.896781896218467,4.896781896218467,4.896781896218467,4.896781896218467,4.896781896218467,4.896781896218467,4.896781896218467,4.896781896218467,4.896781896218467,4.896781896218467,4.896781896218467,4.896781896218467,4.896781896218467,4.896781896218467,4.896781896218467,4.896781896218467,4.896781896218467,4.896781896218467,4.896781896218467,4.896781896218467,4.896781896218467,4.896781896218467,4.896781896218467,4.896781896218467,4.896781896218467,4.896781896218467,4.896781896218467,4.896781896218467,4.896781896218467,4.896781896218467,4.896781896218467,4.896781896218467,4.896781896218467,4.896781896218467,4.896781896218467,4.896781896218467,4.896781896218467,4.896781896218467,4.896781896218467,4.896781896218467,4.896781896218467,4.896781896218467,4.896781896218467,4.896781896218467,4.896781896218467,4.896781896218467,4.896781896218467,4.896781896218467,4.896781896218467,4.896781896218467,4.896781896218467,4.896781896218467,4.896781896218467,4.896781896218467,4.896781896218467,4.896781896218467,4.896781896218467,4.896781896218467,4.896781896218467,4.896781896218467,4.896781896218467,4.896781896218467,4.896781896218467,4.896781896218467,4.896781896218467,4.896781896218467,4.896781896218467,4.896781896218467,4.896781896218467,4.896781896218467,4.896781896218467,4.896781896218467,4.896781896218467,4.896781896218467,4.896781896218467,4.896781896218467,4.896781896218467,4.896781896218467,4.896781896218467,4.896781896218467,4.896781896218467,4.896781896218467,4.896781896218467,4.896781896218467,4.896781896218467,4.896781896218467,4.896781896218467,4.896781896218467,4.896781896218467,4.896781896218467,4.896781896218467,4.896781896218467,4.896781896218467,4.896781896218467,4.896781896218467,4.896781896218467,4.896781896218467,4.896781896218467,4.896781896218467,4.896781896218467,4.896781896218467,4.896781896218467,4.896781896218467,4.896781896218467,4.896781896218467,4.896781896218467,4.896781896218467,4.896781896218467,4.896781896218467,4.896781896218467,4.896781896218467,4.896781896218467,4.896781896218467,4.896781896218467,4.896781896218467,4.896781896218467,4.896781896218467,4.896781896218467,4.896781896218467,4.896781896218467,4.896781896218467,4.896781896218467,4.896781896218467,4.896781896218467,4.896781896218467,4.896781896218467,4.896781896218467,4.896781896218467,4.896781896218467,4.896781896218467,4.896781896218467,4.896781896218467,4.896781896218467,4.896781896218467,4.896781896218467,4.896781896218467,4.896781896218467,4.896781896218467,4.896781896218467,4.896781896218467,4.896781896218467,4.896781896218467,4.896781896218467,4.896781896218467,4.896781896218467,4.896781896218467,4.896781896218467,4.896781896218467,4.896781896218467,4.896781896218467,4.896781896218467,4.896781896218467,4.896781896218467,4.896781896218467,4.896781896218467,4.896781896218467,4.896781896218467,4.896781896218467,4.896781896218467,4.896781896218467,4.896781896218467,4.896781896218467,4.896781896218467,4.896781896218467,4.896781896218467,4.896781896218467,4.896781896218467,4.896781896218467,4.896781896218467,4.896781896218467,4.896781896218467,4.896781896218467,4.896781896218467,4.896781896218467,4.896781896218467,4.896781896218467,4.896781896218467,4.896781896218467,4.896781896218467,4.896781896218467,4.896781896218467,4.896781896218467,4.896781896218467,4.896781896218467,4.896781896218467,4.896781896218467,4.896781896218467,4.896781896218467,4.896781896218467,4.896781896218467,4.896781896218467,4.896781896218467,4.896781896218467,4.896781896218467,4.896781896218467,4.896781896218467,4.896781896218467,4.896781896218467,4.896781896218467,4.896781896218467,4.896781896218467,4.896781896218467,4.896781896218467,4.896781896218467,4.896781896218467,4.896781896218467,4.896781896218467,4.896781896218467,4.896781896218467,4.896781896218467,4.896781896218467,4.896781896218467,4.896781896218467,4.896781896218467,4.896781896218467,4.896781896218467,4.896781896218467,4.896781896218467,4.896781896218467,4.896781896218467,4.896781896218467,4.896781896218467,4.896781896218467,4.896781896218467,4.896781896218467,4.896781896218467,4.896781896218467,4.896781896218467,4.896781896218467,4.896781896218467,4.896781896218467,4.896781896218467,4.896781896218467,4.896781896218467,4.896781896218467,4.896781896218467,4.896781896218467,4.896781896218467,4.896781896218467,4.896781896218467,4.896781896218467,4.896781896218467,4.896781896218467,4.896781896218467,4.896781896218467,4.896781896218467,4.896781896218467,4.896781896218467,4.896781896218467,4.896781896218467,4.896781896218467,4.896781896218467,4.896781896218467,4.896781896218467,4.896781896218467,4.896781896218467,4.896781896218467,4.896781896218467,4.896781896218467,4.896781896218467,4.896781896218467,4.896781896218467,4.896781896218467,4.896781896218467,4.896781896218467,4.896781896218467,4.896781896218467,4.896781896218467,4.896781896218467,4.896781896218467,4.896781896218467,4.896781896218467,4.896781896218467,4.896781896218467,4.896781896218467,4.896781896218467,4.896781896218467,4.896781896218467,4.896781896218467,4.896781896218467,4.896781896218467,4.896781896218467,4.896781896218467,4.896781896218467,4.896781896218467,4.896781896218467,4.896781896218467,4.896781896218467,4.896781896218467,4.896781896218467,4.896781896218467,4.896781896218467,4.896781896218467,4.896781896218467,4.896781896218467,4.896781896218467,4.896781896218467,4.896781896218467,4.896781896218467,4.896781896218467,4.896781896218467,4.896781896218467,4.896781896218467,4.896781896218467,4.896781896218467,4.896781896218467,4.896781896218467,4.896781896218467,4.896781896218467,4.896781896218467,4.896781896218467,4.896781896218467,4.896781896218467,4.896781896218467,4.896781896218467,4.896781896218467,4.896781896218467,4.896781896218467,4.896781896218467,4.896781896218467,4.896781896218467,4.896781896218467,4.896781896218467,4.896781896218467,4.896781896218467,4.896781896218467,4.896781896218467,4.896781896218467,4.896781896218467,4.896781896218467,4.896781896218467,4.896781896218467,4.896781896218467,4.896781896218467,4.896781896218467,4.896781896218467,4.896781896218467,4.896781896218467,4.896781896218467,4.896781896218467,4.896781896218467,4.896781896218467,4.896781896218467,4.896781896218467,4.896781896218467,4.896781896218467,4.896781896218467,4.896781896218467,4.896781896218467,4.896781896218467,4.896781896218467,4.896781896218467,4.896781896218467,4.896781896218467,4.896781896218467,4.896781896218467,4.896781896218467,4.896781896218467,4.896781896218467,4.896781896218467,4.896781896218467,4.896781896218467,4.896781896218467,4.896781896218467,4.896781896218467,4.896781896218467,4.896781896218467,4.896781896218467,4.896781896218467,4.896781896218467,4.896781896218467,4.896781896218467,4.896781896218467,4.896781896218467,4.896781896218467,4.896781896218467,4.896781896218467,4.896781896218467,4.896781896218467,4.896781896218467,4.896781896218467,4.896781896218467,4.896781896218467,4.896781896218467,4.896781896218467,4.896781896218467,4.896781896218467,4.896781896218467,4.896781896218467,4.896781896218467,4.896781896218467,4.896781896218467,4.896781896218467,4.896781896218467,4.896781896218467,4.896781896218467,4.896781896218467,4.896781896218467,4.896781896218467,4.896781896218467,4.896781896218467,4.896781896218467,4.896781896218467,4.896781896218467,4.896781896218467,4.896781896218467,4.896781896218467,4.896781896218467,4.896781896218467,4.896781896218467,4.896781896218467,4.896781896218467,4.896781896218467,4.896781896218467,4.896781896218467,4.896781896218467,4.896781896218467,4.896781896218467,4.896781896218467,4.896781896218467,4.896781896218467,4.896781896218467,4.896781896218467,4.896781896218467,4.896781896218467,4.896781896218467,4.896781896218467,4.896781896218467,4.896781896218467,4.896781896218467,4.896781896218467,4.896781896218467,4.896781896218467,4.896781896218467,4.896781896218467,4.896781896218467,4.896781896218467,4.896781896218467,4.896781896218467,4.896781896218467,4.896781896218467,4.896781896218467,4.896781896218467,4.896781896218467,4.896781896218467,4.896781896218467,4.896781896218467,4.896781896218467,4.896781896218467,4.896781896218467,4.896781896218467,4.896781896218467,4.896781896218467,4.896781896218467,4.896781896218467,4.896781896218467,4.896781896218467,4.896781896218467,4.896781896218467,4.896781896218467,4.896781896218467,4.896781896218467,4.896781896218467,4.896781896218467,4.896781896218467,4.896781896218467,4.896781896218467,4.896781896218467,4.896781896218467,4.896781896218467,4.896781896218467,4.896781896218467,4.896781896218467,4.896781896218467,4.896781896218467,4.896781896218467,4.896781896218467,4.896781896218467,4.896781896218467,4.896781896218467,4.896781896218467,4.896781896218467,4.896781896218467,4.896781896218467,4.896781896218467,4.896781896218467,4.896781896218467,4.896781896218467,4.896781896218467,4.896781896218467,4.896781896218467,4.896781896218467,4.896781896218467,4.896781896218467,4.896781896218467,4.896781896218467,4.896781896218467,4.896781896218467,4.896781896218467,4.896781896218467,4.896781896218467,4.896781896218467,4.896781896218467,4.896781896218467,4.896781896218467,4.896781896218467,4.896781896218467,4.896781896218467,4.896781896218467,4.896781896218467,4.896781896218467,4.896781896218467,4.896781896218467,4.896781896218467,4.896781896218467,4.896781896218467,4.896781896218467,4.896781896218467,4.896781896218467,4.896781896218467,4.896781896218467,4.896781896218467,4.896781896218467,4.896781896218467,4.896781896218467,4.896781896218467,4.896781896218467,4.896781896218467,4.896781896218467,4.896781896218467,4.896781896218467,4.896781896218467,4.896781896218467,4.896781896218467,4.896781896218467,4.896781896218467,4.896781896218467,4.896781896218467,4.896781896218467,4.896781896218467,4.896781896218467,4.896781896218467,4.896781896218467,4.896781896218467,4.896781896218467,4.896781896218467,4.896781896218467,4.896781896218467,4.896781896218467,4.896781896218467,4.896781896218467,4.896781896218467,4.896781896218467,4.896781896218467,4.896781896218467,4.896781896218467,4.896781896218467,4.896781896218467,4.896781896218467,4.896781896218467,4.896781896218467,4.896781896218467,4.896781896218467,4.896781896218467,4.896781896218467,4.896781896218467,4.896781896218467,4.896781896218467,4.896781896218467,4.896781896218467,4.896781896218467,4.896781896218467,4.896781896218467,4.896781896218467,4.896781896218467,4.896781896218467,4.896781896218467,4.896781896218467,4.896781896218467,4.896781896218467,4.896781896218467,4.896781896218467,4.896781896218467,4.896781896218467,4.896781896218467,4.896781896218467,4.896781896218467,4.896781896218467,4.896781896218467,4.896781896218467,4.896781896218467,4.896781896218467,4.896781896218467,4.896781896218467,4.896781896218467,4.896781896218467,4.896781896218467,4.896781896218467,4.896781896218467,4.896781896218467,4.896781896218467,4.896781896218467,4.896781896218467,4.896781896218467,4.896781896218467,4.896781896218467,4.896781896218467,4.896781896218467,4.896781896218467,4.896781896218467,4.896781896218467,4.896781896218467,4.896781896218467,4.896781896218467,4.896781896218467,4.896781896218467,4.896781896218467,4.896781896218467,4.896781896218467,4.896781896218467,4.896781896218467,4.896781896218467,4.896781896218467,4.896781896218467,4.896781896218467,4.896781896218467,4.896781896218467,4.896781896218467,4.896781896218467,4.896781896218467,4.896781896218467,4.896781896218467,4.896781896218467,4.896781896218467,4.896781896218467,4.896781896218467,4.896781896218467,4.896781896218467,4.896781896218467,4.896781896218467,4.896781896218467,4.896781896218467,4.896781896218467,4.896781896218467,4.896781896218467,4.896781896218467,4.896781896218467,4.896781896218467,4.896781896218467,4.896781896218467,4.896781896218467,4.896781896218467,4.896781896218467,4.896781896218467,4.896781896218467,4.896781896218467,4.896781896218467,4.896781896218467,4.896781896218467,4.896781896218467,4.896781896218467,4.896781896218467,4.896781896218467,4.896781896218467,4.896781896218467,4.896781896218467,4.896781896218467,4.896781896218467,4.896781896218467,4.896781896218467,4.896781896218467,4.896781896218467,4.896781896218467,4.896781896218467,4.896781896218467,4.896781896218467,4.896781896218467,4.896781896218467,4.896781896218467,4.896781896218467,4.896781896218467,4.896781896218467,4.896781896218467,4.896781896218467,4.896781896218467,4.896781896218467,4.896781896218467,4.896781896218467,4.896781896218467,4.896781896218467,4.896781896218467,4.896781896218467,4.896781896218467,4.896781896218467,4.896781896218467,4.896781896218467,4.896781896218467,4.896781896218467,4.896781896218467,4.896781896218467,4.896781896218467,4.896781896218467,4.896781896218467,4.896781896218467,4.896781896218467,4.896781896218467,4.896781896218467,4.896781896218467,4.896781896218467,4.896781896218467,4.896781896218467,4.896781896218467,4.896781896218467,4.896781896218467,4.896781896218467,4.896781896218467,4.896781896218467,4.896781896218467,4.896781896218467,4.896781896218467,4.896781896218467,4.896781896218467,4.896781896218467,4.896781896218467,4.896781896218467,4.896781896218467,4.896781896218467,4.896781896218467,4.896781896218467,4.896781896218467,4.896781896218467,4.896781896218467,4.896781896218467,4.896781896218467,4.896781896218467,4.896781896218467,4.896781896218467,4.896781896218467,4.896781896218467,4.896781896218467,4.896781896218467,4.896781896218467,4.896781896218467,4.896781896218467,4.896781896218467,4.896781896218467,4.896781896218467,4.896781896218467,4.896781896218467,4.896781896218467,4.896781896218467,4.896781896218467,4.896781896218467,4.896781896218467,4.896781896218467,4.896781896218467,4.896781896218467,4.896781896218467,4.896781896218467,4.896781896218467,4.896781896218467,4.896781896218467,4.896781896218467,4.896781896218467,4.896781896218467,4.896781896218467,4.896781896218467,4.896781896218467,4.896781896218467,4.896781896218467,4.896781896218467,4.896781896218467,4.896781896218467,4.896781896218467,4.896781896218467,4.896781896218467,4.896781896218467,4.896781896218467,4.896781896218467,4.896781896218467,4.896781896218467,4.896781896218467,4.896781896218467,4.896781896218467,4.896781896218467,4.896781896218467,4.896781896218467,4.896781896218467,4.896781896218467,4.896781896218467,4.896781896218467,4.896781896218467,4.896781896218467,4.896781896218467,4.896781896218467,4.896781896218467,4.896781896218467,4.896781896218467,4.896781896218467,4.896781896218467,4.896781896218467,4.896781896218467,4.896781896218467,4.896781896218467,4.896781896218467,4.896781896218467,4.896781896218467,4.896781896218467,4.896781896218467,4.896781896218467,4.896781896218467,4.896781896218467,4.896781896218467,4.896781896218467,4.896781896218467,4.896781896218467,4.896781896218467,4.896781896218467,4.896781896218467,4.896781896218467,4.896781896218467,4.896781896218467,4.896781896218467,4.896781896218467,4.896781896218467,4.896781896218467,4.896781896218467,4.896781896218467,4.896781896218467,4.896781896218467,4.896781896218467,4.896781896218467,4.896781896218467,4.896781896218467,4.896781896218467,4.896781896218467,4.896781896218467,4.896781896218467,4.896781896218467,4.896781896218467,4.896781896218467,4.896781896218467,4.896781896218467,4.896781896218467,4.896781896218467,4.896781896218467,4.896781896218467,4.896781896218467,4.896781896218467,4.896781896218467,4.896781896218467,4.896781896218467,4.896781896218467,4.896781896218467,4.896781896218467,4.896781896218467,4.896781896218467,4.896781896218467,4.896781896218467,4.896781896218467,4.896781896218467,4.896781896218467,4.896781896218467,4.896781896218467,4.896781896218467,4.896781896218467,4.896781896218467,4.896781896218467,4.896781896218467,4.896781896218467,4.896781896218467,4.896781896218467,4.896781896218467,4.896781896218467,4.896781896218467,4.896781896218467,4.896781896218467,4.896781896218467,4.896781896218467,4.896781896218467,4.896781896218467,4.896781896218467,4.896781896218467,4.896781896218467,4.896781896218467,4.896781896218467,4.896781896218467,4.896781896218467,4.896781896218467,4.896781896218467,4.896781896218467,4.896781896218467,4.896781896218467,4.896781896218467,4.896781896218467,4.896781896218467,4.896781896218467,4.896781896218467,4.896781896218467,4.896781896218467,4.896781896218467,4.896781896218467,4.896781896218467,4.896781896218467,4.896781896218467,4.896781896218467,4.896781896218467,4.896781896218467,4.896781896218467,4.896781896218467,4.896781896218467,4.896781896218467,4.896781896218467,4.896781896218467,4.896781896218467,4.896781896218467,4.896781896218467,4.896781896218467,4.896781896218467,4.896781896218467,4.896781896218467,4.896781896218467,4.896781896218467,4.896781896218467,4.896781896218467,4.896781896218467,4.896781896218467,4.896781896218467,4.896781896218467,4.896781896218467,4.896781896218467,4.896781896218467,4.896781896218467,4.896781896218467,4.896781896218467,4.896781896218467,4.896781896218467,4.896781896218467,4.896781896218467,4.896781896218467,4.896781896218467,4.896781896218467,4.896781896218467,4.896781896218467,4.896781896218467,4.896781896218467,4.896781896218467,4.896781896218467,4.896781896218467,4.896781896218467,4.896781896218467,4.896781896218467,4.896781896218467,4.896781896218467,4.896781896218467,4.896781896218467,4.896781896218467,4.896781896218467,4.896781896218467,4.896781896218467,4.896781896218467,4.896781896218467,4.896781896218467,4.896781896218467,4.896781896218467,4.896781896218467,4.896781896218467,4.896781896218467,4.896781896218467,4.896781896218467,4.896781896218467,4.896781896218467,4.896781896218467,4.896781896218467,4.896781896218467,4.896781896218467,4.896781896218467,4.896781896218467,4.896781896218467,4.896781896218467,4.896781896218467,4.896781896218467,4.896781896218467,4.896781896218467,4.896781896218467,4.896781896218467,4.896781896218467,4.896781896218467,4.896781896218467,4.896781896218467,4.896781896218467,4.896781896218467,4.896781896218467,4.896781896218467,4.896781896218467,4.896781896218467,4.896781896218467,4.896781896218467,4.896781896218467,4.896781896218467,4.896781896218467,4.896781896218467,4.896781896218467,4.896781896218467,4.896781896218467,4.896781896218467,4.896781896218467,4.896781896218467,4.896781896218467,4.896781896218467,4.896781896218467,4.896781896218467,4.896781896218467,4.896781896218467,4.896781896218467,4.896781896218467,4.896781896218467,4.896781896218467,4.896781896218467,4.896781896218467,4.896781896218467,4.896781896218467,4.896781896218467,4.896781896218467,4.896781896218467,4.896781896218467,4.896781896218467,4.896781896218467,4.896781896218467,4.896781896218467,4.896781896218467,4.896781896218467,4.896781896218467,4.896781896218467,4.896781896218467,4.896781896218467,4.896781896218467,4.896781896218467,4.896781896218467,4.896781896218467,4.896781896218467,4.896781896218467,4.896781896218467,4.896781896218467,4.896781896218467,4.896781896218467,4.896781896218467,4.896781896218467,4.896781896218467,4.896781896218467,4.896781896218467,4.896781896218467,4.896781896218467,4.896781896218467,4.896781896218467,4.896781896218467,4.896781896218467,4.896781896218467,4.896781896218467,4.896781896218467,4.896781896218467,4.896781896218467,4.896781896218467,4.896781896218467,4.896781896218467,4.896781896218467,4.896781896218467,4.896781896218467,4.896781896218467,4.896781896218467,4.896781896218467,4.896781896218467,4.896781896218467,4.896781896218467,4.896781896218467,4.896781896218467,4.896781896218467,4.896781896218467,4.896781896218467,4.896781896218467,4.896781896218467,4.896781896218467,4.896781896218467,4.896781896218467,4.896781896218467,4.896781896218467,4.896781896218467,4.896781896218467,4.896781896218467,4.896781896218467,4.896781896218467,4.896781896218467,4.896781896218467,4.896781896218467,4.896781896218467,4.896781896218467,4.896781896218467,4.896781896218467,4.896781896218467,4.896781896218467,4.896781896218467,4.896781896218467,4.896781896218467,4.896781896218467,4.896781896218467,4.896781896218467,4.896781896218467,4.896781896218467,4.896781896218467,4.896781896218467,4.896781896218467,4.896781896218467,4.896781896218467,4.896781896218467,4.896781896218467,4.896781896218467,4.896781896218467,4.896781896218467,4.896781896218467,4.896781896218467,4.896781896218467,4.896781896218467,4.896781896218467,4.896781896218467,4.896781896218467,4.896781896218467,4.896781896218467,4.896781896218467,4.896781896218467,4.896781896218467,4.896781896218467,4.896781896218467,4.896781896218467,4.896781896218467,4.896781896218467,4.896781896218467,4.896781896218467,4.896781896218467,4.896781896218467,4.896781896218467,4.896781896218467,4.896781896218467,4.896781896218467,4.896781896218467,4.896781896218467,4.896781896218467,4.896781896218467,4.896781896218467,4.896781896218467,4.896781896218467,4.896781896218467,4.896781896218467,4.896781896218467,4.896781896218467,4.896781896218467,4.896781896218467,4.896781896218467,4.896781896218467,4.896781896218467,4.896781896218467,4.896781896218467,4.896781896218467,4.896781896218467,4.896781896218467,4.896781896218467,4.896781896218467,4.896781896218467,4.896781896218467,4.896781896218467,4.896781896218467,4.896781896218467,4.896781896218467,4.896781896218467,4.896781896218467,4.896781896218467,4.896781896218467,4.896781896218467,4.896781896218467,4.896781896218467,4.896781896218467,4.896781896218467,4.896781896218467,4.896781896218467,4.896781896218467,4.896781896218467,4.896781896218467,4.896781896218467,4.896781896218467,4.896781896218467,4.896781896218467,4.896781896218467,4.896781896218467,4.896781896218467,4.896781896218467,4.896781896218467,4.896781896218467,4.896781896218467,4.896781896218467,4.896781896218467,4.896781896218467,4.896781896218467,4.896781896218467,4.896781896218467,4.896781896218467,4.896781896218467,4.896781896218467,4.896781896218467,4.896781896218467,4.896781896218467,4.896781896218467,4.896781896218467,4.896781896218467,4.896781896218467,4.896781896218467,4.896781896218467,4.896781896218467,4.896781896218467,4.896781896218467,4.896781896218467,4.896781896218467,4.896781896218467,4.896781896218467,4.896781896218467,4.896781896218467,4.896781896218467,4.896781896218467,4.896781896218467,4.896781896218467,4.896781896218467,4.896781896218467,4.896781896218467,4.896781896218467,4.896781896218467,4.896781896218467,4.896781896218467,4.896781896218467,4.896781896218467,4.896781896218467,4.896781896218467,4.896781896218467,4.896781896218467,4.896781896218467,4.896781896218467,4.896781896218467,4.896781896218467,4.896781896218467,4.896781896218467,4.896781896218467,4.896781896218467,4.896781896218467,4.896781896218467,4.896781896218467,4.896781896218467,4.896781896218467,4.896781896218467,4.896781896218467,4.896781896218467,4.896781896218467,4.896781896218467,4.896781896218467,4.896781896218467,4.896781896218467,4.896781896218467,4.896781896218467,4.896781896218467,4.896781896218467,4.896781896218467,4.896781896218467,4.896781896218467,4.896781896218467,4.896781896218467,4.896781896218467,4.896781896218467,4.896781896218467,4.896781896218467,4.896781896218467,4.896781896218467,4.896781896218467,4.896781896218467,4.896781896218467,4.896781896218467,4.896781896218467,4.896781896218467,4.896781896218467,4.896781896218467,4.896781896218467,4.896781896218467,4.896781896218467,4.896781896218467,4.896781896218467,4.896781896218467,4.896781896218467,4.896781896218467,4.896781896218467,4.896781896218467,4.896781896218467,4.896781896218467,4.896781896218467,4.896781896218467,4.896781896218467,4.896781896218467,4.896781896218467,4.896781896218467,4.896781896218467,4.896781896218467,4.896781896218467,4.896781896218467,4.896781896218467,4.896781896218467,4.896781896218467,4.896781896218467,4.896781896218467,4.896781896218467,4.896781896218467,4.896781896218467,4.896781896218467,4.896781896218467,4.896781896218467,4.896781896218467,4.896781896218467,4.896781896218467,4.896781896218467,4.896781896218467,4.896781896218467,4.896781896218467,4.896781896218467,4.896781896218467,4.896781896218467,4.896781896218467,4.896781896218467,4.896781896218467,4.896781896218467,4.896781896218467,4.896781896218467,4.896781896218467,4.896781896218467,4.896781896218467,4.896781896218467,4.896781896218467,4.896781896218467,4.896781896218467,4.896781896218467,4.896781896218467,4.896781896218467,4.896781896218467,4.896781896218467,4.896781896218467,4.896781896218467,4.896781896218467,4.896781896218467,4.896781896218467,4.896781896218467,4.896781896218467,4.896781896218467,4.896781896218467,4.896781896218467,4.896781896218467,4.896781896218467,4.896781896218467,4.896781896218467,4.896781896218467,4.896781896218467,4.896781896218467,4.896781896218467,4.896781896218467,4.896781896218467,4.896781896218467,4.896781896218467,4.896781896218467,4.896781896218467,4.896781896218467,4.896781896218467,4.896781896218467,4.896781896218467,4.896781896218467,4.896781896218467,4.896781896218467,4.896781896218467,4.896781896218467,4.896781896218467,4.896781896218467,4.896781896218467,4.896781896218467,4.896781896218467,4.896781896218467,4.896781896218467,4.896781896218467,4.896781896218467,4.896781896218467,4.896781896218467,4.896781896218467,4.896781896218467,4.896781896218467,4.896781896218467,4.896781896218467,4.896781896218467,4.896781896218467,4.896781896218467,4.896781896218467,4.896781896218467,4.896781896218467,4.896781896218467,4.896781896218467,4.896781896218467,4.896781896218467,4.896781896218467,4.896781896218467,4.896781896218467,4.896781896218467,4.896781896218467,4.896781896218467,4.896781896218467,4.896781896218467,4.896781896218467,4.896781896218467,4.896781896218467,4.896781896218467,4.896781896218467,4.896781896218467,4.896781896218467,4.896781896218467,4.896781896218467,4.896781896218467,4.896781896218467,4.896781896218467,4.896781896218467,4.896781896218467,4.896781896218467,4.896781896218467,4.896781896218467,4.896781896218467,4.896781896218467,4.896781896218467,4.896781896218467,4.896781896218467,4.896781896218467,4.896781896218467,4.896781896218467,4.896781896218467,4.896781896218467,4.896781896218467,4.896781896218467,4.896781896218467,4.896781896218467,4.896781896218467,4.896781896218467,4.896781896218467,4.896781896218467,4.896781896218467,4.896781896218467,4.896781896218467,4.896781896218467,4.896781896218467,4.896781896218467,4.896781896218467,4.896781896218467,4.896781896218467,4.896781896218467,4.896781896218467,4.896781896218467,4.896781896218467,4.896781896218467,4.896781896218467,4.896781896218467,4.896781896218467,4.896781896218467,4.896781896218467,4.896781896218467,4.896781896218467,4.896781896218467,4.896781896218467,4.896781896218467,4.896781896218467,4.896781896218467,4.896781896218467,4.896781896218467,4.896781896218467,4.896781896218467,4.896781896218467,4.896781896218467,4.896781896218467,4.896781896218467,4.896781896218467,4.896781896218467,4.896781896218467,4.896781896218467,4.896781896218467,4.896781896218467,4.896781896218467,4.896781896218467,4.896781896218467,4.896781896218467,4.896781896218467,4.896781896218467,4.896781896218467,4.896781896218467,4.896781896218467,4.896781896218467,4.896781896218467,4.896781896218467,4.896781896218467,4.896781896218467,4.896781896218467,4.896781896218467,4.896781896218467,4.896781896218467,4.896781896218467,4.896781896218467,4.896781896218467,4.896781896218467,4.896781896218467,4.896781896218467,4.896781896218467,4.896781896218467,4.896781896218467,4.896781896218467,4.896781896218467,4.896781896218467,4.896781896218467,4.896781896218467,4.896781896218467,4.896781896218467,4.896781896218467,4.896781896218467,4.896781896218467,4.896781896218467,4.896781896218467,4.896781896218467,4.896781896218467,4.896781896218467,4.896781896218467,4.896781896218467,4.896781896218467,4.896781896218467,4.896781896218467,4.896781896218467,4.896781896218467,4.896781896218467,4.896781896218467,4.896781896218467,4.896781896218467,4.896781896218467,4.896781896218467,4.896781896218467,4.896781896218467,4.896781896218467,4.896781896218467,4.896781896218467,4.896781896218467,4.896781896218467,4.896781896218467,4.896781896218467,4.896781896218467,4.896781896218467,4.896781896218467,4.896781896218467,4.896781896218467,4.896781896218467,4.896781896218467,4.896781896218467,4.896781896218467,4.896781896218467,4.896781896218467,4.896781896218467,4.896781896218467,4.896781896218467,4.896781896218467,4.896781896218467,4.896781896218467,4.896781896218467,4.896781896218467,4.896781896218467,4.896781896218467,4.896781896218467,4.896781896218467,4.896781896218467,4.896781896218467,4.896781896218467,4.896781896218467,4.896781896218467,4.896781896218467,4.896781896218467,4.896781896218467,4.896781896218467,4.896781896218467,4.896781896218467,4.896781896218467,4.896781896218467,4.896781896218467,4.896781896218467,4.896781896218467,4.896781896218467,4.896781896218467,4.896781896218467,4.896781896218467,4.896781896218467,4.896781896218467,4.896781896218467,4.896781896218467,4.896781896218467,4.896781896218467,4.896781896218467,4.896781896218467,4.896781896218467,4.896781896218467,4.896781896218467,4.896781896218467,4.896781896218467,4.896781896218467,4.896781896218467,4.896781896218467,4.896781896218467,4.896781896218467,4.896781896218467,4.896781896218467,4.896781896218467,4.896781896218467,4.896781896218467,4.896781896218467,4.896781896218467,4.896781896218467,4.896781896218467,4.896781896218467,4.896781896218467,4.896781896218467,4.896781896218467,4.896781896218467,4.896781896218467,4.896781896218467,4.896781896218467,4.896781896218467,4.896781896218467,4.896781896218467,4.896781896218467,4.896781896218467,4.896781896218467,4.896781896218467,4.896781896218467,4.896781896218467,4.896781896218467,4.896781896218467,4.896781896218467,4.896781896218467,4.896781896218467,4.896781896218467,4.896781896218467,4.896781896218467,4.896781896218467,4.896781896218467,4.896781896218467,4.896781896218467,4.896781896218467,4.896781896218467,4.896781896218467,4.896781896218467,4.896781896218467,4.896781896218467,4.896781896218467,4.896781896218467,4.896781896218467,4.896781896218467,4.896781896218467,4.896781896218467,4.896781896218467,4.896781896218467,4.896781896218467,4.896781896218467,4.896781896218467,4.896781896218467,4.896781896218467,4.896781896218467,4.896781896218467,4.896781896218467,4.896781896218467,4.896781896218467,4.896781896218467,4.896781896218467,4.896781896218467,4.896781896218467,4.896781896218467,4.896781896218467,4.896781896218467,4.896781896218467,4.896781896218467,4.896781896218467,4.896781896218467,4.896781896218467,4.896781896218467,4.896781896218467,4.896781896218467,4.896781896218467,4.896781896218467,4.896781896218467,4.896781896218467,4.896781896218467,4.896781896218467,4.896781896218467,4.896781896218467,4.896781896218467,4.896781896218467,4.896781896218467,4.896781896218467,4.896781896218467,4.896781896218467,4.896781896218467,4.896781896218467,4.896781896218467,4.896781896218467,4.896781896218467,4.896781896218467,4.896781896218467,4.896781896218467,4.896781896218467,4.896781896218467,4.896781896218467,4.896781896218467,4.896781896218467,4.896781896218467,4.896781896218467,4.896781896218467,4.896781896218467,4.896781896218467,4.896781896218467,4.896781896218467,4.896781896218467,4.896781896218467,4.896781896218467,4.896781896218467,4.896781896218467,4.896781896218467,4.896781896218467,4.896781896218467,4.896781896218467,4.896781896218467,4.896781896218467,4.896781896218467,4.896781896218467,4.896781896218467,4.896781896218467,4.896781896218467,4.896781896218467,4.896781896218467,4.896781896218467,4.896781896218467,4.896781896218467,4.896781896218467,4.896781896218467,4.896781896218467,4.896781896218467,4.896781896218467,4.896781896218467,4.896781896218467,4.896781896218467,4.896781896218467,4.896781896218467,4.896781896218467,4.896781896218467,4.896781896218467,4.896781896218467,4.896781896218467,4.896781896218467,4.896781896218467,4.896781896218467,4.896781896218467,4.896781896218467,4.896781896218467,4.896781896218467,4.896781896218467,4.896781896218467,4.896781896218467,4.896781896218467,4.896781896218467,4.896781896218467,4.896781896218467,4.896781896218467,4.896781896218467,4.896781896218467,4.896781896218467,4.896781896218467,4.896781896218467,4.896781896218467,4.896781896218467,4.896781896218467,4.896781896218467,4.896781896218467,4.896781896218467,4.896781896218467,4.896781896218467,4.896781896218467,4.896781896218467,4.896781896218467,4.896781896218467,4.896781896218467,4.896781896218467,4.896781896218467,4.896781896218467,4.896781896218467,4.896781896218467,4.896781896218467,4.896781896218467,4.896781896218467,4.896781896218467,4.896781896218467,4.896781896218467,4.896781896218467,4.896781896218467,4.896781896218467,4.896781896218467,4.896781896218467,4.896781896218467,4.896781896218467,4.896781896218467,4.896781896218467,4.896781896218467,4.896781896218467,4.896781896218467,4.896781896218467,4.896781896218467,4.896781896218467,4.896781896218467,4.896781896218467,4.896781896218467,4.896781896218467,4.896781896218467,4.896781896218467,4.896781896218467,4.896781896218467,4.896781896218467,4.896781896218467,4.896781896218467,4.896781896218467,4.896781896218467,4.896781896218467,4.896781896218467,4.896781896218467,4.896781896218467,4.896781896218467,4.896781896218467,4.896781896218467,4.896781896218467,4.896781896218467,4.896781896218467,4.896781896218467,4.896781896218467,4.896781896218467,4.896781896218467,4.896781896218467,4.896781896218467,4.896781896218467,4.896781896218467,4.896781896218467,4.896781896218467,4.896781896218467,4.896781896218467,4.896781896218467,4.896781896218467,4.896781896218467,4.896781896218467,4.896781896218467,4.896781896218467,4.896781896218467,4.896781896218467,4.896781896218467,4.896781896218467,4.896781896218467,4.896781896218467,4.896781896218467,4.896781896218467,4.896781896218467,4.896781896218467,4.896781896218467,4.896781896218467,4.896781896218467,4.896781896218467,4.896781896218467,4.896781896218467,4.896781896218467,4.896781896218467,4.896781896218467,4.896781896218467,4.896781896218467,4.896781896218467,4.896781896218467,4.896781896218467,4.896781896218467,4.896781896218467,4.896781896218467,4.896781896218467,4.896781896218467,4.896781896218467,4.896781896218467,4.896781896218467,4.896781896218467,4.896781896218467,4.896781896218467,4.896781896218467,4.896781896218467,4.896781896218467,4.896781896218467,4.896781896218467,4.896781896218467,4.896781896218467,4.896781896218467,4.896781896218467,4.896781896218467,4.896781896218467,4.896781896218467,4.896781896218467,4.896781896218467,4.896781896218467,4.896781896218467,4.896781896218467,4.896781896218467,4.896781896218467,4.896781896218467,4.896781896218467,4.896781896218467,4.896781896218467,4.896781896218467,4.896781896218467,4.896781896218467,4.896781896218467,4.896781896218467,4.896781896218467,4.896781896218467,4.896781896218467,4.896781896218467,4.896781896218467,4.896781896218467,4.896781896218467,4.896781896218467,4.896781896218467,4.896781896218467,4.896781896218467,4.896781896218467,4.896781896218467,4.896781896218467,4.896781896218467,4.896781896218467,4.896781896218467,4.896781896218467,4.896781896218467,4.896781896218467,4.896781896218467,4.896781896218467,4.896781896218467,4.896781896218467,4.896781896218467,4.896781896218467,4.896781896218467,4.896781896218467,4.896781896218467,4.896781896218467,4.896781896218467,4.896781896218467,4.896781896218467,4.896781896218467,4.896781896218467,4.896781896218467,4.896781896218467,4.896781896218467,4.896781896218467,4.896781896218467,4.896781896218467,4.896781896218467,4.896781896218467,4.896781896218467,4.896781896218467,4.896781896218467,4.896781896218467,4.896781896218467,4.896781896218467,4.896781896218467,4.896781896218467,4.896781896218467,4.896781896218467,4.896781896218467,4.896781896218467,4.896781896218467,4.896781896218467,4.896781896218467,4.896781896218467,4.896781896218467,4.896781896218467,4.896781896218467,4.896781896218467,4.896781896218467,4.896781896218467,4.896781896218467,4.896781896218467,4.896781896218467,4.896781896218467,4.896781896218467,4.896781896218467,4.896781896218467,4.896781896218467,4.896781896218467,4.896781896218467,4.896781896218467,4.896781896218467,4.896781896218467,4.896781896218467,4.896781896218467,4.896781896218467,4.896781896218467,4.896781896218467,4.896781896218467,4.896781896218467,4.896781896218467,4.896781896218467,4.896781896218467,4.896781896218467,4.896781896218467,4.896781896218467,4.896781896218467,4.896781896218467,4.896781896218467,4.896781896218467,4.896781896218467,4.896781896218467,4.896781896218467,4.896781896218467,4.896781896218467,4.896781896218467,4.896781896218467,4.896781896218467,4.896781896218467,4.896781896218467,4.896781896218467,4.896781896218467,4.896781896218467,4.896781896218467,4.896781896218467,4.896781896218467,4.896781896218467,4.896781896218467,4.896781896218467,4.896781896218467,4.896781896218467,4.896781896218467,4.896781896218467,4.896781896218467,4.896781896218467,4.896781896218467,4.896781896218467,4.896781896218467,4.896781896218467,4.896781896218467,4.896781896218467,4.896781896218467,4.896781896218467,4.896781896218467,4.896781896218467,4.896781896218467,4.896781896218467,4.896781896218467,4.896781896218467,4.896781896218467,4.896781896218467,4.896781896218467,4.896781896218467,4.896781896218467,4.896781896218467,4.896781896218467,4.896781896218467,4.896781896218467,4.896781896218467,4.896781896218467,4.896781896218467,4.896781896218467,4.896781896218467,4.896781896218467,4.896781896218467,4.896781896218467,4.896781896218467,4.896781896218467,4.896781896218467,4.896781896218467,4.896781896218467,4.896781896218467,4.896781896218467,4.896781896218467,4.896781896218467,4.896781896218467,4.896781896218467,4.896781896218467,4.896781896218467,4.896781896218467,4.896781896218467,4.896781896218467,4.896781896218467,4.896781896218467,4.896781896218467,4.896781896218467,4.896781896218467,4.896781896218467,4.896781896218467,4.896781896218467,4.896781896218467,4.896781896218467,4.896781896218467,4.896781896218467,4.896781896218467,4.896781896218467,4.896781896218467,4.896781896218467,4.896781896218467,4.896781896218467,4.896781896218467,4.896781896218467,4.896781896218467,4.896781896218467,4.896781896218467,4.896781896218467,4.896781896218467,4.896781896218467,4.896781896218467,4.896781896218467,4.896781896218467,4.896781896218467,4.896781896218467,4.896781896218467,4.896781896218467,4.896781896218467,4.896781896218467,4.896781896218467,4.896781896218467,4.896781896218467,4.896781896218467,4.896781896218467,4.896781896218467,4.896781896218467,4.896781896218467,4.896781896218467,4.896781896218467,4.896781896218467,4.896781896218467,4.896781896218467,4.896781896218467,4.896781896218467,4.896781896218467,4.896781896218467,4.896781896218467,4.896781896218467,4.896781896218467,4.896781896218467,4.896781896218467,4.896781896218467,4.896781896218467,4.896781896218467,4.896781896218467,4.896781896218467,4.896781896218467,4.896781896218467,4.896781896218467,4.896781896218467,4.896781896218467,4.896781896218467,4.896781896218467,4.896781896218467,4.896781896218467,4.896781896218467,4.896781896218467,4.896781896218467,4.896781896218467,4.896781896218467,4.896781896218467,4.896781896218467,4.896781896218467,4.896781896218467,4.896781896218467,4.896781896218467,4.896781896218467,4.896781896218467,4.896781896218467,4.896781896218467,4.896781896218467,4.896781896218467,4.896781896218467,4.896781896218467,4.896781896218467,4.896781896218467,4.896781896218467,4.896781896218467,4.896781896218467,4.896781896218467,4.896781896218467,4.896781896218467,4.896781896218467,4.896781896218467,4.896781896218467,4.896781896218467,4.896781896218467,4.896781896218467,4.896781896218467,4.896781896218467,4.896781896218467,4.896781896218467,4.896781896218467,4.896781896218467,4.896781896218467,4.896781896218467,4.896781896218467,4.896781896218467,4.896781896218467,4.896781896218467,4.896781896218467,4.896781896218467,4.896781896218467,4.896781896218467,4.896781896218467,4.896781896218467,4.896781896218467,4.896781896218467,4.896781896218467,4.896781896218467,4.896781896218467,4.896781896218467,4.896781896218467,4.896781896218467,4.896781896218467,4.896781896218467,4.896781896218467,4.896781896218467,4.896781896218467,4.896781896218467,4.896781896218467,4.896781896218467,4.896781896218467,4.896781896218467,4.896781896218467,4.896781896218467,4.896781896218467,4.896781896218467,4.896781896218467,4.896781896218467,4.896781896218467,4.896781896218467,4.896781896218467,4.896781896218467,4.896781896218467,4.896781896218467,4.896781896218467,4.896781896218467,4.896781896218467,4.896781896218467,4.896781896218467,4.896781896218467,4.896781896218467,4.896781896218467,4.896781896218467,4.896781896218467,4.896781896218467,4.896781896218467,4.896781896218467,4.896781896218467,4.896781896218467,4.896781896218467,4.896781896218467,4.896781896218467,4.896781896218467,4.896781896218467,4.896781896218467,4.896781896218467,4.896781896218467,4.896781896218467,4.896781896218467,4.896781896218467,4.896781896218467,4.896781896218467,4.896781896218467,4.896781896218467,4.896781896218467,4.896781896218467,4.896781896218