[{"nsides":6,"instructions":"Let's define a new operation <img src=./images/hexagon_symbol.png style=width:14px;height:14px>. This operation will give us a way of combining two of the numbers 0, 1, 2, 3, 4, 5 to get another one of them back. To perform <img src=./images/hexagon_symbol.png style=width:14px;height:14px>, you can either use a method based on the hexagon at right, or a method based on arithmetic.<br /><b>Hexagon method:</b> you can use the interactive diagram on the right, or perform the operation in your mind. Point the arrow at the first number on the hexagon by clicking, then click (or click and drag) to move the arrow the second number of points clockwise around the hexagon. The number the arrow arrives at is your result. (The operation is called <img src=./images/hexagon_symbol.png style=width:14px;height:14px> because it uses the hexagon, which has 6 sides.) <br ><b>Arithmetic method:</b> you start with the first number, and then add  the sec ond one to it. If the sum is smaller than 6, that's your result. If the sum is 6 or bigger, you subtract 6 to get your result. <br /><br />For example, 3 <img src=./images/hexagon_symbol.png style=width:14px;height:14px> 5 = 2, because 5 steps clockwise from 3 on the hexagon brings us to 2. Equivalently, 3 + 5 = 8, and 8 is bigger than 6, so we subtract 6, and 8 - 6 = 2. So 3 <img src=./images/hexagon_symbol.png style=width:14px;height:14px> 5 = 2.<br /><br />Similarly, 1 <img src=./images/hexagon_symbol.png style=width:14px;height:14px> 4 = 5, because 1 + 4 = 5, and 5 is less than 6 so we leave it alone. Equivalently, 4 steps clockwise from 1 on the hexagon brings us to 5. <br /><br />Click Continue when you're ready to move on.","orientation_history":[0,[0.8557046275160727,0.8424789458037129,0.7853981633974483,0.7709064243319482,0.7709064243319482,0.7709064243319482,1.0471975511965976],[0.07326313373923932,0.07326313373923932,0.07326313373923932,0.07326313373923932,0.07326313373923932,0.07259945373049459,0.07259945373049459,0],[4.511990426558811,4.493720034510748,4.493720034510748,4.493720034510748,4.493720034510748,4.493720034510748,4.1887902047863905],[3.8592977942932727,3.8592977942932727,3.8592977942932727,3.8592977942932727,3.8592977942932727,3.8256443137215737,3.8181786121699965,3.8181786121699965,2.743425069512452,2.674896273547331,2.674896273547331,2.6688267562717916,2.6688267562717916,2.656141646689287,2.5712093719398514,2.4455084831855673,2.2051791472709854,1.7326337580333195,1.1824776086224307,0.8537845069879517,0.65788860518221,0.5549957273385866,0.5087298243155531,0.5087298243155531,0.5087298243155531],[0.5087298243155531,0.5087298243155531,0.500667724874736,0.47835243137865757,0.448723344010721,0.448723344010721,0.448723344010721,0.38352751595699175,0.38352751595699175,0.38352751595699175,0.38352751595699175,0.38352751595699175,0.3320594675428854,0.2961151458749647,0.24111767845146836,0.15499674192394086,0.12062366858010276,0.08800737352774068,0.08800737352774068,0.08800737352774068,0.08800737352774068,0.08800737352774068,0.08800737352774068,0.08800737352774068,0.08800737352774068,0.08800737352774068,0.08800737352774068,0.08800737352774068,0.08800737352774068,0.08800737352774068,0.05708078240626446,0.04164257909858837,0.04164257909858837,0.04164257909858837,0,0],[0,0,0,0,0]],"rt":72864,"trial_type":"polygon-arrow-instructions","trial_index":0,"trial_index_global":1,"time_elapsed":528407,"internal_chunk_id":"0-0"},{"nsides":6,"instructions":"Do you see how the different ways of performing <img src=./images/hexagon_symbol.png style=width:14px;height:14px> give the same result? By labeling the points of the hexagon with the numbers from 0 to 5, we ensure that when we combine two numbers using the hexagon, we only produce numbers between 0 and 5. When we use the arithmetic strategy, adding the second number to the first mimics counting around the hexagon, and subtracting 6 each time  we get  above 5 makes sure the results correspond to the numbers on the points of the hexagon. <br /><br />Click Continue when you're ready to move on.","orientation_history":[0],"rt":20225,"trial_type":"polygon-arrow-instructions","trial_index":0,"trial_index_global":2,"time_elapsed":548636,"internal_chunk_id":"0-0"},{"nsides":6,"question":"Now try one on your own! What is 4 <img src=./images/hexagon_symbol.png style=width:14px;height:14px> 5? <br /><br /> (Remember, to perform <img src=./images/hexagon_symbol.png style=width:14px;height:14px>, you can either use a method based on the hexagon at right, or a method based on arithmetic.<br /><br /><b>Hexagon method:</b> you can use the interactive diagram on the right, or perform the operation in your mind. Point the arrow at the first number, then move the arrow the second number of points clockwise around the hexagon. The number the arrow arrives at is your result. <br /><br /><b>Arithmetic method:</b> you start  with th e first number, and then add the second one to it. If the sum is smaller than 6, that's your result. If the sum is 6 or bigger, you subtract 6 to get your result.)","response_type":"free","response_choices":[],"correct_response":"3","response":"3","orientation_history":[[0]],"response_history":["3"],"rt":48484,"trial_type":"polygon-arrow-question","trial_index":0,"trial_index_global":3,"time_elapsed":597122,"internal_chunk_id":"0-0.3-0"},{"nsides":6,"feedback":"Correct! 4 <img src=./images/hexagon_symbol.png style=width:14px;height:14px> 5 = 3 because 5 steps clockwise on the hexagon from 4 brings us to 3. Equivalently, 4 + 5 = 9 and 9 - 6 = 3.","orientation_history":[0],"rt":1006,"trial_type":"polygon-arrow-feedback","trial_index":0,"trial_index_global":4,"time_elapsed":598131,"internal_chunk_id":"0-0.3-0"},{"nsides":6,"question":"What is 3 <img src=./images/hexagon_symbol.png style=width:14px;height:14px> 2? Try to solve this problem using the hexagon. <br  /><br />  (Remember, to perform <img src=./images/hexagon_symbol.png style=width:14px;height:14px> on the hexagon, you can use the interactive diagram on the right, or perform the operation in your mind. Point the arrow at the first number on the hexagon, and then move the arrow the second number of points clockwise around the hexagon.)","response_type":"free","response_choices":[],"correct_response":"5","response":"5","orientation_history":[[0],[0.0013458942075230684,-0.013700849756392186,-0.028781973211114975,-0.028781973211114975,-0.028781973211114975,-0.028781973211114975,6.161624431751109,6.0140178143938865,5.82812401292402,5.593821100784611,5.305391542266216,4.999035941262774,4.668498266813044,4.396276139337582,4.195126491069985,4.058505593723368,3.9364534160616818,3.796378005624413,3.697967949704856,3.6174281006033304,3.5381448349240965,3.473398734977593,3.422184728053129,3.3680769043386216,3.2950151750143415,3.2621069723562264,3.221806872054493,3.1648442764002565,3.1375415300371006,3.1375415300371006,3.1375415300371006,3.1375415300371006,3.129050551866349,3.129050551866349,3.1211351498976154,3.112550399280964,3.112550399280964,3.112550399280964,3.112550399280964,3.112550399280964,3.112550399280964,3.112550399280964,3.112550399280964,3.112550399280964,3.112550399280964,3.112550399280964,3.112550399280964,3.112550399280964,3.112550399280964,3.112550399280964,3.112550399280964,3.112550399280964,3.112550399280964,3.112550399280964,3.112550399280964,3.112550399280964,3.112550399280964,3.112550399280964,3.112550399280964,3.112550399280964,3.112550399280964,3.112550399280964,3.112550399280964,3.112550399280964,3.112550399280964,3.1382729517908117,3.1562502125212295,3.192936558461995,3.2376266105922658,3.258400002471878,3.275755261737204,3.305952756735214,3.3454655571544536,3.388520954058713,3.4293662476099445,3.4413758916518495,3.4413758916518495,3.474283690498789,3.515926269597377,3.5810514329317633,3.6484778018940514,3.7037318880473564,3.7457381651117982,3.8091131661552593,3.873632544314619,3.9451744980196737,3.981602273382235,4.001658640794707,4.015630389403819,4.029532274320125,4.043359486947789,4.043359486947789,4.043359486947789,4.043359486947789,4.043359486947789,4.043359486947789,4.043359486947789,4.043359486947789,4.043359486947789,4.043359486947789,4.043359486947789,4.043359486947789,4.043359486947789,4.043359486947789,4.043359486947789,4.043359486947789,4.043359486947789,4.06553387271112,4.097831387737262,4.097831387737262,4.097831387737262,4.479832038579781,4.613900932846358,4.720975295129929,4.786813228505826,4.8498738354453526,4.8720376931841844,4.877915263759467,4.877915263759467,4.877915263759467,4.885768332704176,4.911418951456591,4.944825541788109,4.978061380551685,4.988499551856885,4.996062709191529,4.996062709191529,4.996062709191529,4.996062709191529,4.996062709191529,4.996062709191529,4.996062709191529,4.996062709191529,4.996062709191529,4.996062709191529,4.996062709191529,4.996062709191529,4.996062709191529,4.996062709191529,4.996062709191529,4.996062709191529,4.996062709191529,4.996062709191529,4.996062709191529,4.996062709191529,5.003581364503832,5.021597433057888,5.024758228537266,5.024758228537266,5.024758228537266,5.024758228537266,5.024758228537266,5.042954944597019,5.042954944597019,5.042954944597019,5.042954944597019,5.050374975373252,5.050374975373252,5.050374975373252,5.050374975373252,5.050374975373252,5.050374975373252,5.057745202540712,5.079423455948577,5.079423455948577,5.079423455948577,5.079423455948577,5.079423455948577,5.079423455948577,5.079423455948577,5.079423455948577,5.079423455948577,5.079423455948577,5.079423455948577,5.079423455948577,5.079423455948577,5.086722596392274,5.235987755982988],[3.2933578089174964,3.2933578089174964,3.2933578089174964,3.2933578089174964,3.2933578089174964,3.141592653589793],[3.247081962114884,3.247081962114884,3.247081962114884,3.247081962114884,3.247081962114884,3.247081962114884,3.247081962114884,3.247081962114884,3.247081962114884,3.247081962114884,3.31830150965983,3.3865713167166573,3.4276440953071114,3.4703853450947477,3.52002003161847,3.5747928220214282,3.6879526780387724,3.8036531160875175,3.9351207191671853,4.055314044673036,4.133674035471491,4.183507429631565,4.223746577764963,4.2536918259927265,4.278435610990793,4.342065550681915,4.428163464818311,4.477666367899493,4.502749134510477,4.502749134510477,4.525135060651207,4.600611938850211,4.731994311241895,4.860821889634785,4.940491608664632,4.994160847658042,5.026224132812598,5.042013387805432,5.0548619566738155,5.0548619566738155,5.0548619566738155,5.0548619566738155,5.0548619566738155,5.0548619566738155,5.067375373544907,5.074933217649197,5.079562814202909,5.079562814202909,5.079562814202909,5.079562814202909,5.079562814202909,5.079562814202909,5.079562814202909,5.079562814202909,5.235987755982988]],"response_history":["2","5"],"rt":19524,"trial_type":"polygon-arrow-question","trial_index":0,"trial_index_global":5,"time_elapsed":617656,"internal_chunk_id":" 0-0.3-0"},{"nsides":6,"feedback":"Correct! 3 <img src=./images/hexagon_symbol.png style=width:14px;height:14px> 2 = 5 because 2 steps clockwise on the hexagon from 3 brings us to 5. Equivalently, 3 + 2 = 5 and 5 is less than 6.","orientation_history":[0],"rt":1083,"trial_type":"polygon-arrow-feedback","trial_index":0,"trial_index_global":6,"time_elapsed":618740,"internal_chunk_id":"0-0.3-0"},{"nsides":6,"question":"What is 1 <img src=./images/hexagon_symbol.png style=width:14px;height:14px> 5? Try to solve this probem using the arithmetic technique. <br /><br /> (Remember, to perform <img src=./images/hexagon_symbol.png style=width:14px;height:14px> by arithmetic, you start with the first number, and then add the second one to it. If the sum is smaller than 6, that's your result. If the sum is 6 or bigger, you subtract 6 to get your result.)","response_type":"free","response_choices":[],"correct_response":"0","response":"0","orientation_history":[[0]],"response_history":["0"],"rt":11426,"trial_type":"polygon-arrow-question","trial_index":0,"trial_index_global":7,"time_elapsed":630168,"internal_chunk_id":"0-0.3-0"},{"nsides":6,"feedback":"Correct! 1 <img src=./images/hexagon_symbol.png style=width:14px;height:14px> 5 = 0 because 1 + 5 = 6 and 6 - 6 = 0.  Equivalently, 5 steps clockwise on the hexagon from 1 brings us to 0.","orientation_history":[0],"rt":911,"trial_type":"polygon-arrow-feedback","trial_index":0,"trial_index_global":8,"time_elapsed":631080,"internal_chunk_id":"0-0.3-0"},{"nsides":6,"question":"What is 1 <img src=./images/hexagon_symbol.png style=width:14px;height:14px> 1? Try to solve this problem using the hexagon. <br /><br /> (Remember, to perform <img src=./images/hexagon_symbol.png style=width:14px;height:14px> on the hexagon, you can use the interactive diagram on the right, or perform the operation in your mind. Point the arrow at the first number on the hexagon, and then move the ar row the  second number of points clockwise around the hexagon.)","response_type":"free","response_choices":[],"correct_response":"2","response":"2","orientation_history":[[0],[0,0,0.029384235020220473,-6.195007192383443,-6.13651639736322,-6.064424050773275,-6.036051032528049,-5.99411758665465,-5.935361763938928,-5.935361763938928,-5.935361763938928,-5.935361763938928,-5.935361763938928,-5.799253666965779,-5.775448640780708,-5.734535811005269,-5.705388058142253,-5.683225440627357,-5.6616566336370004,-5.623226297841988,-5.593138143475404,-5.539692377578307,-5.478486396421366,-5.421451203948813,-5.390291134417234,-5.390291134417234,-5.390291134417234,-5.382950218630459,-5.3516911684739545,-5.3447561293942005,-5.3447561293942005,-5.337938868663255,-5.337938868663255,-5.337938868663255,-5.2923229759633745,-5.256302526534186,-5.2213313671372585,-5.201602105715992,-5.201602105715992,-5.201602105715992,-5.201602105715992,-5.201602105715992,-5.201602105715992,-5.201602105715992,-5.201602105715992,-5.201602105715992,-5.201602105715992,-5.201602105715992,-5.201602105715992,-5.201602105715992,-5.201602105715992,-5.201602105715992,-5.201602105715992,-5.201602105715992,-5.201602105715992,-5.201602105715992,-5.201602105715992,-5.201602105715992,-5.210489332913497,-5.210489332913497,-5.210489332913497,-5.210489332913497,-5.210489332913497,-5.210489332913497,-5.210489332913497,-5.201602105715992,-5.201602105715992,-5.122602009679934,-5.033213022148411,-4.963740760130338,-4.8982043511185225,-4.843566298989699,-4.790142360006535,-4.790142360006535,-4.790142360006535,-4.59152803171684,-4.55450791584291,-4.55450791584291,-4.526402868382454,-4.46365811315684,-4.427765675040714,-4.394944599463182,-4.371754113916918,-4.363307576172213,-4.338239310577184,-4.30237922134453,-4.286183241308006,-4.270195362795246,-4.270195362795246,-4.270195362795246,-4.270195362795246,-4.270195362795246,-4.270195362795246,-4.270195362795246,-4.270195362795246,-4.270195362795246,-4.270195362795246,-4.270195362795246,2.0943951023931953]],"response_history":["2"],"rt":8143,"trial_type":"polygon-arrow-question","trial_index":0,"trial_index_global":9,"time_elapsed":639224,"internal_chunk_id":"0-0.3-0"},{"nsides":6,"feedback":"Correct! 1 <img src=./images/hexagon_symbol.png style=width:14px;height:14px> 1 = 2 because 1 step clockwise on the hexagon from 1 brings us to 2. Equivalently, 1 + 1 = 2 and 2 is less than 6.","orientation_history":[0],"rt":991,"trial_type":"polygon-arrow-feedback","trial_index":0,"trial_index_global":10,"time_elapsed":640216,"internal_chunk_id":"0-0.3-0"},{"nsides":6,"question":"What is 3 <img src=./images/hexagon_symbol.png style=width:14px;height:14px> 0? Try to solve this problem using the arithmetic technique. <br /><br /> (Remember, to perform <img src=./images/hexagon_symbol.png style=width:14px;height:14px> using arithmetic, you start with the first number, and then add the second one to it. If the sum is smaller than 6, that's your  result.  If the sum is 6 or bigger, you subtract 6 to get your result.)","response_type":"free","response_choices":[],"correct_response":"3","response":"3","orientation_history":[[0]],"response_history":["3"],"rt":6684,"trial_type":"polygon-arrow-question","trial_index":0,"trial_index_global":11,"time_elapsed":646902,"internal_chunk_id":"0-0.3-0"},{"nsides":6,"feedback":"Correct! 3 <img src=./images/hexagon_symbol.png style=width:14px;height:14px> 0 = 3 because 3 + 0 = 3 and 3 - 6 = 3.  Equivalently, 0 steps clockwise on the hexagon from 3 brings us to 3.","orientation_history":[0],"rt":705,"trial_type":"polygon-arrow-feedback","trial_index":0,"trial_index_global":12,"time_elapsed":647608,"internal_chunk_id":"0-0.3-0"},{"nsides":6,"question":"What is 4 <img src=./images/hexagon_symbol.png style=width:14px;height:14px> 4? Try to solve this problem using the hexagon. <br /><br /> (Remember, to perform <img src=./images/hexagon_symbol.png style=width:14px;height:14 px> on  the hexagon, you can use the interactive diagram on the right, or perform the operation in your mind. Point the arrow at the first number on the hexagon, and then move the arrow the second number of points clockwise around the hexagon.)","response_type":"free","response_choices":[],"correct_response":"2","response":"2","orientation_history":[[0],[0.002652513673004453,0.004039475335666065,0.004039475335666065,0.024419757302449385,0.1346535671086242,0.4232233387500488,0.9389564969650335,1.295359840823482,1.4974937756450073,1.5934461744410515,1.685447622414632,1.7880120870610774,1.9520544806929172,2.128747059573267,2.2854267878591337,2.472502981264726,2.70802969948034,2.882436674645871,3.0418211169122937,3.1793547008225804,3.3450420745399194,3.3450420745399194,3.3450420745399194,3.90913839242777,3.9588252513701496,4.004955165955773,4.022813943937064,4.032510550652955,4.061373796928302,4.061373796928302,4.061373796928302,4.0827673640246,4.094792008074873,4.1323504552892105,4.16388856152462,4.183023299548309,4.192469371384601,4.195975810921752,4.192980880291397,4.189946464575965,4.189946464575965,4.186871834739496,4.183756245336123,4.183756245336123,4.183756245336123,4.183756245336123,4.183756245336123,4.183756245336123,4.1887902047863905],[4.1887902047863905,4.1887902047863905,4.1887902047863905,4.1887902047863905,4.1887902047863905,4.404569801528441,4.522551305231896,4.587887002937692,4.647567084766599,4.670688214438013,4.704617747144559,4.748841184044468,4.811843796118247,4.862852993700531,4.8914834566940035,4.909173089183805,4.938898620186613,4.9650733391278346,4.987314362738288,5.015631419943179,5.034186194856351,5.052473872776879,5.0704882152005135,5.0704882152005135,5.0704882152005135,5.0704882152005135,5.0704882152005135,5.0704882152005135,5.0704882152005135,5.0704882152005135,5.0704882152005135,5.0704882152005135,5.0704882152005135,5.0704882152005135,5.0704882152005135,5.0704882152005135,5.0704882152005135,5.065383270141982,5.074421803278214,5.1095685200396135,5.157762373361201,5.217793783066544,5.239197241930664,5.239197241930664,5.239197241930664,5.239197241930664,5.239197241930664,5.239197241930664,5.239197241930664,5.239197241930664,5.239197241930664,5.239197241930664,5.239197241930664,5.239197241930664,5.239197241930664,5.239197241930664,5.239197241930664,5.239197241930664,5.239197241930664,5.239197241930664,5.239197241930664,5.239197241930664,5.239197241930664,5.239197241930664,5.239197241930664,5.239197241930664,5.239197241930664,5.239197241930664,5.239197241930664,5.239197241930664,5.239197241930664,5.239197241930664,5.239197241930664,5.239197241930664,5.239197241930664,5.239197241930664,5.239197241930664,5.239197241930664,5.239197241930664,5.239197241930664,5.239197241930664,5.239197241930664,5.239197241930664,5.239197241930664,5.239197241930664,5.239197241930664,5.239197241930664,5.239197241930664,5.239197241930664,5.239197241930664,5.239197241930664,5.239197241930664,5.239197241930664,5.239197241930664,5.239197241930664,5.239197241930664,5.239197241930664,5.239197241930664,5.239197241930664,5.239197241930664,5.239197241930664,5.239197241930664,5.239197241930664,5.239197241930664,5.239197241930664,5.239197241930664,5.239197241930664,5.239197241930664,5.239197241930664,5.239197241930664,5.239197241930664,5.239197241930664,5.239197241930664,5.239197241930664,5.239197241930664,5.239197241930664,5.239197241930664,5.239197241930664,5.239197241930664,5.239197241930664,5.239197241930664,5.239197241930664,5.239197241930664,5.239197241930664,5.239197241930664,5.244508905702662,5.249907091736481,5.264096870658395,5.296432610388599,5.317462435557707,5.317462435557707,5.317462435557707,5.818319451085984,5.9041916792452085,5.908240240121237,5.908240240121237,5.920287849975423,5.978988107874844,6.07276274354131,6.18404613870976,-0.019873516783460055,-0.019873516783460055,-0.019873516783460055,-0.009266745584817437,0.022746123604187263,0.022746123604187263,0.022746123604187263,0.022746123604187263,0.022746123604187263,0.022746123604187263,0.022746123604187263,0.022746123604187263,0.022746123604187263,0.022746123604187263,0.022746123604187263,0.06710096426624679,0.22828478586633527,0.4104530963390989,0.5415647448216455,0.6645106280417723,0.7407504511683525,0.8181979419299817,0.8915552916396579,0.9120571505282192,0.9295992105856218,0.9295992105856218,0.9295992105856218,0.9295992105856218,1.0253905472936231,1.1441046680267117,1.183899637595639,1.183899637595639,1.183899637595639,1.183899637595639,1.183899637595639,1.183899637595639,1.183899637595639,1.1958512597365472,1.364952485737924,1.5906423794363087,1.8036532558505076,1.9442293072600654,1.9946414796102405,1.9946414796102405,1.9946414796102405,1.9946414796102405,1.9946414796102405,1.9946414796102405,1.9946414796102405,1.9946414796102405,1.9946414796102405,1.9946414796102405,1.9946414796102405,1.9946414796102405,1.9946414796102405,1.9946414796102405,1.9946414796102405,1.9946414796102405,1.9946414796102405,1.9946414796102405,2.0943951023931953]],"response_history":["2"],"rt":7120,"trial_type":"polygon-arrow-question","trial_index":0,"trial_index_global":13,"time_elapsed":654729,"internal_chunk_id":"0-0.3-0"},{"nsides":6,"feedback":"Correct! 4 <img src=./images/hexagon_symbol.png style=width:14px;height:14px> 4 = 2 because 4 steps clockwise on the hexagon from 4 brings us to 2. Equivalently, 4 + 4 = 8 and 8 - 6 = 2.","orientation_history":[0],"rt":596,"trial_type":"polygon-arrow-feedback","trial_index":0,"trial_index_global":14,"time_elapsed":655326,"internal_chunk_id":"0-0.3-0"},{"nsides":6,"question":"What is 1 <img src=./images/hexagon_symbol.png style=width:14px;height:14px> 3? Try to solve this problem using the arithmetic technique. <br /><br /> (Remember, to perform <img src=./images/hexagon_symbol.png style=width:14px;height:14px> by arithmetic, you start with the first number, and then add the second one to it. If the sum is smaller than 6, that's your result. If the sum is 6 or bi gger, yo u subtract 6 to get your result.)","response_type":"free","response_choices":[],"correct_response":"4","response":"4","orientation_history":[[0]],"response_history":["4"],"rt":2218,"trial_type":"polygon-arrow-question","trial_index":0,"trial_index_global":15,"time_elapsed":657544,"internal_chunk_id":"0-0.3-0"},{"nsides":6,"feedback":"Correct! 1 <img src=./images/hexagon_symbol.png style=width:14px;height:14px> 3 = 4 because 1 + 3 = 4 and 4 - 6 = 4.  Equivalently, 3 steps clockwise on the hexagon from 1 brings us to 4.","orientation_history":[0],"rt":699,"trial_type":"polygon-arrow-feedback","trial_index":0,"trial_index_global":16,"time_elapsed":658244,"internal_chunk_id":"0-0.3-0"},{"nsides":6,"question":"What is 4 <img src=./images/hexagon_symbol.png style=width:14px;height:14px> 3? <br /><br /> (Remember, to perform <img src=./images/hexagon_symbol.png style=width:14px;height:14px>, you can either use a method based on the hexagon at right, or a met hod base d on arithmetic.<br /><br /><b>Hexagon method:</b> you can use the interactive diagram on the right, or perform the operation in your mind. Point the arrow at the first number, then move the arrow the second number of points clockwise around the hexagon. The number the arrow arrives at is your result. <br /><br /><b>Arithmetic method:</b> you start with the first number, and then add the second one to it. If the sum is smaller than 6, that's your result. If the sum is 6 or bigger, you subtract 6 to get your result.)","response_type":"free","response_choices":[],"correct_response":"1","response":"1","orientation_history":[[0]],"response_history":["1"],"rt":7769,"trial_type":"polygon-arrow-question","trial_index":0,"trial_index_global":17,"time_elapsed":666014,"internal_chunk_id":"0-0.3-0"},{"nsides":6,"feedback":"Correct! 4 <img src=./images/hexagon_symbol.png style=width:14px;height:14px> 3 = 1 because 3 steps clockwise on the hexagon from 4 brings us to 1. Equivalen tly, 4 +  3 = 7 and 7 - 6 = 1.","orientation_history":[0],"rt":779,"trial_type":"polygon-arrow-feedback","trial_index":0,"trial_index_global":18,"time_elapsed":666794,"internal_chunk_id":"0-0.3-0"},{"nsides":6,"question":"What is 0 <img src=./images/hexagon_symbol.png style=width:14px;height:14px> 5? <br /><br /> (Remember, to perform <img src=./images/hexagon_symbol.png style=width:14px;height:14px>, you can either use a method based on the hexagon at right, or a method based on arithmetic.<br /><br /><b>Hexagon method:</b> you can use the interactive diagram on the right, or perform the operation in your mind. Point the arrow at the first number, then move the arrow the second number of points clockwise around the hexagon. The number the arrow arrives at is your result. <br /><br /><b>Arithmetic method:</b> you start with the first number, and then add the second one to it. If the sum is smaller than 6, that's your result. If the sum is 6 or bigger, you subtract 6 t o get yo ur result.)","response_type":"free","response_choices":[],"correct_response":"5","response":"5","orientation_history":[[0]],"response_history":["5"],"rt":3482,"trial_type":"polygon-arrow-question","trial_index":0,"trial_index_global":19,"time_elapsed":670276,"internal_chunk_id":"0-0.3-0"},{"nsides":6,"feedback":"Correct! 0 <img src=./images/hexagon_symbol.png style=width:14px;height:14px> 5 = 5 because 5 steps clockwise on the hexagon from 0 brings us to 5. Equivalently, 0 + 5 = 5 and 5 is less than 6.","orientation_history":[0],"rt":749,"trial_type":"polygon-arrow-feedback","trial_index":0,"trial_index_global":20,"time_elapsed":671026,"internal_chunk_id":"0-0.3-0"},{"nsides":6,"question":"What is 2 <img src=./images/hexagon_symbol.png style=width:14px;height:14px> 5? <br /><br /> (Remember, to perform <img src=./images/hexagon_symbol.png style=width:14px;height:14px>, you can either use a method based on the hexagon at right, or a method based on ari thmetic. <br /><br /><b>Hexagon method:</b> you can use the interactive diagram on the right, or perform the operation in your mind. Point the arrow at the first number, then move the arrow the second number of points clockwise around the hexagon. The number the arrow arrives at is your result. <br /><br /><b>Arithmetic method:</b> you start with the first number, and then add the second one to it. If the sum is smaller than 6, that's your result. If the sum is 6 or bigger, you subtract 6 to get your result.)","response_type":"free","response_choices":[],"correct_response":"1","response":"1","orientation_history":[[0]],"response_history":["1"],"rt":2588,"trial_type":"polygon-arrow-question","trial_index":0,"trial_index_global":21,"time_elapsed":673614,"internal_chunk_id":"0-0.3-0"},{"nsides":6,"feedback":"Correct! 2 <img src=./images/hexagon_symbol.png style=width:14px;height:14px> 5 = 1 because 5 steps clockwise on the hexagon from 2 brings us to 1. Equivalently, 2 + 5 = 7 a nd 7 - 6  = 1.","orientation_history":[0],"rt":834,"trial_type":"polygon-arrow-feedback","trial_index":0,"trial_index_global":22,"time_elapsed":674448,"internal_chunk_id":"0-0.3-0"},{"nsides":6,"instructions":"Now we're going to discuss a couple special properties of this new operation, <img src=./images/hexagon_symbol.png style=width:14px;height:14px> that we've learned. First, notice that the number 0 behaves in a special way under <img src=./images/hexagon_symbol.png style=width:14px;height:14px>. Whenever we combine 0 with anything else, we get that same thing back. We'll say that 0 is the <i>identity</i> under <img src=./images/hexagon_symbol.png style=width:14px;height:14px>, because when you combine it with something it gives you that identical thing back.","orientation_history":[0],"rt":11812,"trial_type":"polygon-arrow-instructions","trial_index":0,"trial_index_global":23,"time_elapsed":686263,"internal_chunk_id":"0-0"},{"nsides":6,"instructions":"Now  that we  know 0 is the identity under <img src=./images/hexagon_symbol.png style=width:14px;height:14px>, we're going to make a new definition. We'll say that the <i>inverse</i> of a number is the element that you combine with it to produce the identity. For example, 5 <img src=./images/hexagon_symbol.png style=width:14px;height:14px> 1 = 0, so we say 1 is the inverse of 5 under <img src=./images/hexagon_symbol.png style=width:14px;height:14px>, (remember 0 is the identity under <img src=./images/hexagon_symbol.png style=width:14px;height:14px>). Similarly, 3 is its own inverse under <img src=./images/hexagon_symbol.png style=width:14px;height:14px>, because 3 <img src=./images/hexagon_symbol.png style=width:14px;height:14px> 3 = 0.","orientation_history":[0],"rt":13697,"trial_type":"polygon-arrow-instructions","trial_index":0,"trial_index_global":24,"time_elapsed":699960,"internal_chunk_id":"0-0"},{"nsides":6,"question":"Now you try!  What is  the inverse of 4 under <img src=./images/hexagon_symbol.png style=width:14px;height:14px>? <br /><br /> (Remember, the inverse of an element is the thing which you combine with it to produce the identity.)","response_type":"free","response_choices":[],"correct_response":"2","response":"2","orientation_history":[[0]],"response_history":["2"],"rt":4721,"trial_type":"polygon-arrow-question","trial_index":0,"trial_index_global":25,"time_elapsed":704682,"internal_chunk_id":"0-0.7-0"},{"nsides":6,"feedback":"Correct! The inverse of 4 under <img src=./images/hexagon_symbol.png style=width:14px;height:14px> is 2 because 4 <img src=./images/hexagon_symbol.png style=width:14px;height:14px> 2 = 0, and 0 is the identity under <img src=./images/hexagon_symbol.png style=width:14px;height:14px>.","orientation_history":[0],"rt":786,"trial_type":"polygon-arrow-feedback","trial_index":0,"trial_index_global":26,"time_elapsed":705469,"internal_chunk_id":"0-0.7-0"},{"nsides":6,"question":"What is the inverse of 1 under <img src=./images/hexagon_symbol.png style=width:14px;height:14px>? <br /><br /> (Remember, the inverse of an element is the thing which you combine with it to produce the identity.)","response_type":"free","response_choices":[],"correct_response":"5","response":"5","orientation_history":[[0]],"response_history":["5"],"rt":2160,"trial_type":"polygon-arrow-question","trial_index":0,"trial_index_global":27,"time_elapsed":707630,"internal_chunk_id":"0-0.7-0"},{"nsides":6,"feedback":"Correct! The inverse of 1 under <img src=./images/hexagon_symbol.png style=width:14px;height:14px> is 5 because 1 <img src=./images/hexagon_symbol.png style=width:14px;height:14px> 5 = 0, and 0 is the identity under <img src=./images/hexagon_symbol.png style=width:14px;height:14px>.","orientation_history":[0],"rt":698,"trial_type":"polygon-arrow-feedback","trial_index":0,"trial_index_global":28,"time_elapsed":708329,"internal_chunk_id":"0-0.7-0"},{"nsides":6,"question":"What is the inverse of 3 under <img src=./images/hexagon_symbol.png style=width:14px;height:14px>? <br /><br /> (Remember, the inverse of an element is the thing which you combine with it to produce the identity.)","response_type":"free","response_choices":[],"correct_response":"3","response":"3","orientation_history":[[0]],"response_history":["3"],"rt":1388,"trial_type":"polygon-arrow-question","trial_index":0,"trial_index_global":29,"time_elapsed":709718,"internal_chunk_id":"0-0.7-0"},{"nsides":6,"feedback":"Correct! The inverse of 3 under <img src=./images/hexagon_symbol.png style=width:14px;height:14px> is 3 because 3 <img src=./images/hexagon_symbol.png style=width:14px;height:14px> 3 = 0, and 0 is the identity under <img src=./images/hexagon_symbol.png style=width:14px;height:14px>.","orientation_history":[0],"rt":667,"trial_type":"polygon-arrow-feedback","trial_index":0,"trial_index_global":30,"time_elapsed":710386,"internal_chunk_id":"0-0.7-0"},{"nsides":6,"question":"What is the inverse of 2 under <img src=./images/hexagon_symbol.png style=width:14px;height:14px>? <br /><br /> (Remember, the inverse of an element is the thing which you combine with it to produce the identity.)","response_type":"free","response_choices":[],"correct_response":"4","response":"4","orientation_history":[[0]],"response_history":["4"],"rt":1294,"trial_type":"polygon-arrow-question","trial_index":0,"trial_index_global":31,"time_elapsed":711681,"internal_chunk_id":"0-0.7-0"},{"nsides":6,"feedback":"Correct! The inverse of 2 under <img src=./images/hexagon_symbol.png style=width:14px;height:14px> is 4 because 2 <img src=./images/hexagon_symbol.png style=width:14px;height:14px> 4 = 0, and 0 is the identity under <img src=./images/hexagon_symbol.png style=width:14px;height:14px>.","orientation_history":[0],"rt":640,"trial_type":"polygon-arrow-feedback","trial_index":0,"trial_index_global":32,"time_elapsed":712322,"internal_chunk_id":"0-0.7-0"},{"nsides":6,"question":"What is the inverse of 0 under <img src=./images/hexagon_symbol.png style=width:14px;height:14px>? <br /><br /> (Remember, the inverse of an element is the thing which you combine with it to produce the identity.)","response_type":"free","response_choices":[],"correct_response":"0","response":"6","orientation_history":[[0]],"response_history":["6"],"rt":6447,"trial_type":"polygon-arrow-question","trial_index":0,"trial_index_global":33,"time_elapsed":718769,"internal_chunk_id":"0-0.7-0"},{"nsides":6,"feedback":"Sorry, that was incorrect. The inverse of 0 under <img src=./images/hexagon_symbol.png style=width:14px;height:14px> is 0 because 0 <img src=./images/hexagon_symbol.png style=width:14px;height:14px> 0 = 0, and 0 is the identity under <img src=./images/hexagon_symbol.png style=width:14px;height:14px>.","orientation_history":[0],"rt":1724,"trial_type":" polygon-arrow-feedback","trial_index":0,"trial_index_global":34,"time_elapsed":720493,"internal_chunk_id":"0-0.7-0"},{"nsides":6,"instructions":"It is also possible to successively apply <img src=./images/hexagon_symbol.png style=width:14px;height:14px>, and the operation can simply be performed starting with the left-most pair. For example, 2 <img src=./images/hexagon_symbol.png style=width:14px;height:14px> 3 <img src=./images/hexagon_symbol.png style=width:14px;height:14px> 4 = 5 <img src=./images/hexagon_symbol.png style=width:14px;height:14px> 4 = 3.","orientation_history":[0],"rt":27007,"trial_type":"polygon-arrow-instructions","trial_index":0,"trial_index_global":35,"time_elapsed":747501,"internal_chunk_id":"0-0"},{"nsides":6,"instructions":"We have one last definition to learn today, using the successive operations we just learned. Let's start with an example. Under our operation <img src=./images/hexagon_symbol.png style=width:1 4px;heig ht:14px> we can make every other number using just 1: 2 = 1 <img src=./images/hexagon_symbol.png style=width:14px;height:14px> 1, 3 = 1 <img src=./images/hexagon_symbol.png style=width:14px;height:14px> 1 <img src=./images/hexagon_symbol.png style=width:14px;height:14px> 1, 4 = 1 <img src=./images/hexagon_symbol.png style=width:14px;height:14px> 1 <img src=./images/hexagon_symbol.png style=width:14px;height:14px> 1 <img src=./images/hexagon_symbol.png style=width:14px;height:14px> 1, 5 = 1 <img src=./images/hexagon_symbol.png style=width:14px;height:14px> 1 <img src=./images/hexagon_symbol.png style=width:14px;height:14px> 1 <img src=./images/hexagon_symbol.png style=width:14px;height:14px> 1 <img src=./images/hexagon_symbol.png style=width:14px;height:14px> 1, and 0 = 1 <img src=./images/hexagon_symbol.png style=width:14px;height:14px> 1 <img src=./images/hexagon_symbol.png style=width:1 4px;height:14px> 1 <img src=./images/hexagon_symbol.png style=width:14px;height:14px> 1 <img src=./images/hexagon_symbol.png style=width:14px;height:14px> 1 <img src=./images/hexagon_symbol.png style=width:14px;height:14px> 1. Because 1 can make every other element under <img src=./images/hexagon_symbol.png style=width:14px;height:14px>, we say that 1 is a <i>generator</i> under <img src=./images/hexagon_symbol.png style=width:14px;height:14px>. <br /><br /> However, 2 is not a generator under <img src=./images/hexagon_symbol.png style=width:14px;height:14px>, because 4 = 2 <img src=./images/hexagon_symbol.png style=width:14px;height:14px> 2, and 0 = 2 <img src=./images/hexagon_symbol.png style=width:14px;height:14px> 2 <img src=./images/hexagon_symbol.png style=width:14px;height:14px> 2, but there is no way to make 1, 3, or 5 using just 2.","orientation_history":[0],"rt":40389,"trial_type":"polygon-ar row-inst ructions","trial_index":0,"trial_index_global":36,"time_elapsed":787891,"internal_chunk_id":"0-0"},{"nsides":6,"question":"Now you try! Is 3 a generator under <img src=./images/hexagon_symbol.png style=width:14px;height:14px>? <br /><br /> (Remember, a generator is an element which can make every other element.)","response_type":"multi","response_choices":["Yes","No"],"correct_response":"No","response":"No","orientation_history":[[0]],"response_history":["No"],"rt":16001,"trial_type":"polygon-arrow-question","trial_index":0,"trial_index_global":37,"time_elapsed":803893,"internal_chunk_id":"0-0.10-0"},{"nsides":6,"feedback":"Correct! 3 is not a generator under <img src=./images/hexagon_symbol.png style=width:14px;height:14px>, because 3 = 3, 0 = 3 <img src=./images/hexagon_symbol.png style=width:14px;height:14px> 3, but there is no way to make 1, 2, 4, or 5 using just 3.","orientation_history":[0],"rt":972,"trial_type":"polygon-arrow-feedback","trial_index":0,"trial_index_global":38,"time_elapsed":804866,"internal_chunk_id":"0-0.10-0"},{"nsides":6,"question":"Is 5 a generator under <img src=./images/hexagon_symbol.png style=width:14px;height:14px>? <br /><br /> (Remember, a generator is an element which can make every other element.)","response_type":"multi","response_choices":["Yes","No"],"correct_response":"Yes","response":"Yes","orientation_history":[[0]],"response_history":["Yes"],"rt":8450,"trial_type":"polygon-arrow-question","trial_index":0,"trial_index_global":39,"time_elapsed":813317,"internal_chunk_id":"0-0.10-0"},{"nsides":6,"feedback":"Correct! 5 is a generator under <img src=./images/hexagon_symbol.png style=width:14px;height:14px>, because 5 = 5, 4 = 5 <img src=./images/hexagon_symbol.png style=width:14px;height:14px> 5, 3 = 5 <img src=./images/hexagon_symbol.png style=width:14px;height:14px> 5 <img src=./images/hexagon_symbol.png style=width:14px;height:14px> 5, 2 = 5 <img sr c=./im ages/hexagon_symbol.png style=width:14px;height:14px> 5 <img src=./images/hexagon_symbol.png style=width:14px;height:14px> 5 <img src=./images/hexagon_symbol.png style=width:14px;height:14px> 5, 1 = 5 <img src=./images/hexagon_symbol.png style=width:14px;height:14px> 5 <img src=./images/hexagon_symbol.png style=width:14px;height:14px> 5 <img src=./images/hexagon_symbol.png style=width:14px;height:14px> 5 <img src=./images/hexagon_symbol.png style=width:14px;height:14px> 5, and 0 = 5 <img src=./images/hexagon_symbol.png style=width:14px;height:14px> 5 <img src=./images/hexagon_symbol.png style=width:14px;height:14px> 5 <img src=./images/hexagon_symbol.png style=width:14px;height:14px> 5 <img src=./images/hexagon_symbol.png style=width:14px;height:14px> 5 <img src=./images/hexagon_symbol.png style=width:14px;height:14px> 5, so you can make all of the numbers under <img src=./images/ hexagon_ symbol.png style=width:14px;height:14px> using 5","orientation_history":[0],"rt":1424,"trial_type":"polygon-arrow-feedback","trial_index":0,"trial_index_global":40,"time_elapsed":814741,"internal_chunk_id":"0-0.10-0"},{"nsides":6,"question":"Is 4 a generator under <img src=./images/hexagon_symbol.png style=width:14px;height:14px>? <br /><br /> (Remember, a generator is an element which can make every other element.)","response_type":"multi","response_choices":["Yes","No"],"correct_response":"No","response":"No","orientation_history":[[0]],"response_history":["No"],"rt":8019,"trial_type":"polygon-arrow-question","trial_index":0,"trial_index_global":41,"time_elapsed":822761,"internal_chunk_id":"0-0.10-0"},{"nsides":6,"feedback":"Correct! 4 is not a generator under <img src=./images/hexagon_symbol.png style=width:14px;height:14px>, because 4 = 4, 2 = 4 <img src=./images/hexagon_symbol.png style=width:14px;height:14px> 4, and 0 = 4 <img src=./imag es/hexag on_symbol.png style=width:14px;height:14px> 4 <img src=./images/hexagon_symbol.png style=width:14px;height:14px> 4, but there is no way to make 1, 3, or 5 using just 4.","orientation_history":[0],"rt":783,"trial_type":"polygon-arrow-feedback","trial_index":0,"trial_index_global":42,"time_elapsed":823545,"internal_chunk_id":"0-0.10-0"},{"nsides":6,"question":"Is 0 a generator under <img src=./images/hexagon_symbol.png style=width:14px;height:14px>? <br /><br /> (Remember, a generator is an element which can make every other element.)","response_type":"multi","response_choices":["Yes","No"],"correct_response":"No","response":"No","orientation_history":[[0]],"response_history":["No"],"rt":6531,"trial_type":"polygon-arrow-question","trial_index":0,"trial_index_global":43,"time_elapsed":830077,"internal_chunk_id":"0-0.10-0"},{"nsides":6,"feedback":"Correct! 0 is not a generator under <img src=./images/hexagon_symbol.png style=width:14px;height:14px>,  because  0 = 0, but there is no way to make 1, 2, 3, 4, or 5 using just 0.","orientation_history":[0],"rt":1359,"trial_type":"polygon-arrow-feedback","trial_index":0,"trial_index_global":44,"time_elapsed":831437,"internal_chunk_id":"0-0.10-0"},{"nsides":9,"instructions":"Now we are going to ask you some questions about a new operation, <img src=./images/nonagon_symbol.png style=width:14px;height:14px>, on the numbers 0, 1, 2, 3, 4, 5, 6, 7, 8. It works exactly like <img src=./images/hexagon_symbol.png style=width:14px;height:14px>, except now you use the nonagon shown at the right. Equivalently, after adding the two numbers you subtract 9 if your result is 9 or greater.<br /><br />Do you see how the different ways of performing <img src=./images/nonagon_symbol.png style=width:14px;height:14px> give the same result, just like with <img src=./images/hexagon_symbol.png style=width:14px;height:14px>? By labeling the points of the nonagon with the numbers  from 0 t o 8, we ensure that when we combine two numbers under <img src=./images/nonagon_symbol.png style=width:14px;height:14px>, we only produce numbers between 0 and 8. When we use the arithmetic strategy, adding the second number to the first mimics counting around the nonagon, and subtracting 9 each time we get above 8 makes sure the results correspond to the numbers on the points of the nonagon.<br /><br />We'll give you one practice question with feedback to make sure you understand the new operation. After that, try to complete the remaining questions as accurately as possible.","orientation_history":[0],"rt":46599,"trial_type":"polygon-arrow-instructions","trial_index":0,"trial_index_global":45,"time_elapsed":878037,"internal_chunk_id":"0-0"},{"nsides":9,"question":"Practice: What is 5 <img src=./images/nonagon_symbol.png style=width:14px;height:14px> 5?","response_type":"free","response_choices":[],"correct_response":"1","response":"1","orientation_history":[[0],[6.0892261599196935,6.0892261599196935,6.0892261599196935,6.0892261599196935,6.0892261599196935,6.12383366627567,6.170457695589208,6.222037144530285,0.02272336084164106,0.12750955821523813,0.26625204915092526,0.448723344010721,0.7298996581517314,1.0679531158670357,1.0679531158670357,1.0679531158670357,1.0679531158670357,2.4149503129080676,2.5681521274349643,2.718738727456852,2.8411154852172125,2.920278211242002,2.9708574421145104,3.0609597776446194,3.178273441346445,3.277501755810044,3.343712587739287,3.380824253553454,3.380824253553454,3.378966900562964,3.384688079771637,3.384688079771637,3.384688079771637,3.384688079771637,3.384688079771637,3.384688079771637,3.384688079771637,3.384625793879472,3.378712932314456,3.3806307925382626,3.3845592469972914,3.3865713167166573,3.3865713167166573,3.3967750442106115,3.4363227587991707,3.4742123451637053,3.5013683486476097,3.5093811154805863,3.5093811154805863,3.5124839424024557,3.5124839424024557,3.5124839424024557,3.490658503988659],[3.490658503988659,3.490658503988659,3.4779254078580935,3.4779254078580935,3.490658503988659,3.490658503988659,3.490658503988659,3.490658503988659,3.490658503988659,3.490658503988659,3.490658503988659,3.490658503988659,3.490658503988659,3.490658503988659,3.490658503988659,3.5032364570009418,3.515658178322897,3.54002966114743,3.5823393463798463,3.6614131358307254,3.7410723844583926,3.852007460584849,3.9546895485534956,4.002583178681071,4.019093109427912,4.019093109427912,4.025639888717471,4.03549657352494,4.03549657352494,4.03549657352494,4.03549657352494,4.051785859451471,4.051785859451471,4.051785859451471,4.051785859451471,4.051785859451471,4.051785859451471,4.051785859451471,4.051785859451471,4.051785859451471,4.051785859451471,4.051785859451471,4.051785859451471,4.051785859451471,4.051785859451471,4.051785859451471,4.094154504183285,4.199320627405168,4.3654065116681675,4.554886669549315,4.673459292691945,4.721042395968928,4.74095126959466,4.74095126959466,4.74095126959466,4.7690404369814345,4.7674954401419924,4.7674954401419924,4.7674954401419924,4.7674954401419924,4.862075146553218,4.862075146553218,4.862075146553218,4.862075146553218,4.862075146553218,4.862075146553218,4.862075146553218,4.862075146553218,4.862075146553218,4.862075146553218,4.862075146553218,4.862075146553218,4.862075146553218,4.870987566542373,4.870987566542373,4.870987566542373,4.932135729191675,4.994202798083601,5.096842515340322,5.170745051699875,5.2184743621704826,5.238014600596527,5.244407894458455,5.274164314931134,5.303153010192155,5.337027515476757,5.358763222318551,5.364214881704703,5.369334480826362,5.369334480826362,5.369334480826362,5.369334480826362,5.369334480826362,5.369334480826362,5.369334480826362,5.369334480826362,5.369334480826362,5.390547783936073,5.416613658228698,5.416613658228698,5.416613658228698,5.416613658228698,5.416613658228698,5.416613658228698,5.416613658228698,5.416613658228698,5.416613658228698,5.416613658228698,5.4216842804307,5.447284149143707,5.473347622323356,5.489260119351069,5.499575678649524,5.499575678649524,5.499575678649524,5.499575678649524,5.5098691173606404,5.531780756229864,5.536214118187633,5.536214118187633,5.536214118187633,5.536214118187633,5.536214118187633,5.536214118187633,5.536214118187633,5.536214118187633,5.558356914002946,5.593178898042362,5.630505950677678,5.653647885993477,5.683648562685006,5.74877372601939,5.805029233391513,5.854480492584443,5.87923033975968,5.87923033975968,5.87923033975968,5.87923033975968,5.87923033975968,5.87923033975968,5.87923033975968,5.87923033975968,5.896451063067216,5.911493039849017,5.936202838463064,5.953214429768421,5.970088168367182,5.988297189331954,6.0198063911692365,6.036055179416525,6.043594765119579,6.043594765119579,6.043594765119579,6.052131705855672,6.067174209196587,6.083013223066697,6.11361533415343,6.11361533415343,6.11361533415343,6.11361533415343,6.11361533415343,6.11361533415343,6.11361533415343,6.11361533415343,6.11361533415343,6.11361533415343,6.11361533415343,6.121103511288542,6.158628934939625,-0.0714789386724548,0.02332018090188903,0.129539965335993,0.22226563516736153,0.2651700282285616,0.3007871434499907,0.333181740614201,0.3403704173870874,0.3546016663028364,0.36517735760901004,0.37220679081420194,0.38980537039904095,0.4532594087025603,0.5273695148067394,0.5617753345464441,0.5617753345464441,0.5617753345464441,0.5848138441689877,0.5848138441689877,0.5848138441689877,0.5848138441689877,0.5848138441689877,0.6981317007977318]],"response_history":["1"],"rt":8089,"trial_type":"polygon-arrow-question","trial_index":0,"trial_index_global":46,"time_elapsed":886127,"internal_chunk_id":"0-0.12-0"},{"nsides":9,"feedback":"Correct! 5 <img src=./images/nonagon_symbol.png style=width:14px;height:14px> 5 = 1 because 5 steps clockwise on the nonagon from 5 brings us to 1. Equivalently, 5 + 5 = 10 and 10 - 9 = 1.","orientation_history":[0],"rt":930,"trial_type":"polygon-arrow-feedback","trial_index":0,"trial_index_global":47,"time_elapsed":887058,"internal_chunk_id":"0-0.12-0"},{"nsides":9,"question":"What is 3 <img src=./images/nonagon_symbol.png style=width:14px;height:14px> 3?","response_type":"free","response_choices":[],"correct_response":"6","response":"6","orientation_history":[[0]],"response_history":["6"],"rt":3593,"trial_type":"polygon-arrow-question","trial_index":0,"trial_index_global":48,"time_elapsed":890651,"internal_chunk_id":"0-0.12-0"},{"nsides":9,"question":"What is 7 <img src=./images/nonagon_symbol.png style=width:14px;height:14px> 4?","response_type":"free","response_choices":[],"correct_response":"2","response":"2","orientation_history":[[0]],"response_history":["2"],"rt":6904,"trial_type":"polygon-arrow-question","trial_index":0,"trial_index_global":49,"time_elapsed":897556,"internal_chunk_id":"0-0.12-0"},{"nsides":9,"question":"What is 1 <img src=./images/nonagon_symbol.png style=width:14px;height:14px> 8?","response_type":"free","response_choices":[],"correct_response":" 0","response":"0","orientation_history":[[0],[0,-6.246837686160566,-6.102396107785922,-5.741256631286361,-5.402683700047395,-5.250346189540371,-5.234640674709231,-5.234640674709231,-5.234640674709231,-5.23978995978444,-5.23978995978444,-5.258394305509652,-5.293797084931902,-5.335131405699878,-5.370779635562372,-5.435358481472365,-5.515930979003849,-5.543821453354808,-5.5720967439370135,-5.600718782299964,-5.629646294620204,-5.640454799784603,-5.647926424430334,-5.647926424430334,-5.666081332592896,-5.666081332592896,-5.666081332592896,-5.666081332592896,-5.666081332592896,-5.666081332592896,-5.666081332592896,-5.666081332592896,-5.666081332592896,-5.666081332592896,-5.666081332592896,-5.666081332592896,-5.666081332592896,-5.666081332592896,-5.666081332592896,-5.666081332592896,-5.666081332592896,-5.666081332592896,-5.666081332592896,-5.666081332592896,-5.666081332592896,-5.666081332592896,-5.666081332592896,-5.666081332592896,-5.666081332592896,-5.666081332592896,-5.666081332592896,-5.666081332592896,-5.666081332592896,-5.629646294620204,-5.508134526806448,-5.396112053139766,-5.303877953177459,-5.227696341894216,-5.145469250810137,-5.058940076411613,-4.985744303908126,-4.930166108921304,-4.914977799951833,-4.87343691921555,-4.835178085164363,-4.773294557617235,-4.736209610520679,-4.736209610520679,-4.736209610520679,-4.736209610520679,-4.736209610520679,-4.736209610520679,-4.736209610520679,-4.736209610520679,-4.735495018674326,-4.735495018674326,-4.735495018674326,1.3962634015954636],[1.2908465042711055,1.2908465042711055,1.1232763516377267,0.9795042614277751,0.8906982929614964,0.8498250028230018,0.8253768505207383,0.8253768505207383,0.8253768505207383,0.6981317007977318],[1.4374460726233442,1.4374460726233442,1.4374460726233442,1.4374460726233442,1.4374460726233442,1.3962634015954636],[2.2068718294986476,2.2068718294986476,2.2068718294986476,2.2068718294986476,2.2068718294986476,2.0943951023931953],[2.784283970581693,2.784283970581693,2.788602265762883,2.788602265762883,2.788602265762883,2.788602265762883,2.792526803190927],[3.7438799997247574,3.746495056525206,3.746495056525206,3.746495056525206,3.746495056525206,3.490658503988659],[4.213929569918011,4.213929569918011,4.213929569918011,4.213929569918011,4.213929569918011,4.1887902047863905],[4.885070472002695,4.883124191859972,4.883124191859972,4.883124191859972,4.883124191859972,4.886921905584122],[5.626836939516394,5.626836939516394,5.626836939516394,5.626836939516394,5.633314857767639,5.633314857767639,5.585053606381854],[6.197375042483084,6.197375042483084,6.197375042483084,6.197375042483084,6.197375042483084,6.197375042483084,6.197375042483084,6.197375042483084,6.283185307179586]],"response_history":["0"],"rt":11507,"trial_type":"polygon-arrow-question","trial_index":0,"trial_index_global":50,"time_elapsed":909064,"internal_chunk_id":"0-0.12-0"},{"nsides":9,"question":"What is 5 <img src=./images/nonagon_symbol.png style=width:14px;height:14px> 4?","response_type":"free","response_choices":[],"correct_response":"0","response":"0","orientation_history":[[0]],"response_history":["0"],"rt":7553,"trial_type":"polygon-arrow-question","trial_index":0,"trial_index_global":51,"time_elapsed":916618,"internal_chunk_id":"0-0.12-0"},{"nsides":9,"question":"What is 6 <img src=./images/nonagon_symbol.png style=width:14px;height:14px> 6?","response_type":"free","response_choices":[],"correct_response":"3","response":"3","orientation_history":[[0]],"response_history":["3"],"rt":8435,"trial_type":"polygon-arrow-question","trial_index":0,"trial_index_global":52,"time_elapsed":925053,"internal_chunk_id":"0-0.12-0"},{"nsides":9,"question":"What is 4 <img src=./images/nonagon_symbol.png style=width:14px;height:14px> 1? Please explain in words how you got your answer.","response_type":"free","response_choices":[],"correct_response":"","response":"5 - you can either use the diagram, or add the numbers together and compare their sum to 9. Since (4+1) < 9, y ou can j ust add them together to get 5, the answer.","orientation_history":[[0]],"response_history":["5, ","5,","5 - you can ea","5 - you can either use the  ","5 - you can either use the dis","5 - you can either use the diagram, or add the numbers o","5 - you can either use the diagram, or add the numbers togt","5 - you can either use the diagram, or add the numbers together and compare eith","5 - you can either use the diagram, or add the numbers together and compare eit","5 - you can either use the diagram, or add the numbers together and compare ei","5 - you can either use the diagram, or add the numbers together and compare e","5 - you can either use the diagram, or add the numbers together and compare their sum to 9. sin","5 - you can either use the diagram, or add the numbers together and compare their sum to 9. si","5 - you can either use the diagram, or add the numbers together and compare their sum to 9. s","5 - you can either use the diagram, or add the numbers together a nd compa re their sum to 9. Since (","5 - you can either use the diagram, or add the numbers together and compare their sum to 9. Since (4+1)>","5 - you can either use the diagram, or add the numbers together and compare their sum to 9. Since (4+1) < 9, you can juust ad","5 - you can either use the diagram, or add the numbers together and compare their sum to 9. Since (4+1) < 9, you can juust a","5 - you can either use the diagram, or add the numbers together and compare their sum to 9. Since (4+1) < 9, you can juust ","5 - you can either use the diagram, or add the numbers together and compare their sum to 9. Since (4+1) < 9, you can juust","5 - you can either use the diagram, or add the numbers together and compare their sum to 9. Since (4+1) < 9, you can juus","5 - you can either use the diagram, or add the numbers together and compare their sum to 9. Since (4+1) < 9, you can juu","5 - you can either use the diagram, or add the numbers together and compare their sum to 9. Since (4 +1) < 9,  you can just add them toe","5 - you can either use the diagram, or add the numbers together and compare their sum to 9. Since (4+1) < 9, you can just add them together to s","5 - you can either use the diagram, or add the numbers together and compare their sum to 9. Since (4+1) < 9, you can just add them together to get 5, the sa","5 - you can either use the diagram, or add the numbers together and compare their sum to 9. Since (4+1) < 9, you can just add them together to get 5, the s","5 - you can either use the diagram, or add the numbers together and compare their sum to 9. Since (4+1) < 9, you can just add them together to get 5, the answer."],"rt":48427,"trial_type":"polygon-arrow-question","trial_index":0,"trial_index_global":53,"time_elapsed":973480,"internal_chunk_id":"0-0.12-0"},{"nsides":9,"question":"What is 8 <img src=./images/nonagon_symbol.png style=width:14px;height:14px> 4? Please explain in words how you got your answer.","response_type":"free","response_choices":[],"correct_response":"","response":"3 - you can use the diagram, or add them together and compare them to 9. Since (8+4) > 9, you have to subtract 9 to get a final answer, so the final answer would be (8+4)-9 = 3.","orientation_history":[[0]],"response_history":["3 - you can use the diagram, or add s","3 - you can use the diagram, or add teh","3 - you can use the diagram, or add te","3 - you can use the diagram, or add them together and compare them to n","3 - you can use the diagram, or add them together and compare them to 9. Since (*+$)","3 - you can use the diagram, or add them together and compare them to 9. Since (*+$","3 - you can use the diagram, or add them together and compare them to 9. Since (*+","3 - you can use the diagram, or add them together and compare them to 9. Since (*","3 - you can use the diagram, or add them together and compare them to 9. Since (8+4) > 9, you have to cs","3 - you can use the diagram, or add them together and compare them to 9 . Since  (8+4) > 9, you have to c","3 - you can use the diagram, or add them together and compare them to 9. Since (8+4) > 9, you have to subtract 9 to get a final s","3 - you can use the diagram, or add them together and compare them to 9. Since (8+4) > 9, you have to subtract 9 to get a final answer, ws","3 - you can use the diagram, or add them together and compare them to 9. Since (8+4) > 9, you have to subtract 9 to get a final answer, w","3 - you can use the diagram, or add them together and compare them to 9. Since (8+4) > 9, you have to subtract 9 to get a final answer, so the final s","3 - you can use the diagram, or add them together and compare them to 9. Since (8+4) > 9, you have to subtract 9 to get a final answer, so the final answer would be * ","3 - you can use the diagram, or add them together and compare them to 9. Since (8+4) > 9, you have to subtract 9 to get a final answer, so the final answer would be *","3 - you can use the diagram, or add them together and com pare the m to 9. Since (8+4) > 9, you have to subtract 9 to get a final answer, so the final answer would be (*","3 - you can use the diagram, or add them together and compare them to 9. Since (8+4) > 9, you have to subtract 9 to get a final answer, so the final answer would be (8+4)-9 = 3."],"rt":51120,"trial_type":"polygon-arrow-question","trial_index":0,"trial_index_global":54,"time_elapsed":1024601,"internal_chunk_id":"0-0.12-0"},{"nsides":9,"question":"What is the identity under <img src=./images/nonagon_symbol.png style=width:14px;height:14px>? Please explain in words how you got your answer.","response_type":"free","response_choices":[],"correct_response":"0","response":"0 is the identity, because when something is combined with 0, it always equals itself - this diagram is the same as the previous one in that regard.","orientation_history":[[0]],"response_history":["0 is the identity, because when something is combined with 0, it always equal ","0 is the identity, beca use when  something is combined with 0, it always equals itself - this diagam","0 is the identity, because when something is combined with 0, it always equals itself - this diaga","0 is the identity, because when something is combined with 0, it always equals itself - this diagram is th ","0 is the identity, because when something is combined with 0, it always equals itself - this diagram is the same as the previous on e","0 is the identity, because when something is combined with 0, it always equals itself - this diagram is the same as the previous on ","0 is the identity, because when something is combined with 0, it always equals itself - this diagram is the same as the previous one in that reta","0 is the identity, because when something is combined with 0, it always equals itself - this diagram is the same as the previous one in that ret","0 is the identity, because when something is combined with 0, it always equals itself - this diagram is the same as the previous one in that  regard."],"rt":39364,"trial_type":"polygon-arrow-question","trial_index":0,"trial_index_global":55,"time_elapsed":1063966,"internal_chunk_id":"0-0.12-0"},{"nsides":9,"question":"What is the inverse of 5 under <img src=./images/nonagon_symbol.png style=width:14px;height:14px>?","response_type":"free","response_choices":[],"correct_response":"4","response":"4, because 9-5=4.","orientation_history":[[0]],"response_history":["4, because 9-5=4."],"rt":15447,"trial_type":"polygon-arrow-question","trial_index":0,"trial_index_global":56,"time_elapsed":1079414,"internal_chunk_id":"0-0.12-0"},{"nsides":9,"question":"What is the inverse of 2 under <img src=./images/nonagon_symbol.png style=width:14px;height:14px>?","response_type":"free","response_choices":[],"correct_response":"7","response":"7, because 9-2=7.","orientation_history":[[0]],"response_history":["7, because 9-8","7, because 9-2=8","7, because 9-2=7."],"rt":12478,"trial_type":"polygon-arrow-question","trial_index":0,"trial_index_global":57,"time_elapsed":1091892,"internal_chunk_id":"0-0.12-0"},{"nsides":9,"question":"What is the inverse of 0 under <img src=./images/nonagon_symbol.png style=width:14px;height:14px>?","response_type":"free","response_choices":[],"correct_response":"0","response":"I think it's 0, because 0-0=0. I had trouble with this one before, though.","orientation_history":[[0]],"response_history":["I think it's 0, because 0-0-","I think it's 0, because 0-0=0. I had trouble with this one before ","I think it's 0, because 0-0=0. I had trouble with this one beforem th","I think it's 0, because 0-0=0. I had trouble with this one beforem t","I think it's 0, because 0-0=0. I had trouble with this one beforem ","I think it's 0, because 0-0=0. I had trouble with this one beforem","I think it's 0, because 0-0=0. I had trouble with this one before, though."],"rt":32561,"trial_type":"polygon-arrow-question","trial_index":0,"trial_index_global":58,"time_elapsed":1124454,"internal_chunk_id":"0-0.12-0"},{"nsides":9,"question":"What is the inverse of 3 under <img src=./images/nonagon_symbol.png style=width:14px;height:14px>? Please explain in words how you got your answer.","response_type":"free","response_choices":[],"correct_response":"","response":"6, because 9-3=6. You can also use the diagram in the following way - if you start at 3, how many jumps would it take to get to 0? The answer is 6, if you try it.","orientation_history":[[0]],"response_history":["6, because 9-33=6","6, because 9-33=","6, because 9-33","6, because 9-3=6. You can also use the i","6, because 9-3=6. You can also use the dig","6, because 9-3=6. You can also use the diagram in the following way - if you start at 3, how mmany","6, because 9-3=6. You can also use the diagram in the following way - if you start at 3, how mman","6, because 9-3=6. You can also use the diagram in the following way - if you start at 3, how mma","6, because 9-3=6. You can also use the diagram in t he follo wing way - if you start at 3, how mm","6, because 9-3=6. You can also use the diagram in the following way - if you start at 3, how many *","6, because 9-3=6. You can also use the diagram in the following way - if you start at 3, how many jumos","6, because 9-3=6. You can also use the diagram in the following way - if you start at 3, how many jumo","6, because 9-3=6. You can also use the diagram in the following way - if you start at 3, how many jumps would it take to get to 9? The anser","6, because 9-3=6. You can also use the diagram in the following way - if you start at 3, how many jumps would it take to get to 9? The anse","6, because 9-3=6. You can also use the diagram in the following way - if you start at 3, how many jumps would it take to get to 9? The answer is 6, f","6, because 9-3=6. You can also use the diagram in the following way - if you start at 3, how many jumps would it take to get to 9? The answer is 6, if you try it.","6, because 9-3= 6. You c an also use the diagram in the following way - if you start at 3, how many jumps would it take to get to ? The answer is 6, if you try it.","6, because 9-3=6. You can also use the diagram in the following way - if you start at 3, how many jumps would it take to get to 0? The answer is 6, if you try it."],"rt":54903,"trial_type":"polygon-arrow-question","trial_index":0,"trial_index_global":59,"time_elapsed":1179357,"internal_chunk_id":"0-0.12-0"},{"nsides":9,"question":"Is 2 a generator under <img src=./images/nonagon_symbol.png style=width:14px;height:14px>? Please explain in words how you got your answer.","response_type":"free","response_choices":[],"correct_response":"","response":"Yes - if you use the diagram and start at any number and increase it by two each time, you will find that, eventually, you will touch every number.","orientation_history":[[0]],"response_history":["Yes - if you use the id","Yes - if you use the i","Yes - if you use the diagram a nd start  at any number and increase it by two each time, yo","Yes - if you use the diagram and start at any number and increase it by two each time, y","Yes - if you use the diagram and start at any number and increase it by two each time, w","Yes - if you use the diagram and start at any number and increase it by two each time, you will find that, eventually, you will touch every number."],"rt":39768,"trial_type":"polygon-arrow-question","trial_index":0,"trial_index_global":60,"time_elapsed":1219126,"internal_chunk_id":"0-0.12-0"},{"nsides":9,"question":"Is 3 a generator under <img src=./images/nonagon_symbol.png style=width:14px;height:14px>? Please explain in words how you got your answer.","response_type":"free","response_choices":[],"correct_response":"","response":"No - use the same method, and start at any number on the wheel, and jump by three places - you will find that you only hit one-third of the numbers, no matter how many times you try it.","orientation_history":[[0]],"response_history":["No, ","No,","No - use the same method, and sst","No - use the same method, and ss","No - use the same method, and start at any number of th","No - use the same method, and start at any number of t","No - use the same method, and start at any number of ","No - use the same method, and start at any number of","No - use the same method, and start at any number on the ","No - use the same method, and start at any number on the wheel, and uj","No - use the same method, and start at any number on the wheel, and u","No - use the same method, and start at any number on the wheel, and jump by three places - you will find that you only ","No - use the same method, and start at any number on the wheel, and jump by three places - you will find that you only hit one-thur","No - use the same method, and start at any number on the wheel, and jump by three places - you will find that you only hit one-thu","No - use the sam e method , and start at any number on the wheel, and jump by three places - you will find that you only hit one-third of the numver","No - use the same method, and start at any number on the wheel, and jump by three places - you will find that you only hit one-third of the numve","No - use the same method, and start at any number on the wheel, and jump by three places - you will find that you only hit one-third of the numv","No - use the same method, and start at any number on the wheel, and jump by three places - you will find that you only hit one-third of the numbers, no matter how many times you try it."],"rt":43173,"trial_type":"polygon-arrow-question","trial_index":0,"trial_index_global":61,"time_elapsed":1262300,"internal_chunk_id":"0-0.12-0"},{"nsides":9,"question":"Is 5 a generator under <img src=./images/nonagon_symbol.png style=width:14px;height:14px>? Please explain in words how you got your answer.","response_type":"free","response_choices":[],"correct_response":"","response":"I think so - you can prove it using the same method I just used to prove the last two proofs. Eventually, you will hit every number, although it will take some times (about three to nine trips around, maybe).","orientation_history":[[0]],"response_history":["I think i","I think so - you h","I think so - you can provd","I think so - you can prove it using the same method I just used to provi","I think so - you can prove it using the same method I just used to provve th","I think so - you can prove it using the same method I just used to provve t","I think so - you can prove it using the same method I just used to provve ","I think so - you can prove it using the same method I just used to provve","I think so - you can prove it using the same method I just used to provv","I think so - you can prove it using the same method I just used to prove the p","I think so - you can prove it using the same method I just used to prove the last tw o proofs . Eventually, you will hit every ti","I think so - you can prove it using the same method I just used to prove the last two proofs. Eventually, you will hit every t","I think so - you can prove it using the same method I just used to prove the last two proofs. Eventually, you will hit every numg","I think so - you can prove it using the same method I just used to prove the last two proofs. Eventually, you will hit every number, although it will take some times (about nine truos","I think so - you can prove it using the same method I just used to prove the last two proofs. Eventually, you will hit every number, although it will take some times (about nine truo","I think so - you can prove it using the same method I just used to prove the last two proofs. Eventually, you will hit every number, although it will take some times (about nine tru","I think so - you can prove it using the same method I just used to prove the last two proofs. Eventually, you will hit every numb er, alth ough it will take some times (about nine trips","I think so - you can prove it using the same method I just used to prove the last two proofs. Eventually, you will hit every number, although it will take some times (about tnine trips","I think so - you can prove it using the same method I just used to prove the last two proofs. Eventually, you will hit every number, although it will take some times (about thrnine trips","I think so - you can prove it using the same method I just used to prove the last two proofs. Eventually, you will hit every number, although it will take some times (about threnine trips","I think so - you can prove it using the same method I just used to prove the last two proofs. Eventually, you will hit every number, although it will take some times (about threenine trips","I think so - you can prove it using the same method I just used to prove the last two proofs. Eventually, you will hit every number, although it will take some tim es (abou t three tnine trips","I think so - you can prove it using the same method I just used to prove the last two proofs. Eventually, you will hit every number, although it will take some times (about three tonine trips","I think so - you can prove it using the same method I just used to prove the last two proofs. Eventually, you will hit every number, although it will take some times (about three to nine trips around, maybe)."],"rt":51567,"trial_type":"polygon-arrow-question","trial_index":0,"trial_index_global":62,"time_elapsed":1313868,"internal_chunk_id":"0-0.12-0"},{"nsides":9,"question":"Is 6 a generator under <img src=./images/nonagon_symbol.png style=width:14px;height:14px>? Please explain in words how you got your answer.","response_type":"free","response_choices":[],"correct_response":"","response":"No, because if you use the same method I have used to prove the previous proof, you will find that, no matter what number you start from and no matter how  many  rotations you make, you will only hit one-third of the numbers on the diagram.","orientation_history":[[0]],"response_history":["No, eb","No, e","No, because if you use the same method I have used to pre","No, because if you use the same method I have used to prove the previous proof, you will fn","No, because if you use the same method I have used to prove the previous proof, you will find that, no matter what number you start from and no matter how many totations","No, because if you use the same method I have used to prove the previous proof, you will find that, no matter what number you start from and no matter how many rotations you make, y","No, because if you use the same method I have used to prove the previous proof, you will find that, no matter what number you start from and no matter how many rotations you make, you will only hut ","No, because if you use the same method I have used to prove the previous proof, you will find that, no matter what num ber you  start from and no matter how many rotations you make, you will only hut","No, because if you use the same method I have used to prove the previous proof, you will find that, no matter what number you start from and no matter how many rotations you make, you will only hu","No, because if you use the same method I have used to prove the previous proof, you will find that, no matter what number you start from and no matter how many rotations you make, you will only hit one-third of the numbers of the ","No, because if you use the same method I have used to prove the previous proof, you will find that, no matter what number you start from and no matter how many rotations you make, you will only hit one-third of the numbers of ","No, because if you use the same method I have used to prove the previous proof, you will find that, no matter what number you start from and no matter how many rotations you make, you will only hit one-third of the numbers of","No, be cause if  you use the same method I have used to prove the previous proof, you will find that, no matter what number you start from and no matter how many rotations you make, you will only hit one-third of the numbers o t","No, because if you use the same method I have used to prove the previous proof, you will find that, no matter what number you start from and no matter how many rotations you make, you will only hit one-third of the numbers o ","No, because if you use the same method I have used to prove the previous proof, you will find that, no matter what number you start from and no matter how many rotations you make, you will only hit one-third of the numbers on the s","No, because if you use the same method I have used to prove the previous proof, you will find that, no matter what number you start from and no matter how many rotations you make, you will only hit one-third of the numbers on the diagram."],"rt":60576,"trial_type":"polygon-arrow-question","trial_index":0,"trial_index_global":63,"time_elapsed":1374444,"internal_chunk_id":"0-0.12-0"},{"nsides":"n","instructions":"Now we'd like to ask you some questions about <img src=./images/ngon_symbol.png style=width:14px;height:14px>, where n could be any postive counting number. For example, n could be 3, and the polygon a triangle, or n could be any other counting number you can think of, in which case the corresponding polygon would have n sides. Just as before, you can use either the polygon or arithmetic methods. If you need to write the operation, you can use (n), and your answers can include n to stand in for the arbitrary value if necessary. (You can use the polygon at the right to think, but it doesn't necessarily correspond to the real polygon, which is why we've left most of it dashed.)","orientation_history":[0],"rt":18125,"trial_type":"polygon-arrow-instructions","trial_index":0,"trial_index_global":64,"time_elapsed":1392570,"internal_chunk_id":"0-0"},{"nsides":" n","question":"What is the formula for the inverse of 1 under <img src=./images/ngon_symbol.png style=width:14px;height:14px>?","response_type":"free","response_choices":[],"correct_response":"n-1","response":"(n) - 1","orientation_history":[[0]],"response_history":["(n) ","(n) - 1"],"rt":26253,"trial_type":"polygon-arrow-question","trial_index":0,"trial_index_global":65,"time_elapsed":1418824,"internal_chunk_id":"0-0.14-0"},{"nsides":"n","question":"What is the formula for the inverse of an element x under <img src=./images/ngon_symbol.png style=width:14px;height:14px>? Please explain in words how you got your answer.","response_type":"free","response_choices":[],"correct_response":"n-x","response":"The formula would be (n) - x, because it follows the pattern shown by shapes of every other size, and also, if you think about it, to make one whole rotation around the shape, you need to make (n) jumps, so if you have already taken x, you need to take the rest o f n, whi ch is represented by (n) - x. Kind of hard to explain.","orientation_history":[[0]],"response_history":["(n) - 1","(n) - ","The foru","The fornu","The forn","The formula would be (n) - 1","The formula would be (n) - x, because ir ","The formula would be (n) - x, because ir","The formula would be (n) - x, because it follows the patterns ","The formula would be (n) - x, because it follows the patterns","The formula would be (n) - x, because it follows the pattern shown by shapes of every other size. ","The formula would be (n) - x, because it follows the pattern shown by shapes of every other size.","The formula would be (n) - x, because it follows the pattern shown by shapes of every other size, and also, if you think about it, to make on ","The formula would be (n) - x, because it follows the pattern shown by shapes of every other size, and also, if you think about it, to make onwe","The formula would be (n) - x, because it follows the pattern shown by shapes of every other  size, an d also, if you think about it, to make onw","The formula would be (n) - x, because it follows the pattern shown by shapes of every other size, and also, if you think about it, to make one whole roat","The formula would be (n) - x, because it follows the pattern shown by shapes of every other size, and also, if you think about it, to make one whole roa","The formula would be (n) - x, because it follows the pattern shown by shapes of every other size, and also, if you think about it, to make one whole rotaton","The formula would be (n) - x, because it follows the pattern shown by shapes of every other size, and also, if you think about it, to make one whole rotato","The formula would be (n) - x, because it follows the pattern shown by shapes of every other size, and also, if you think about it, to make one whole rotato","The formula would be (n) - x, because it follows the pattern shown by shapes of every other size, and also, if you think about it, to make one whole  rotat ion ","The formula would be (n) - x, because it follows the pattern shown by shapes of every other size, and also, if you think about it, to make one whole rotationar","The formula would be (n) - x, because it follows the pattern shown by shapes of every other size, and also, if you think about it, to make one whole rotationa","The formula would be (n) - x, because it follows the pattern shown by shapes of every other size, and also, if you think about it, to make one whole rotation around the shape, you e","The formula would be (n) - x, because it follows the pattern shown by shapes of every other size, and also, if you think about it, to make one whole rotation around the shape, you need to make 9","The formula would be (n) - x, because it follows the pattern shown by shapes of every other size, and also, if you think about it, to make one whole rotation around the shape, you need to make (N)","The formula would be (n) - x, because it follows the patt ern show n by shapes of every other size, and also, if you think about it, to make one whole rotation around the shape, you need to make (N","The formula would be (n) - x, because it follows the pattern shown by shapes of every other size, and also, if you think about it, to make one whole rotation around the shape, you need to make (n) jumps, f","The formula would be (n) - x, because it follows the pattern shown by shapes of every other size, and also, if you think about it, to make one whole rotation around the shape, you need to make (n) jumps, so you","The formula would be (n) - x, because it follows the pattern shown by shapes of every other size, and also, if you think about it, to make one whole rotation around the shape, you need to make (n) jumps, so yo","The formula would be (n) - x, because it follows the pattern shown by shapes of every other size, and also, if you think about it, to make one whole rotation around the shape, you need to make (n) jumps,  so y"," The formula would be (n) - x, because it follows the pattern shown by shapes of every other size, and also, if you think about it, to make one whole rotation around the shape, you need to make (n) jumps, so if you ha","The formula would be (n) - x, because it follows the pattern shown by shapes of every other size, and also, if you think about it, to make one whole rotation around the shape, you need to make (n) jumps, so if you h","The formula would be (n) - x, because it follows the pattern shown by shapes of every other size, and also, if you think about it, to make one whole rotation around the shape, you need to make (n) jumps, so if you have already taken x, you need to take t","The formula would be (n) - x, because it follows the pattern shown by shapes of every other size, and also, if you think about it, to make one whole rotation around the shape, you need to make (n) jumps, so if you have already taken x, you need to take t","The formula would be ( n) - x,  because it follows the pattern shown by shapes of every other size, and also, if you think about it, to make one whole rotation around the shape, you need to make (n) jumps, so if you have already taken x, you need to take the rest of","The formula would be (n) - x, because it follows the pattern shown by shapes of every other size, and also, if you think about it, to make one whole rotation around the shape, you need to make (n) jumps, so if you have already taken x, you need to take the rest on ","The formula would be (n) - x, because it follows the pattern shown by shapes of every other size, and also, if you think about it, to make one whole rotation around the shape, you need to make (n) jumps, so if you have already taken x, you need to take the rest on","The formula would be (n) - x, because it follows the pattern shown by shapes of every other size, and also, if you think about it, to make one whole rotation around the shape, you need to m ake (n)  jumps, so if you have already taken x, you need to take the rest of n, which is rem","The formula would be (n) - x, because it follows the pattern shown by shapes of every other size, and also, if you think about it, to make one whole rotation around the shape, you need to make (n) jumps, so if you have already taken x, you need to take the rest of n, which is represented by (n) - x. Kind of p","The formula would be (n) - x, because it follows the pattern shown by shapes of every other size, and also, if you think about it, to make one whole rotation around the shape, you need to make (n) jumps, so if you have already taken x, you need to take the rest of n, which is represented by (n) - x. Kind of hard to explain."],"rt":83876,"trial_type":"polygon-arrow-question","trial_index":0,"trial_index_global":66,"time_elapsed":1502700,"internal_chunk_id":"0-0.14-0"},{"nsides":"n","question":"Is there a pattern to which elements are generators? How can you know if  an elem ent x is a generator under <img src=./images/ngon_symbol.png style=width:14px;height:14px> without seeing whether it can make all the elements?.","response_type":"free","response_choices":[],"correct_response":"","response":"I believe it has something to do with divisibility - if you can divide (n) by x, than x is NOT a generator, that is to say, if (n)/x is a whole number, than x is NOT a generator for (n).","orientation_history":[[0]],"response_history":["I beleive it","I beleive i","I beleive ","I beleive","I beleiv","I belei","I bele","I believe it has someting","I believe it has sometin","I believe it has someti","I believe it has something to do with i","I believe it has something to do with disvi","I believe it has something to do with disv","I believe it has something to do with dis","I believe it has something to do with divisibility - if you have di","I believe it has something to do with divisibility - if you have d","I believe it has something to do with  divisibi lity - if you have ","I believe it has something to do with divisibility - if you have","I believe it has something to do with divisibility - if you hav","I believe it has something to do with divisibility - if you ha","I believe it has something to do with divisibility - if you h","I believe it has something to do with divisibility - if you can divide ()","I believe it has something to do with divisibility - if you can divide (N)","I believe it has something to do with divisibility - if you can divide (N","I believe it has something to do with divisibility - if you can divide (n) by x, that is to saym ","I believe it has something to do with divisibility - if you can divide (n) by x, that is to saym","I believe it has something to do with divisibility - if you can divide (n) by x, that is to say, if (n?","I believe it has something to do with divisibility - if you can divide (n) by x, that is to say, if (n)/x is a whole number, than t","I believe it has something to do with  divisib ility - if you can divide (n) by x, that is to say, if (n)/x is a whole number, than x is NOT a gee","I believe it has something to do with divisibility - if you can divide (n) by x, that is to say, if (n)/x is a whole number, than x is NOT a generator for (N)","I believe it has something to do with divisibility - if you can divide (n) by x, that is to say, if (n)/x is a whole number, than x is NOT a generator for (N","I believe it has something to do with divisibility - if you can divide (n) by x, that is to say, if (n)/x is a whole number, than x is NOT a generator for (n).","I believe it has something to do with divisibility - if you can divide (n) by x,  that is to say, if (n)/x is a whole number, than x is NOT a generator for (n).","I believe it has something to do with divisibility - if you can divide (n) by x, t that is to say, if (n)/x is a whole number, than x is NOT a generator for (n).","I believe it has something to do with divisibility - if you can divide (n) by  x, th t hat is to say, if (n)/x is a whole number, than x is NOT a generator for (n).","I believe it has something to do with divisibility - if you can divide (n) by x, tha that is to say, if (n)/x is a whole number, than x is NOT a generator for (n).","I believe it has something to do with divisibility - if you can divide (n) by x, than  that is to say, if (n)/x is a whole number, than x is NOT a generator for (n).","I believe it has something to do with divisibility - if you can divide (n) by x, than is that is to say, if (n)/x is a whole number, than x is NOT a generator for (n).","I believe it has something to do with divisibility - if you can divide (n) by x, than is  that is to say, if (n)/x is a whole number, than x is NOT a generator for (n).","I believe it has something to do with divisibility - if you can divide (n) by x, than is i that is to say, if (n)/x is a whole number, than x is NOT a generator for (n).","I believe it has something to do with divisibility - if you ca n divide  (n) by x, than is is that is to say, if (n)/x is a whole number, than x is NOT a generator for (n).","I believe it has something to do with divisibility - if you can divide (n) by x, than is is  that is to say, if (n)/x is a whole number, than x is NOT a generator for (n).","I believe it has something to do with divisibility - if you can divide (n) by x, than is is that is to say, if (n)/x is a whole number, than x is NOT a generator for (n).","I believe it has something to do with divisibility - if you can divide (n) by x, than is i that is to say, if (n)/x is a whole number, than x is NOT a generator for (n).","I believe it has something to do with divisibility - if you can divide (n) by x, than is  that is to say, if (n)/x is a whole number, than x is NOT a generator for (n).","I believe it has something to do with divisibility - if you can divide (n) by x, than is that is to say, if (n)/x is a whole number, than x is NOT a generator for (n).","I believe it has something  to do w ith divisibility - if you can divide (n) by x, than i that is to say, if (n)/x is a whole number, than x is NOT a generator for (n).","I believe it has something to do with divisibility - if you can divide (n) by x, than  that is to say, if (n)/x is a whole number, than x is NOT a generator for (n).","I believe it has something to do with divisibility - if you can divide (n) by x, than x that is to say, if (n)/x is a whole number, than x is NOT a generator for (n).","I believe it has something to do with divisibility - if you can divide (n) by x, than  that is to say, if (n)/x is a whole number, than x is NOT a generator for (n).","I believe it has something to do with divisibility - if you can divide (n) by x, than X that is to say, if (n)/x is a whole number, than x is NOT a generator for (n).","I believe it has something to do with divisibility - if you can divide (n) by x, than  that is to say, if (n)/x is a whole number, than x is NOT a generator for (n).","I believe it  has som ething to do with divisibility - if you can divide (n) by x, than x that is to say, if (n)/x is a whole number, than x is NOT a generator for (n).","I believe it has something to do with divisibility - if you can divide (n) by x, than x  that is to say, if (n)/x is a whole number, than x is NOT a generator for (n).","I believe it has something to do with divisibility - if you can divide (n) by x, than x i that is to say, if (n)/x is a whole number, than x is NOT a generator for (n).","I believe it has something to do with divisibility - if you can divide (n) by x, than x is  that is to say, if (n)/x is a whole number, than x is NOT a generator for (n).","I believe it has something to do with divisibility - if you can divide (n) by x, than x is NO that is to say, if (n)/x is a whole number, than x is NOT a generator for (n).","I believe it has something to do with divisibility - if you can divide (n) by x, than x is NOT that is to say, if (n)/x is a whole number, than x is NO T a gene rator for (n).","I believe it has something to do with divisibility - if you can divide (n) by x, than x is NOT  that is to say, if (n)/x is a whole number, than x is NOT a generator for (n).","I believe it has something to do with divisibility - if you can divide (n) by x, than x is NOT a that is to say, if (n)/x is a whole number, than x is NOT a generator for (n).","I believe it has something to do with divisibility - if you can divide (n) by x, than x is NOT a  that is to say, if (n)/x is a whole number, than x is NOT a generator for (n).","I believe it has something to do with divisibility - if you can divide (n) by x, than x is NOT a ge that is to say, if (n)/x is a whole number, than x is NOT a generator for (n).","I believe it has something to do with divisibility - if you can divide (n) by x, than x is NOT a gene that is to say, if (n)/x is a whole number, than x is NOT a generator for (n).","I believe it has something to do with divisibility - if you can divide (n)  by x, t han x is NOT a gener that is to say, if (n)/x is a whole number, than x is NOT a generator for (n).","I believe it has something to do with divisibility - if you can divide (n) by x, than x is NOT a genera that is to say, if (n)/x is a whole number, than x is NOT a generator for (n).","I believe it has something to do with divisibility - if you can divide (n) by x, than x is NOT a generat that is to say, if (n)/x is a whole number, than x is NOT a generator for (n).","I believe it has something to do with divisibility - if you can divide (n) by x, than x is NOT a generator that is to say, if (n)/x is a whole number, than x is NOT a generator for (n).","I believe it has something to do with divisibility - if you can divide (n) by x, than x is NOT a generator, that is to say, if (n)/x is a whole number, than x is NOT a generator for (n).","I believe it has something to do with divisibility - if you can divide (n) by x, than x is NOT a generator,, that is to say, if (n)/x is a  whole nu mber, than x is NOT a generator for (n).","I believe it has something to do with divisibility - if you can divide (n) by x, than x is NOT a generator, that is to say, if (n)/x is a whole number, than x is NOT a generator for (n)."],"rt":87919,"trial_type":"polygon-arrow-question","trial_index":0,"trial_index_global":67,"time_elapsed":1590620,"internal_chunk_id":"0-0.14-0"},{"nsides":"n","question":"True or false: If x is an odd number, it must be a generator under <img src=./images/ngon_symbol.png style=width:14px;height:14px>.","response_type":"multi","response_choices":["True","False"],"correct_response":"False","response":"False","orientation_history":[[0]],"response_history":["False"],"rt":7438,"trial_type":"polygon-arrow-question","trial_index":0,"trial_index_global":68,"time_elapsed":1598059,"internal_chunk_id":"0-0.14-0"},{"nsides":"n","question":"True or false: If x is an even number, it must not be a generator under <img src=./images/ngon_symbol.png styl e=widt h:14px;height:14px>.","response_type":"multi","response_choices":["True","False"],"correct_response":"False","response":"False","orientation_history":[[0]],"response_history":["False"],"rt":8039,"trial_type":"polygon-arrow-question","trial_index":0,"trial_index_global":69,"time_elapsed":1606098,"internal_chunk_id":"0-0.14-0"},{"nsides":"n","question":"True or false: If x is not a generator under <img src=./images/ngon_symbol.png style=width:14px;height:14px>, x must be a divisor of n, that is, x must divide n evenly, with no remainder.","response_type":"multi","response_choices":["True","False"],"correct_response":"False","response":"True","orientation_history":[[0]],"response_history":["True"],"rt":10478,"trial_type":"polygon-arrow-question","trial_index":0,"trial_index_global":70,"time_elapsed":1616577,"internal_chunk_id":"0-0.14-0"},{"nsides":"n","question":"True or false: If x is not a generator under <img src=./images/ngon_symbol.png style=width:14px;hei ght:14px >, x must be a multiple of a divisor of n. Please explain in words why your answer is correct.","response_type":"free","response_choices":[],"correct_response":"True","response":"I think I explained this to the best of my ability a moment ago. If (n) is divisible by x, then you will keep hitting the same points on the diagram, if you think of it visually. For example, for an (n) of 9 and an x of 3, if you start at 0, the generated values will be 0,3,6,0,3,6... - you can tell that other numbers will never be generated.","orientation_history":[[0]],"response_history":["I think I explained this to the best of ab","I think I explained this to the best of a","I think I explained this to the best of my ability a moment ago. If (N","I think I explained this to the best of my ability a moment ago. If (n) is e","I think I explained this to the best of my ability a moment ago. If (n) is disible","I think I explained this to the best of my ability a moment ago. If (n) is disibl","I think  I explained this to the best of my ability a moment ago. If (n) is disib","I think I explained this to the best of my ability a moment ago. If (n) is disi","I think I explained this to the best of my ability a moment ago. If (n) is dis","I think I explained this to the best of my ability a moment ago. If (n) is divisible by x, then you will keep hitting the e","I think I explained this to the best of my ability a moment ago. If (n) is divisible by x, then you will keep hitting the same points on the dis","I think I explained this to the best of my ability a moment ago. If (n) is divisible by x, then you will keep hitting the same points on the diagram, if you think if","I think I explained this to the best of my ability a moment ago. If (n) is divisible by x, then you will keep hitting the same points on the diagram, if you think i","I think I explained this to the best of my ability a moment ago. If (n) is divisible by x, then you will keep hitting the  same poi nts on the diagram, if you think of it visually. For example, for an N","I think I explained this to the best of my ability a moment ago. If (n) is divisible by x, then you will keep hitting the same points on the diagram, if you think of it visually. For example, for an n","I think I explained this to the best of my ability a moment ago. If (n) is divisible by x, then you will keep hitting the same points on the diagram, if you think of it visually. For example, for an (n) f","I think I explained this to the best of my ability a moment ago. If (n) is divisible by x, then you will keep hitting the same points on the diagram, if you think of it visually. For example, for an (n) of 9 ad","I think I explained this to the best of my ability a moment ago. If (n) is divisible by x, then you will keep hitting the same points on the diagram, if you think of it visually. For example, for an (n) of 9 and an x of 3, if you start at 0,  ","I think I explained this to the  best of  my ability a moment ago. If (n) is divisible by x, then you will keep hitting the same points on the diagram, if you think of it visually. For example, for an (n) of 9 and an x of 3, if you start at 0, the generated values will be 0 , ","I think I explained this to the best of my ability a moment ago. If (n) is divisible by x, then you will keep hitting the same points on the diagram, if you think of it visually. For example, for an (n) of 9 and an x of 3, if you start at 0, the generated values will be 0 ,","I think I explained this to the best of my ability a moment ago. If (n) is divisible by x, then you will keep hitting the same points on the diagram, if you think of it visually. For example, for an (n) of 9 and an x of 3, if you start at 0, the generated values will be 0 ,","I think I explained this to the best of my ability a moment ago. If (n) is divisible by x, then you will keep hitting the same points on the diagram, if you think of it visually. F or examp le, for an (n) of 9 and an x of 3, if you start at 0, the generated values will be 0 ","I think I explained this to the best of my ability a moment ago. If (n) is divisible by x, then you will keep hitting the same points on the diagram, if you think of it visually. For example, for an (n) of 9 and an x of 3, if you start at 0, the generated values will be 0,3,6,9","I think I explained this to the best of my ability a moment ago. If (n) is divisible by x, then you will keep hitting the same points on the diagram, if you think of it visually. For example, for an (n) of 9 and an x of 3, if you start at 0, the generated values will be 0,3,6,0,3,5","I think I explained this to the best of my ability a moment ago. If (n) is divisible by x, then you will keep hitting the same po