[{"nsides":6,"instructions":"Let's define a new operation <img src=./images/hexagon_symbol.png style=width:14px;height:14px>. This operation will give us a way of combining two of the numbers 0, 1, 2, 3, 4, 5 to get another one of them back. To perform <img src=./images/hexagon_symbol.png style=width:14px;height:14px>, you can either use a method based on the hexagon at right, or a method based on arithmetic.<br /><b>Hexagon method:</b> you can use the interactive diagram on the right, or perform the operation in your mind. Point the arrow at the first number on the hexagon by clicking, then click (or click and drag) to move the arrow the second number of points clockwise around the hexagon. The number the arrow arrives at is your result. (The operation is called <img src=./images/hexagon_symbol.png style=width:14px;height:14px> because it uses the hexagon, which has 6 sides.) <br ><b>Arithmetic method:</b> you start with the first number, and then add  the sec ond one to it. If the sum is smaller than 6, that's your result. If the sum is 6 or bigger, you subtract 6 to get your result. <br /><br />For example, 3 <img src=./images/hexagon_symbol.png style=width:14px;height:14px> 5 = 2, because 5 steps clockwise from 3 on the hexagon brings us to 2. Equivalently, 3 + 5 = 8, and 8 is bigger than 6, so we subtract 6, and 8 - 6 = 2. So 3 <img src=./images/hexagon_symbol.png style=width:14px;height:14px> 5 = 2.<br /><br />Similarly, 1 <img src=./images/hexagon_symbol.png style=width:14px;height:14px> 4 = 5, because 1 + 4 = 5, and 5 is less than 6 so we leave it alone. Equivalently, 4 steps clockwise from 1 on the hexagon brings us to 5. <br /><br />Click Continue when you're ready to move on.","orientation_history":[0],"rt":115078,"trial_type":"polygon-arrow-instructions","trial_index":0,"trial_index_global":1,"time_elapsed":286018,"internal_chunk_id":"0-0"},{"nsides":6,"instructions":"Do you see how the diffe rent way s of performing <img src=./images/hexagon_symbol.png style=width:14px;height:14px> give the same result? By labeling the points of the hexagon with the numbers from 0 to 5, we ensure that when we combine two numbers using the hexagon, we only produce numbers between 0 and 5. When we use the arithmetic strategy, adding the second number to the first mimics counting around the hexagon, and subtracting 6 each time we get above 5 makes sure the results correspond to the numbers on the points of the hexagon. <br /><br />Click Continue when you're ready to move on.","orientation_history":[0],"rt":18077,"trial_type":"polygon-arrow-instructions","trial_index":0,"trial_index_global":2,"time_elapsed":304097,"internal_chunk_id":"0-0"},{"nsides":6,"question":"Now try one on your own! What is 4 <img src=./images/hexagon_symbol.png style=width:14px;height:14px> 5? <br /><br /> (Remember, to perform <img src=./images/hexagon_symbol.png style=width:14px;height:14px >, you  can either use a method based on the hexagon at right, or a method based on arithmetic.<br /><br /><b>Hexagon method:</b> you can use the interactive diagram on the right, or perform the operation in your mind. Point the arrow at the first number, then move the arrow the second number of points clockwise around the hexagon. The number the arrow arrives at is your result. <br /><br /><b>Arithmetic method:</b> you start with the first number, and then add the second one to it. If the sum is smaller than 6, that's your result. If the sum is 6 or bigger, you subtract 6 to get your result.)","response_type":"free","response_choices":[],"correct_response":"3","response":"3","orientation_history":[[0],[-6.191430591378045,-6.191430591378045,-6.160844698397404,-6.130430489843469,-6.070331694129904,-6.05549598741093,-6.0260926992069255,-6.011536056685407,-6.007912884133947,-6.007912884133947,-6.007912884133947,-5.9932619178525535,-5.9932619178525535,-5.9932619178525535,-5.9932619178525535,-5.9932619178525535,-5.9932619178525535,-5.9932619178525535,-5.9932619178525535,-5.9932619178525535,-5.9932619178525535,-5.9932619178525535,-5.9932619178525535,-6.007912884133947,-6.007912884133947,-6.007912884133947,-6.135782802693947,-6.135782802693947,-6.135782802693947,-6.135782802693947,-6.135782802693947,-6.135782802693947,-6.137464886893886,-6.137464886893886,-6.151788175524512,-6.1949853420127035,-6.20944065186928,-6.2239141534092495,-6.238399808195311,-6.238399808195311,-6.252891547260811,-6.252891547260811,-6.252891547260811,0.015802020853275422,0.015802020853275422,0.015802020853275422,0.015802020853275422,0.015802020853275422,0.015802020853275422,0.015802020853275422,0.015802020853275422,0.015802020853275422,0.015802020853275422,0.015802020853275422,0.015802020853275422,0.015802020853275422,0.015802020853275422,0.015802020853275422,0.015802020853275422,0.015802020853275422,0.015802020853275422,0.015802020853275422,0.015802020853275422,0.015802020853275422,0.015802020853275422,0.015802020853275422,0.015802020853275422,0.015802020853275422,0.015802020853275422,0.015802020853275422,0.015802020853275422,0.015802020853275422,0.015802020853275422,0.015802020853275422,0.015802020853275422,0.015802020853275422,0.015802020853275422,0.015802020853275422,0.015802020853275422,0.015802020853275422,0.015802020853275422,0.015802020853275422,0.015802020853275422,0.015802020853275422,0.015802020853275422,0.015802020853275422,0.015802020853275422,0.015802020853275422,0.015802020853275422,0.015802020853275422,0.015802020853275422,0.015802020853275422,0.015802020853275422,0.015802020853275422,0.015802020853275422,0.015802020853275422,0.015802020853275422,0.015802020853275422,0.015802020853275422,0.015802020853275422,0.015802020853275422,0.015802020853275422,0.015802020853275422,0.015802020853275422,0.015802020853275422,0.015802020853275422,0.015802020853275422,0.015802020853275422,0.015802020853275422,0.015802020853275422,0.015802020853275422,0.015802020853275422,0.015802020853275422,0.015802020853275422,0.015802020853275422,0.015802020853275422,0.015802020853275422,0.015802020853275422,0.015802020853275422,0.015802020853275422,0.015802020853275422,0.015802020853275422,0.015802020853275422,0.015802020853275422,0.015802020853275422,0.015802020853275422,0.015802020853275422,0.015802020853275422,0.015802020853275422,0.015802020853275422,0.015802020853275422,0.015802020853275422,0.015802020853275422,0.015802020853275422,0.015802020853275422,0.015802020853275422,0.015802020853275422,0.015802020853275422,0.015802020853275422,0.015802020853275422,0.015802020853275422,0.015802020853275422,0.015802020853275422,0.015802020853275422,0.015802020853275422,0.015802020853275422,0.015802020853275422,0.015802020853275422,0.015802020853275422,0.015802020853275422,0.015802020853275422,0.015802020853275422,0.015802020853275422,0.015802020853275422,0.015802020853275422,0.015802020853275422,0.015802020853275422,0.015802020853275422,0.015802020853275422,0.015802020853275422,0.015802020853275422,0.015802020853275422,0.015802020853275422,0.015802020853275422,0.015802020853275422,0.015802020853275422,0.015802020853275422,0.015802020853275422,0.015802020853275422,0.015802020853275422,0.015802020853275422,0.015802020853275422,0.015802020853275422,0.015802020853275422,0.015802020853275422,0.015802020853275422,0.015802020853275422,0.015802020853275422,0.015802020853275422,0.015802020853275422,0.015802020853275422,0.015802020853275422,0.015802020853275422,0.015802020853275422,0.015802020853275422,0.015802020853275422,0.015802020853275422,0.015802020853275422,0.015802020853275422,0.015802020853275422,0.015802020853275422,0.015802020853275422,0.015802020853275422,0.015802020853275422,0.015802020853275422,0.015802020853275422,0.015802020853275422,0.015802020853275422,0.015802020853275422,0.015802020853275422,0.015802020853275422,0.015802020853275422,0.015802020853275422,0.015802020853275422,0.015802020853275422,0.015802020853275422,0.015802020853275422,0.015802020853275422,0.015802020853275422,0.015802020853275422,0.015802020853275422,0.015802020853275422,0.015802020853275422,0.015802020853275422,0.015802020853275422,0.015802020853275422,0.015802020853275422,0.015802020853275422,0.015802020853275422,0.015802020853275422,0.015802020853275422,0.015802020853275422,0.015802020853275422,0.015802020853275422,-0.013157135472755321,-0.04204357061981945,-0.09940877723713726,-0.1559290804923661,-0.19756328879832452,-0.29145679447786677,-0.3426939618812854,-0.4450492222477198,-0.479298504890151,-0.5611452562187793,-0.5913661623643138,-0.6462921986614276,-0.6991628322451122,-0.7314867484737224,-0.7551044034786729,-0.7551044034786729,-0.8138602261943957,-0.8352244965224873,-0.8418427421546575,-0.8688964106223809,-0.882974322038673,-0.9029537687374285,-0.9168008506492296,-0.9387267296479536,-0.9829614521957728,-0.9829614521957728,-1.054131597033674,-1.1275028501554267,-1.173328733057902,-1.2154946950094736,-1.2879482910980613,-1.3207074953520888,-1.4367102264190788,-1.4780837568801637,-1.5405025668761212,-1.5821451459747093,-1.5821451459747093,-1.6838426219217233,-1.6838426219217233,-1.7438386509043973,-1.7733163799828553,-1.7927450247659396,-1.8684258823775437,-1.8684258823775437,-1.8867880743354988,-1.890109690666523,-1.890109690666523,-1.9083742372872745,-1.9174118372009419,-1.9263852362741947,-1.9263852362741947,-1.935293686575882,-1.9441364921893864,-1.9441364921893864,-1.9529130084735087,-1.965542759748777,-1.9742445644701636,-1.9828767898528659,-2.0041501758769273,-2.0041501758769273,-2.0041501758769273,-2.0041501758769273,-2.0041501758769273,-2.0041501758769273,-2.0041501758769273,-2.0041501758769273,-2.0041501758769273,-2.0041501758769273,-2.0041501758769273,-2.0126245492798978,-2.0126245492798978,-2.0126245492798978,-2.0126245492798978,-2.0126245492798978,-2.021026210723848,-2.021026210723848,-2.021026210723848,-2.021026210723848,-2.021026210723848,-2.021026210723848,-2.021026210723848,-2.021026210723848,-2.021026210723848,-2.021026210723848,-2.021026210723848,-2.021026210723848,-2.021026210723848,-2.021026210723848,-2.021026210723848,4.1887902047863905],[4.1887902047863905,4.1887902047863905,4.1887902047863905,4.1887902047863905,4.1887902047863905,4.1887902047863905,4.1887902047863905,4.1887902047863905,4.214237687021604,4.214237687021604,4.253805483786425,4.281107191755611,4.301355820590076,4.372764952719465,4.402459192326375,4.4481127273275805,4.479231083596153,4.510841104571209,4.561720637505814,4.609955418761578,4.691962864287762,4.740337380566653,4.740337380566653,4.787616698689848,4.8034088176924685,4.850517863786258,4.866106801327181,4.930892965207266,4.930892965207266,4.946291648628496,4.976764022501077,4.991826051507778,5.0215748919469405,5.0215748919469405,5.0507911814136355,5.055763908598955,5.0703457102923775,5.084775747201123,5.090266262570435,5.104716123835382,5.104716123835382,5.104716123835382,5.119000866422778,5.119000866422778,5.119000866422778,5.119000866422778,5.119000866422778,5.119000866422778,5.119000866422778,5.119000866422778,5.133117575673942,5.133117575673942,5.133117575673942,5.133117575673942,5.133117575673942,5.133117575673942,5.133117575673942,5.133117575673942,5.133117575673942,5.133117575673942,5.133117575673942,5.133117575673942,5.133117575673942,5.133117575673942,5.133117575673942,5.133117575673942,5.133117575673942,5.133117575673942,5.133117575673942,5.133117575673942,5.133117575673942,5.133117575673942,5.235987755982988],[5.235987755982988,5.242819417419383,5.22975395883119,5.20308768742637,5.20308768742637,5.147653210865416,5.147653210865416,5.104306885169207,5.059538410567338,5.013464482912996,4.950257651015535,4.901752038775152,4.885413623462329,4.8346464717836515,4.703721356749635,4.640434960335465,4.62453886347986,4.546178872681406,4.500307815387595,4.470307138696068,4.411883137669306,4.397631229118973,4.3421451280509835,4.302200765085022,4.264528140109249,4.240472630854917,4.217050853205191,4.161262380830544,4.15057474503069,4.0994357499848935,4.0896590984595615,4.0896590984595615,4.0896590984595615,4.0896590984595615,4.0896590984595615,4.0896590984595615,4.0896590984595615,4.0896590984595615,4.0896590984595615,4.0896590984595615,4.0896590984595615,4.0896590984595615,4.0896590984595615,4.0896590984595615,4.0896590984595615,4.0896590984595615,4.0896590984595615,4.1887902047863905],[4.1887902047863905,4.1887902047863905,4.1887902047863905,4.1887902047863905,4.1887902047863905,4.1887902047863905,4.1887902047863905,4.200513673048354,4.274512398390416,4.406193269204198,4.450961743806066,4.450961743806066,4.774585593014154,4.809316147690179,4.937491563000227,5.0561369947939285,5.1874003423044375,5.435346355772377,5.597037726981166,5.677357668558166,5.771835071992423,5.951185330360286,6.017436109397105,6.091585629055726,6.221155534354243,6.251662498732868,6.298592505335536,0.045249082823059616,0.1031552880711668,0.14635245455935797,0.1871461374272234,0.2699602512377022,0.32354874182817084,0.4257554599354245,0.4974029451088351,0.6332516863706271,0.6980957139238338,0.7662204067949543,0.8609410061392829,0.9332270986388025,1.0739564618165183,1.15239780061715,1.2809623119271683,1.3476791987120493,1.4006877099202182,1.4890726200038773,1.5278395052212732,1.5278395052212732,1.5278395052212732,1.5278395052212732,1.5278395052212732,1.5278395052212732,1.5278395052212732,1.5278395052212732,1.5278395052212732,1.5278395052212732,1.5278395052212732,1.5278395052212732,1.5278395052212732,1.5278395052212732,1.5278395052212732,1.5278395052212732,1.5278395052212732,2.1219958088890323,2.147158043140667,2.1669029441496725,2.191895833616017,2.2128043567909015,2.245317207172062,2.2876515658716965,2.309912605895606,2.346771741596254,2.3708408850866856,2.4278924303815237,2.4601993957311272,2.4601993957311272,2.5580454499974197,2.5580454499974197,2.610466515821669,2.6464222361422687,2.7073224444202566,2.739321761255683,2.763987810279912,2.8115709135568956,2.8291784854016466,2.874209470333406,2.8833818249730307,2.905820995688276,2.9692876172788445,2.9956572768158383,3.0749514702411767,3.1179852471118084,3.236184368665823,3.262645573773992,3.3031969016197276,3.3922371256026205,3.442024127033671,3.5646083943526743,3.6234688962263943,3.727261236683437,3.7792690898447314,3.833600162676143,3.9601922899561153,4.03389007044956,4.179736126245504,4.236203623436006,4.293990454206943,4.435887508811107,4.48972764078441,4.586258936818242,4.661778916097736,4.776866462307456,4.853497210317762,4.888953502190837,4.998172311153653,5.045693510258375,5.128529352020411,5.1602927167596215,5.206361407218471,5.2504744602013504,5.264736567600086,5.306187465658277,5.3195596254645645,5.354298459085064,5.36709660115267,5.36709660115267,5.36709660115267,5.388717450679079,5.388717450679079,5.388717450679079,5.388717450679079,5.388717450679079,5.388717450679079,5.379670078496921,5.379670078496921,5.379670078496921,5.379670078496921,5.379670078496921,5.379670078496921,5.379670078496921,5.379670078496921,5.379670078496921,5.379670078496921,5.379670078496921,5.379670078496921,5.379670078496921,5.379670078496921,5.36709660115267,5.358351846518743,5.358351846518743,5.3498247427573915,5.358351846518743,5.358351846518743,5.358351846518743,5.358351846518743,5.337202048501072,5.337202048501072,5.337202048501072,5.328975543041376,5.328975543041376,5.328975543041376,5.328975543041376,5.328975543041376,5.316237378551311,5.316237378551311,5.316237378551311,5.316237378551311,5.316237378551311,5.316237378551311,5.316237378551311,5.316237378551311,5.316237378551311,5.316237378551311,5.30831361412,5.30831361412,5.30831361412,5.235987755982988],[5.235987755982988,5.228642662472721,5.228642662472721,5.228642662472721,5.228642662472721,5.228642662472721,5.216117221505341,5.203411424974222,5.19052554030009,5.111285177161033,5.083852361792047,4.993480611571885,4.964132097629399,4.9192371599203035,4.811225435220257,4.779767285015813,4.684944485425885,4.653727501130392,4.5762132194996,4.426400762926702,4.4119808521522845,4.397683345671391,4.397683345671391,4.36947213734223,4.355566036839257,4.355566036839257,4.341797543775789,4.341797543775789,4.328169767369607,4.328169767369607,4.314685544648288,4.314685544648288,4.301347444471109,4.288157772448974,4.288157772448974,4.27511857667632,4.249498558057838,4.249498558057838,4.249498558057838,4.249498558057838,4.249498558057838,4.249498558057838,4.249498558057838,4.249498558057838,4.249498558057838,4.249498558057838,4.249498558057838,4.249498558057838,4.249498558057838,4.249498558057838,4.249498558057838,4.1887902047863905],[4.1887902047863905,4.1887902047863905,4.1887902047863905,4.1887902047863905,4.1887902047863905,4.1887902047863905,4.1887902047863905,4.1887902047863905,4.1887902047863905,4.1887902047863905,4.1887902047863905,4.1887902047863905,4.1887902047863905,4.1887902047863905,4.1887902047863905,4.1887902047863905,4.1887902047863905,4.1887902047863905,4.1887902047863905,4.1887902047863905,4.1887902047863905,4.1887902047863905,4.1887902047863905,4.1887902047863905,4.1887902047863905,4.214061285104943,4.253514486201983,4.2670795455743,4.309012991447699,4.323400487836625,4.398326984440922,4.5109470980473,4.5109470980473,4.527681937321641,4.595951744378469,4.648305605901744,4.648305605901744,4.7369614877691815,4.754805355308953,4.827152056689236,4.845260054179,4.899252727728477,4.934859433911887,4.95577141771099,5.013194848394409,5.030912820259544,5.083048007580857,5.105904901560178,5.172901257482479,5.189099217640097,5.220805575524295,5.2515741989960905,5.259559832259774,5.2747507994705,5.289692552940046,5.289692552940046,5.289692552940046,5.289692552940046,5.289692552940046,5.289692552940046,5.289692552940046,5.289692552940046,5.289692552940046,5.289692552940046,5.289692552940046,5.289692552940046,5.289692552940046,5.289692552940046,5.289692552940046,5.289692552940046,5.289692552940046,5.289692552940046,5.298244394000115,5.471853190170174,5.545401212011901,5.583053557464874,5.646435549990802,5.725312701308214,5.725312701308214,5.822022487471658,5.822022487471658,5.863281897639875,5.921451897341184,5.921451897341184,6.050270030685519,6.050270030685519,6.0852047074323625,6.12478798136946,6.128641526841744,6.18125809378002,6.18125809378002,6.201559872639238,6.201559872639238,6.201559872639238,6.201559872639238,6.201559872639238,6.201559872639238,6.201559872639238,6.21910193269664,6.21910193269664,6.238579988513168,6.238579988513168,6.238579988513168,6.2559615864410105,6.2559615864410105,6.2559615864410105,6.2559615864410105,6.2559615864410105,6.2559615864410105,6.2559615864410105,6.2559615864410105,6.2559615864410105,6.2559615864410105,6.2559615864410105,6.2559615864410105,6.2559615864410105,6.2559615864410105,6.2559615864410105,6.273396344604946,0.06027162006381559,0.26491342989359334,0.3534585166216977,0.5481080587234579,0.6243553411134726,0.7529134632731201,0.8002465040396868,0.8674054903030565,0.8779166658965177,0.9192210739498036,0.9401247188563105,0.9960412114683984,1.0237627216924614,1.0316154620169746,1.0316154620169746,1.0653664782025345,1.0837835658712751,1.1086645151421832,1.1327521526484063,1.1327521526484063,1.1327521526484063,1.1327521526484063,1.1327521526484063,1.1327521526484063,1.138856680019146,1.138856680019146,1.138856680019146,1.138856680019146,1.138856680019146,1.138856680019146,1.138856680019146,1.138856680019146,1.138856680019146,1.138856680019146,1.138856680019146,1.138856680019146,1.138856680019146,1.138856680019146,1.138856680019146,1.138856680019146,1.138856680019146,1.138856680019146,1.138856680019146,1.138856680019146,1.138856680019146,1.138856680019146,1.138856680019146,1.138856680019146,1.138856680019146,1.138856680019146,1.138856680019146,1.2312868486159154,1.3924586243505113,1.478418618463447,1.5686491368627549,1.7023754116440024,1.736557255383803,1.7924430572794037,1.8018031583339948,1.8350859264512607,1.8545445479993452,1.8867128721366477,1.8867128721366477,1.8867128721366477,1.8867128721366477,1.8867128721366477,1.8867128721366477,1.8867128721366477,1.8867128721366477,1.8867128721366477,1.8867128721366477,1.8867128721366477,1.8867128721366477,1.8867128721366477,1.8867128721366477,1.8867128721366477,1.8867128721366477,1.8973199960096374,1.935276441197952,1.935276441197952,1.9846099066098308,2.0136751612165122,2.0434783884560996,2.053921872991653,2.0947155558595183,2.1359293185178387,2.1516487803503717,2.1896672622022746,2.222360012225834,2.2963573746892476,2.33047181906192,2.3730152148646297,2.451539440789386,2.495944354864367,2.5583631648603244,2.578664943719543,2.6138616701060413,2.6351350561301023,2.645993464499451,2.6636425720421304,2.6636425720421304,2.6811358822465383,2.703548479443303,2.7209769934582733,2.7209769934582733,2.7209769934582733,2.7440305526346442,2.7613339330370956,2.790192930221714,2.790192930221714,2.8430936033830365,2.8430936033830365,2.8476048509749425,2.8597083885704286,2.8719171815070537,2.884228922364078,2.8882436214369105,2.9128888636610424,2.925350327036135,2.937900550027904,2.937900550027904,2.937900550027904,2.9505364894927686,2.9505364894927686,2.966319292932745,2.966319292932745,2.966319292932745,2.966319292932745,2.966319292932745,2.966319292932745,2.966319292932745,2.966319292932745,2.966319292932745,2.966319292932745,2.966319292932745,2.966319292932745,2.966319292932745,2.966319292932745,2.966319292932745,2.966319292932745,2.966319292932745,2.966319292932745,2.966319292932745,2.966319292932745,2.966319292932745,2.966319292932745,2.966319292932745,2.966319292932745,2.966319292932745,2.966319292932745,2.966319292932745,2.966319292932745,2.966319292932745,2.966319292932745,2.966319292932745,2.966319292932745,2.966319292932745,2.966319292932745,2.966319292932745,2.966319292932745,2.966319292932745,2.966319292932745,2.966319292932745,2.966319292932745,2.966319292932745,2.966319292932745,3.141592653589793]],"response_history":["3"],"rt":79882,"trial_type":"polygon-arrow-question","trial_index":0,"trial_index_global":3,"time_elapsed":383982,"internal_chunk_id":"0-0.3-0"},{"nsides":6,"feedback":"Correct! 4 <img src=./images/hexagon_symbol.png style=width:14px;height:14px> 5 = 3 because 5 steps clockwise on the hexagon from 4 brings us to 3. Equivalently, 4 + 5 = 9 and 9 - 6 = 3.","orientation_history":[0],"rt":2359,"trial_type":"polygon-arrow-feedback","trial_index":0,"trial_index_global":4,"time_elapsed":386343,"internal_chunk_id":"0-0.3-0"},{"nsides":6,"question":"What is 3 <img src=./images/hexagon_symbol.png style=width:14px;height:14px> 2? Try to solve this problem using the hexagon. <br /><br /> (Remember, to perform <img src=./images/hexagon_symbol.png style=width:14px;height:14px> on the hexagon, you can use the interactive diagram on the right, or perform the operation in your mind. Point the arrow at the first number on the hexagon, and then move the arrow the second number of points clockwise around the hexagon.)","response_type":"free","response_choices":[],"correct_response":"5","response":"5","orientation_history":[[0],[0.1186278529445739,0.1186278529445739,0.13775549891497807,0.26271047927242974,0.3408254739547618,0.3961643679439202,0.5321888528771305,0.6330131288908403,0.7477414653489327,0.8119917382678719,0.9270784510836394,0.9760370693115437,1.062775407987529,1.2168835245529552,1.2378594685869782,1.2378594685869782,1.274689422191395,1.3438077398240404,1.3604118990803356,1.3790415566780765,1.4120419516696254,1.4618621876798195,1.511310817401703,1.557601993554024,1.5886599647166562,1.6195381781048281,1.6777430366889734,1.6896632997731722,1.7295988592818774,1.7436706042154695,1.7852701158790947,1.7947151726279897,1.8080844114384511,1.8344757980121114,1.8782602490950744,1.946636275110621,2.00097449915247,2.0649396370410447,2.1123745750984284,2.151670575271523,2.2627261018159626,2.298123407012917,2.383662955478215,2.4059704672970312,2.455253545963755,2.5098132802325104,2.535421623323516,2.5972814392430843,2.602331901352157,2.6771917490629242,2.7020005538433187,2.7477625101541827,2.821000847226099,2.8642171660326765,2.9334279780562893,2.955322289179067,2.9782928552234624,2.9782928552234624,2.9782928552234624,2.9900388740870687,2.9900388740870687,2.9792411716769784,2.9900388740870687,2.9900388740870687,2.9900388740870687,2.989207619083185,2.989207619083185,2.989207619083185,2.989207619083185,2.989207619083185,2.989207619083185,2.989207619083185,2.989207619083185,2.989207619083185,2.989207619083185,2.989207619083185,2.989207619083185,2.989207619083185,2.989207619083185,2.989207619083185,2.989207619083185,2.989207619083185,3.000140741050269,3.0110896477588094,3.022051743276073,3.032658514474716,3.0437609450262437,3.0437609450262437,3.0548688564553554,3.065979510352963,3.065979510352963,3.065979510352963,3.065979510352963,3.065979510352963,3.065979510352963,3.065979510352963,3.065979510352963,3.065979510352963,3.065979510352963,3.065979510352963,3.065979510352963,3.065979510352963,3.065979510352963,3.065979510352963,3.065979510352963,3.065979510352963,3.065979510352963,3.141592653589793],[3.141592653589793,3.141592653589793,3.141592653589793,3.141592653589793,3.141592653589793,3.141592653589793,3.141592653589793,3.141592653589793,3.141592653589793,3.141592653589793,3.141592653589793,3.141592653589793,3.141592653589793,3.141592653589793,3.141592653589793,3.1567221730925947,3.18701593301137,3.23385664592734,3.2494347430073276,3.3133240500746104,3.3626080949615504,3.381256929192774,3.4631129524068065,3.513842585941311,3.5919077192964535,3.606895890216922,3.6579097919920733,3.8337743592746603,3.8337743592746603,3.8466446756482906,3.869332487886118,3.869332487886118,3.8817542092080735,3.892127281125802,3.904337638150819,3.9269908169872414,3.9269908169872414,3.9269908169872414,3.938718989062802,3.961178614150856,3.9836495786667814,3.9946326617355377,4.027303959002973,4.0375392597432045,4.059152435084803,4.070994610047622,4.070994610047622,4.070994610047622,4.070994610047622,4.070994610047622,4.070994610047622,4.070994610047622,4.070994610047622,4.070994610047622,4.070994610047622,4.070994610047622,4.070994610047622,4.070994610047622,4.070994610047622,4.070994610047622,4.070994610047622,4.070994610047622,4.070994610047622,4.070994610047622,4.070994610047622,4.070994610047622,4.070994610047622,4.070994610047622,4.070994610047622,4.083071317582714,4.188499068705605,4.262678996337863,4.360184268284137,4.522267279085403,4.6187163183241955,4.837642245518504,4.935905198037464,5.012180318359532,5.16270404609135,5.196671558769773,5.276958374052789,5.29220773656068,5.350509664541329,5.391445267876012,5.404570686069556,5.442429424119047,5.466438531933937,5.499759527812184,5.499759527812184,5.499759527812184,5.499759527812184,5.499759527812184,5.499759527812184,5.499759527812184,5.499759527812184,5.499759527812184,5.499759527812184,5.499759527812184,5.499759527812184,5.499759527812184,5.499759527812184,5.499759527812184,5.499759527812184,5.499759527812184,5.499759527812184,5.499759527812184,5.489498693900482,5.489498693900482,5.468083267292952,5.468083267292952,5.48832056060956,5.48832056060956,5.48832056060956,5.48832056060956,5.48832056060956,5.48832056060956,5.48832056060956,5.48832056060956,5.48832056060956,5.48832056060956,5.48832056060956,5.48832056060956,5.48832056060956,5.48832056060956,5.48832056060956,5.48832056060956,5.48832056060956,5.48832056060956,5.48832056060956,5.48832056060956,5.48832056060956,5.48832056060956,5.48832056060956,5.48832056060956,5.48832056060956,5.48832056060956,5.48832056060956,5.235987755982988]],"response_history":["5"],"rt":12982,"trial_type":"polygon-arrow-question","trial_index":0,"trial_index_global":5,"time_elapsed":399327,"internal_chunk_id":"0-0.3-0"},{"nsides":6,"feedback":"Correct! 3 <img src=./images/hexagon_symbol.png style=width:14px;height:14px> 2 = 5 because 2 steps clockwise on the hexagon from 3 brings us to 5. Equivalently, 3 + 2 = 5 and 5 is less than 6.","orientation_history":[0],"rt":1234,"trial_type":"polygon-arrow-feedback","trial_index":0,"trial_index_global":6,"time_elapsed":400563,"internal_chunk_id":"0-0.3-0"},{"nsides":6,"question":"What is 1 <img src=./images/hexagon_symbol.png style=width:14px;height:14px> 5? Try to solve this probem using the arithmetic technique. <br /><br /> (Remember, to perform <img src=./images/hexagon_symbol.png style=width:14px;height:14px> by arithmetic, you start with the first number, and then add the second one to it. If the sum is smaller than 6, that's your result. If the sum is 6 or bigger, you subtract 6 to get your result.)","response_type":"free","response_choices":[],"correct_response":"0","response":"0","orientation_history":[[0]],"response_history":["0"],"rt":6998,"trial_type":"polygon-arrow-question","trial_index":0,"trial_index_global":7,"time_elapsed":407562,"internal_chunk_id":"0-0.3-0"},{"nsides":6,"feedback":"Correct! 1 <img src=./images/hexagon_symbol.png style=width:14px;height:14px> 5 = 0 because 1 + 5 = 6 and 6 - 6 = 0.  Equivalently, 5 steps clockwise on th e hexago n from 1 brings us to 0.","orientation_history":[0],"rt":1133,"trial_type":"polygon-arrow-feedback","trial_index":0,"trial_index_global":8,"time_elapsed":408698,"internal_chunk_id":"0-0.3-0"},{"nsides":6,"question":"What is 1 <img src=./images/hexagon_symbol.png style=width:14px;height:14px> 1? Try to solve this problem using the hexagon. <br /><br /> (Remember, to perform <img src=./images/hexagon_symbol.png style=width:14px;height:14px> on the hexagon, you can use the interactive diagram on the right, or perform the operation in your mind. Point the arrow at the first number on the hexagon, and then move the arrow the second number of points clockwise around the hexagon.)","response_type":"free","response_choices":[],"correct_response":"2","response":"2","orientation_history":[[0],[0.028563657838760026,0.028563657838760026,0.02940328820400495,0.044089057398071674,0.05875582271572255,0.0596307131311693,0.060532019782107094,0.2292319332769952,0.2292319332769952,0.26481732990578877,0.3374560692277815,0.37433361600758386,0.4114562434137021,0.448723344010721,0.46364760900080615,0.5232783221319754,0.5375866466587464,0.5516549825285468,0.5790742693677308,0.5880026035475675,0.6467584262632902,0.6596287426369206,0.6947382761967031,0.7173217051394488,0.796633645655411,0.851966327173272,0.8839786770362513,0.9487643115057242,0.9613377888499761,0.9700825434839028,0.9700825434839028,0.9700825434839028,0.9700825434839028,0.9700825434839028,0.9700825434839028,0.9700825434839028,0.9700825434839028,0.9700825434839028,0.9700825434839028,0.9700825434839028,0.9700825434839028,0.9700825434839028,0.9700825434839028,0.9700825434839028,0.9700825434839028,0.9700825434839028,0.9700825434839028,0.9700825434839028,0.9700825434839028,0.9700825434839028,0.9700825434839028,0.9700825434839028,0.982793723247329,1.0799445463968773,1.1479424006619559,1.5152978215491797,1.5152978215491797,1.5570985534220307,1.6770611896859753,1.7033478590915705,1.75296463726766,1.763191928310819,1.8004387690800312,1.8249210763505306,1.8692952583810758,1.8925468811915387,1.8925468811915387,1.9154436424129226,1.9154436424129226,1.9154436424129226,1.9379701606131157,1.9379701606131157,1.9601130486280374,1.9601130486280374,1.9601130486280374,1.9601130486280374,1.9710369838288706,1.9710369838288706,1.9710369838288706,1.9710369838288706,1.9710369838288706,1.9710369838288706,1.9710369838288706,1.9710369838288706,1.9710369838288706,1.9710369838288706,1.9710369838288706,1.9710369838288706,1.9710369838288706,1.9710369838288706,1.981860874184761,1.981860874184761,1.9925835866657136,1.9925835866657136,1.9925835866657136,1.9925835866657136,1.9925835866657136,1.9925835866657136,1.9925835866657136,2.0032041023654346,2.0032041023654346,2.0081342185427804,2.0081342185427804,2.0081342185427804,2.0081342185427804,2.0081342185427804,2.0081342185427804,2.0081342185427804,2.0081342185427804,2.0081342185427804,2.0943951023931953]],"response_history":["2"],"rt":8168,"trial_type":"polygon- arrow-qu estion","trial_index":0,"trial_index_global":9,"time_elapsed":416867,"internal_chunk_id":"0-0.3-0"},{"nsides":6,"feedback":"Correct! 1 <img src=./images/hexagon_symbol.png style=width:14px;height:14px> 1 = 2 because 1 step clockwise on the hexagon from 1 brings us to 2. Equivalently, 1 + 1 = 2 and 2 is less than 6.","orientation_history":[0],"rt":1223,"trial_type":"polygon-arrow-feedback","trial_index":0,"trial_index_global":10,"time_elapsed":418093,"internal_chunk_id":"0-0.3-0"},{"nsides":6,"question":"What is 3 <img src=./images/hexagon_symbol.png style=width:14px;height:14px> 0? Try to solve this problem using the arithmetic technique. <br /><br /> (Remember, to perform <img src=./images/hexagon_symbol.png style=width:14px;height:14px> using arithmetic, you start with the first number, and then add the second one to it. If the sum is smaller than 6, that's your result. If the sum is 6 or bigger, you subtract 6 to get your result.)","response_type":"free","response_choices":[],"correct_response":"3","response":"3","orientation_history":[[0]],"response_history":["3"],"rt":8244,"trial_type":"polygon-arrow-question","trial_index":0,"trial_index_global":11,"time_elapsed":426339,"internal_chunk_id":"0-0.3-0"},{"nsides":6,"feedback":"Correct! 3 <img src=./images/hexagon_symbol.png style=width:14px;height:14px> 0 = 3 because 3 + 0 = 3 and 3 - 6 = 3.  Equivalently, 0 steps clockwise on the hexagon from 3 brings us to 3.","orientation_history":[0],"rt":1088,"trial_type":"polygon-arrow-feedback","trial_index":0,"trial_index_global":12,"time_elapsed":427430,"internal_chunk_id":"0-0.3-0"},{"nsides":6,"question":"What is 4 <img src=./images/hexagon_symbol.png style=width:14px;height:14px> 4? Try to solve this problem using the hexagon. <br /><br /> (Remember, to perform <img src=./images/hexagon_symbol.png style=width:14px;height:14px> on the hexagon, you can use the interactive diagram on the right, or perform the  operatio n in your mind. Point the arrow at the first number on the hexagon, and then move the arrow the second number of points clockwise around the hexagon.)","response_type":"free","response_choices":[],"correct_response":"2","response":"2","orientation_history":[[0],[0.33419804426550326,0.33419804426550326,0.33419804426550326,0.33419804426550326,0.33419804426550326,0.33419804426550326,0.3430239404207034,0.3779683114962733,0.42544963737004227,0.5227890853804023,0.6343828204760888,0.8505233267318342,1.1393956002293444,1.2847448850775782,1.4497691069856915,1.5582969777755349,1.761980786391911,1.849095985800008,1.9676144707454497,1.9890206563741257,2.0416901857756,2.0701430484750265,2.0701430484750265,2.124477649001894,2.124477649001894,2.1865695669358853,2.201875714266226,2.2332226206280477,2.316215803069055,2.3502773994863175,2.483704048407583,2.5899376710612465,2.7816441275623873,2.8890383778117337,2.981679530431574,3.1306040849070595,3.1865062490595824,3.281842263226398,3.662321044996864,3.662321044996864,3.7438799997247574,3.9179820516968245,3.9712097613828945,4.068887871591405,4.078963097415546,4.124386376837123,4.124386376837123,4.124386376837123,4.124386376837123,4.124386376837123,4.124386376837123,4.124386376837123,4.124386376837123,4.124386376837123,4.124386376837123,4.124386376837123,4.124386376837123,4.124386376837123,4.124386376837123,4.124386376837123,4.124386376837123,4.124386376837123,4.124386376837123,4.124386376837123,4.124386376837123,4.124386376837123,4.124386376837123,4.124386376837123,4.124386376837123,4.124386376837123,4.124386376837123,4.124386376837123,4.124386376837123,4.124386376837123,4.124386376837123,4.124386376837123,4.124386376837123,4.124386376837123,4.124386376837123,4.206597664790286,4.206597664790286,4.4674103172578254,4.588033985837928,4.71238898038469,4.836743974931451,5.038970415075308,5.136583388288456,5.238455399381452,5.285355123273396,5.340225574196479,5.361031432051234,5.371195016502165,5.408737561147641,5.418308899173931,5.418308899173931,5.418308899173931,5.418308899173931,5.418308899173931,5.418308899173931,5.418308899173931,5.418308899173931,5.418308899173931,5.418308899173931,5.418308899173931,5.418308899173931,5.418308899173931,5.418308899173931,5.418308899173931,5.418308899173931,5.654389020764153,5.802779490596542,5.842005826764606,5.864960977600357,5.8932674432487335,5.8932674432487335,5.8932674432487335,5.8932674432487335,5.8932674432487335,5.8932674432487335,5.8932674432487335,5.905042991856985,5.921456065659654,5.925876624171487,5.941829421925739,5.989315972147119,6.0169332580286605,6.044248866593422,6.0685924256883625,6.080863678801283,6.0833566621065955,6.0833566621065955,6.09554553537522,6.107791086636164,6.107791086636164,6.107791086636164,6.107791086636164,6.107791086636164,6.107791086636164,6.107791086636164,6.107791086636164,6.107791086636164,6.107791086636164,6.107791086636164,6.107791086636164,6.107791086636164,6.107791086636164,6.107791086636164,6.107791086636164,6.107791086636164,6.107791086636164,6.244742717158398,6.244742717158398,0.05258306161094173,0.23186466084938862,0.3392926144540447,0.5241796287829132,0.5989112617302315,0.6666928262542712,0.7140906986121579,0.7419472680059174,0.8114792046882006,0.8281072191624524,0.9034901918165422,0.9342881110069455,0.9697225722971473,1.040238439765449,1.046000555144789,1.0971987974012853,1.1120991724029339,1.1414489854337304,1.1459641638755542,1.1459641638755542,1.155890569104022,1.155890569104022,1.155890569104022,1.155890569104022,1.155890569104022,1.155890569104022,1.155890569104022,1.155890569104022,1.155890569104022,1.155890569104022,1.155890569104022,1.155890569104022,1.155890569104022,1.155890569104022,1.155890569104022,1.2490457723982544,1.2490457723982544,1.396124127786657,1.4780400066067527,1.5478118693534444,1.6388727850528961,1.6727146942757705,1.7285650643908506,1.748671589800973,1.7595340943150302,1.7918433894699153,1.8131294934479114,1.823690391890494,1.823690391890494,1.834193959340397,1.8446383630220393,1.8446383630220393,1.8550218423612757,1.8653427097943256,1.8653427097943256,1.8653427097943256,1.8653427097943256,1.875599351385134,1.875599351385134,1.875599351385134,1.8788491078186729,1.8993494973463476,1.8993494973463476,1.8993494973463476,1.9167635994076928,1.9167635994076928,1.9270159821910466,1.9270159821910466,1.9270159821910466,1.9270159821910466,1.9270159821910466,1.9270159821910466,1.9270159821910466,1.9270159821910466,1.9270159821910466,1.9270159821910466,2.0943951023931953]],"response_history":["2"],"rt":9167,"trial_type":"polygon-arrow-question","trial_index":0,"trial_index_global":13,"time_elapsed":436598,"internal_chunk_id":"0-0.3-0"},{"nsides":6,"feedback":"Correct! 4 <img src=./images/hexagon_symbol.png style=width:14px;height:14px> 4 = 2 because 4 steps clockwise on the hexagon from 4 brings us to 2. Equivalently, 4 + 4 = 8 and 8 - 6 = 2.","orientation_history":[0],"rt":1131,"trial_type":"polygon-arrow-feedback","trial_index":0,"trial_index_global":14,"time_elapsed":437730,"internal_chunk_id":"0-0.3-0"},{"nsides":6,"question":"What is 1 <img src=./images/hexagon_symbol.png style=width:14px;height:14px> 3? Try to solve this problem using the arithmetic technique. <br /><br /> (Remember, to perform <img src=./images/hexagon_symbol.png style=width:14px;height:14px> by arithmetic, you start with the first number, and then add the second one to it. If the sum is smaller than 6, that's your result. If the sum is 6 or bigger, you subtract 6 to get your result.)","response_type":"free","response_choices":[],"correct_response":"4","response":"4","orientation_history":[[0]],"response_history":["4"],"rt":5021,"trial_type":"polygon-arrow-question","trial_index":0,"trial_index_global":15,"time_elapsed":442753,"internal_chunk_id":"0-0.3-0"},{"nsides":6,"feedback":"Correct! 1 <img src=./images/hexagon_symbol.png style=width:14px;height:14px> 3 = 4 because 1 + 3 = 4 and 4 - 6 = 4.  Equivalently, 3 steps clockwis e on the  hexagon from 1 brings us to 4.","orientation_history":[0],"rt":966,"trial_type":"polygon-arrow-feedback","trial_index":0,"trial_index_global":16,"time_elapsed":443720,"internal_chunk_id":"0-0.3-0"},{"nsides":6,"question":"What is 4 <img src=./images/hexagon_symbol.png style=width:14px;height:14px> 3? <br /><br /> (Remember, to perform <img src=./images/hexagon_symbol.png style=width:14px;height:14px>, you can either use a method based on the hexagon at right, or a method based on arithmetic.<br /><br /><b>Hexagon method:</b> you can use the interactive diagram on the right, or perform the operation in your mind. Point the arrow at the first number, then move the arrow the second number of points clockwise around the hexagon. The number the arrow arrives at is your result. <br /><br /><b>Arithmetic method:</b> you start with the first number, and then add the second one to it. If the sum is smaller than 6, that's your result. If the sum is 6 or bigger, you su btract 6  to get your result.)","response_type":"free","response_choices":[],"correct_response":"1","response":"1","orientation_history":[[0],[0,0,0.014858077082712029,0.044195030295106186,-6.208696516965705,-6.062212338572143,-5.9469830145645,-5.689550402719182,-5.536733345375473,-5.386278237694326,-5.159038333654927,-5.07452734998435,-4.873445170891672,-4.798992094708389,-4.694020972871985,-4.616850668033762,-4.585863875361592,-4.546320340028123,-4.527242968996912,-4.45980725193961,-4.440504630320928,-4.385944896052171,-4.340097152696373,-4.331073900764251,-4.262629367314851,-4.229281713063659,-4.157012909975473,-4.112656590516603,-4.102626442080648,-4.020144464604575,-4.020144464604575,-3.9122598531617574,-3.879044464524757,-3.689135878665084,-3.483542480567503,-3.3479415879971146,-2.9499951188090474,-2.739365356595356,-2.4408424257771566,-2.387195008503554,-2.2279939706752305,-2.1757213419888632,-2.128281778399618,-2.080388591603822,-2.080388591603822,-2.068501180589009,-2.0608769302491146,-2.0488918868717283,-2.0488918868717283,-2.036727036851599,-2.036727036851599,-2.036727036851599,-2.036727036851599,-2.036727036851599,-2.036727036851599,-2.036727036851599,-2.036727036851599,-2.036727036851599,-2.036727036851599,-2.036727036851599,-2.036727036851599,-2.036727036851599,-2.036727036851599,-2.036727036851599,-2.036727036851599,-2.036727036851599,-2.036727036851599,-2.036727036851599,-2.036727036851599,-2.036727036851599,-2.036727036851599,-2.0488918868717283,-2.0488918868717283,-2.0608769302491146,-2.0608769302491146,-2.0608769302491146,-2.0608769302491146,-2.0608769302491146,-2.0608769302491146,-2.0608769302491146,-2.0608769302491146,-2.0608769302491146,-2.0608769302491146,-2.0608769302491146,-2.0608769302491146,-2.0608769302491146,-2.0608769302491146,-2.0608769302491146,-2.0608769302491146,-2.0608769302491146,-2.0608769302491146,-2.0608769302491146,-2.0608769302491146,-2.0608769302491146,-1.9731994042465502,-1.8477523305845667,-1.7569099283283558,-1.6937030964308954,-1.6124491634610054,-1.411763781068017,-1.3592413622708275,-1.3088784241373412,-1.1745569821843729,-1.1745569821843729,-1.018476481588901,-0.9771614223344924,-0.9771614223344924,-0.9771614223344924,-0.9771614223344924,-0.9847514094107099,-0.9771614223344924,-0.9771614223344924,-0.9847514094107099,-0.9847514094107099,-0.9847514094107099,-0.9847514094107099,-0.9847514094107099,-0.9847514094107099,-0.9847514094107099,-0.9847514094107099,-0.9847514094107099,-0.9847514094107099,-0.9847514094107099,-0.8215665943574626,-0.768317487820366,-0.6871043469984963,-0.6002521520096709,-0.35664995050490056,-0.2358986169184698,-0.1481721504224831,0.021905728602940044,0.021905728602940044,-6.110651239671865,-6.0944421890042655,-6.051279644239115,-6.051279644239115,-6.02334856697001,-6.008297963139826,-6.008297963139826,-6.008297963139826,-6.008297963139826,-6.008297963139826,-5.993338817267967,-5.993338817267967,-5.993338817267967,-5.978476929688861,-5.949066887557447,-5.848130516487599,-5.454216333131299,-5.316905498869352,-5.200637412931892,-5.090966183550538,-5.029135769297982,-5.012233806178392,-4.99795951952186,-4.99795951952186,-4.99795951952186,-4.99795951952186,-4.99795951952186,-4.99795951952186,-4.99795951952186,1.0471975511965976]],"response_history":["1"],"rt":10756,"trial_type":"polygon-arrow-question","trial_index":0,"trial_index_global":17,"time_elapsed":454477,"internal_chunk_id":"0-0.3-0"},{"nsides":6,"feedback":"Correct! 4 <img src=./images/hexagon_symbol.png style=width:14px;height:14px> 3 = 1 because 3 steps clockwise on the hexagon from 4 brings us to 1. Equivalently, 4 + 3 = 7 and 7 - 6 = 1.","orientation_history":[0],"rt":1042,"trial_type":"polygon-arrow-feedback","trial_index":0,"trial_index_global":18,"time_elapsed":455522,"internal_chunk_id":"0-0.3-0"},{"nsides":6,"question":"What is 0 <img src=./images/hexagon_symbol.png style=width:14px;height:14px> 5? <br /><br /> (Remember, to perform <img src=./images/hexagon_symbol.p ng sty le=width:14px;height:14px>, you can either use a method based on the hexagon at right, or a method based on arithmetic.<br /><br /><b>Hexagon method:</b> you can use the interactive diagram on the right, or perform the operation in your mind. Point the arrow at the first number, then move the arrow the second number of points clockwise around the hexagon. The number the arrow arrives at is your result. <br /><br /><b>Arithmetic method:</b> you start with the first number, and then add the second one to it. If the sum is smaller than 6, that's your result. If the sum is 6 or bigger, you subtract 6 to get your result.)","response_type":"free","response_choices":[],"correct_response":"5","response":"5","orientation_history":[[0]],"response_history":["5"],"rt":4029,"trial_type":"polygon-arrow-question","trial_index":0,"trial_index_global":19,"time_elapsed":459552,"internal_chunk_id":"0-0.3-0"},{"nsides":6,"feedback":"Correct! 0 <img src=./images/hexagon_symbol.png style= width: 14px;height:14px> 5 = 5 because 5 steps clockwise on the hexagon from 0 brings us to 5. Equivalently, 0 + 5 = 5 and 5 is less than 6.","orientation_history":[0],"rt":1019,"trial_type":"polygon-arrow-feedback","trial_index":0,"trial_index_global":20,"time_elapsed":460574,"internal_chunk_id":"0-0.3-0"},{"nsides":6,"question":"What is 2 <img src=./images/hexagon_symbol.png style=width:14px;height:14px> 5? <br /><br /> (Remember, to perform <img src=./images/hexagon_symbol.png style=width:14px;height:14px>, you can either use a method based on the hexagon at right, or a method based on arithmetic.<br /><br /><b>Hexagon method:</b> you can use the interactive diagram on the right, or perform the operation in your mind. Point the arrow at the first number, then move the arrow the second number of points clockwise around the hexagon. The number the arrow arrives at is your result. <br /><br /><b>Arithmetic method:</b> you start with the first number, and then add  the seco nd one to it. If the sum is smaller than 6, that's your result. If the sum is 6 or bigger, you subtract 6 to get your result.)","response_type":"free","response_choices":[],"correct_response":"1","response":"1","orientation_history":[[0],[0.015111663546510501,0.015111663546510501,0.03155462593054592,0.04779449741821673,0.10579389062616995,0.12496727060678858,0.8025418855603983,0.9832196175997729,1.087516846250019,1.2580248237350076,1.3704398065538277,1.5590586041378651,1.6398642102371745,1.7720385202201792,1.8005898249070331,1.8550951139370069,1.8760169772088386,1.8960783556220016,1.9385275958345491,1.9451004146621715,1.9733919841668406,1.98419315592008,2.0054665419441413,2.01064784272838,2.01064784272838,2.0209292270037267,2.0311019504658185,2.0311019504658185,2.0311019504658185,2.0311019504658185,2.0311019504658185,2.0311019504658185,2.0311019504658185,2.0311019504658185,2.0311019504658185,2.0311019504658185,2.0311019504658185,2.0311019504658185,2.0311019504658185,2.0311019504658185,2.0311019504658185,2.0311019504658185,2.0311019504658185,2.0311019504658185,2.0311019504658185,2.0311019504658185,2.074141444176181,2.0801934462895657,2.116123763118037,2.206314332038092,2.3950739191970873,2.5168307121151727,2.5168307121151727,2.5524938755548385,2.629489594920898,2.6489676507374256,2.661953933657598,2.661953933657598,2.661953933657598,2.661953933657598,2.661953933657598,2.6751054876207787,2.6751054876207787,2.6751054876207787,2.6751054876207787,2.6751054876207787,2.6751054876207787,2.6751054876207787,2.6751054876207787,2.6751054876207787,2.6751054876207787,2.6751054876207787,2.6751054876207787,2.6751054876207787,2.6751054876207787,2.6943909301590026,2.7077234734531483,2.7077234734531483,2.80973039136326,2.8858164116843463,2.8858164116843463,2.991991591158129,3.006949677638376,3.006949677638376,2.991991591158129,3.0219553725374864,3.0219553725374864,3.0219553725374864,3.0219553725374864,3.0219553725374864,3.0219553725374864,3.0219553725374864,3.0219553725374864,3.0219553725374864,3.0219553725374864,3.0219553725374864,3.0219553725374864,3.0219553725374864,3.0219553725374864,3.0219553725374864,3.0219553725374864,3.0219553725374864,3.0798401153341564,3.0798401153341564,3.1126152597382317,3.476594216247876,3.5864665962329925,3.738100299977461,4.039910477739844,4.164265472286606,4.339192903550661,4.430335934368526,4.476728368048879,4.498063636537434,4.515769148701913,4.515769148701913,4.515769148701913,4.515769148701913,4.515769148701913,4.515769148701913,4.515769148701913,4.515769148701913,4.515769148701913,4.515769148701913,4.515769148701913,4.515769148701913,4.515769148701913,4.515769148701913,4.515769148701913,4.515769148701913,4.515769148701913,4.515769148701913,4.515769148701913,4.515769148701913,4.515769148701913,4.515769148701913,4.515769148701913,4.518262909118501,4.488931470318023,4.480366369279664,4.480366369279664,4.469350902969307,4.469350902969307,4.469350902969307,4.469350902969307,4.469350902969307,4.469350902969307,4.494514405655505,4.494514405655505,4.814999727991048,4.814999727991048,5.159480916855889,5.159480916855889,5.159480916855889,5.159480916855889,5.159480916855889,5.159480916855889,5.159480916855889,5.159480916855889,5.159480916855889,5.159480916855889,5.159480916855889,5.159480916855889,5.159480916855889,5.171745537589534,5.171745537589534,5.183852399680423,5.183852399680423,5.183852399680423,5.183852399680423,5.183852399680423,5.183852399680423,5.183852399680423,5.183852399680423,5.183852399680423,5.183852399680423,5.195801046843866,5.214441691377311,5.2987511283385205,5.3355829982901986,5.47979831861331,5.569590749015244,5.72496113249618,5.775855481949367,5.820626429376262,5.911183972907321,5.948329041923173,6.056812353478144,6.072888138926534,6.190800961361193,6.190800961361193,6.208086797313514,6.208086797313514,6.208086797313514,6.223448387257555,6.223448387257555,6.223448387257555,6.223448387257555,6.223448387257555,6.223448387257555,0.06306945501184558,0.15358245927934555,0.808098854028317,0.808098854028317,0.9163338927041064,1.0506553346570748,1.1343890810421604,1.2145739283434767,1.2519724430317156,1.2519724430317156,1.271305545950112,1.271305545950112,1.2734527220374285,1.2734527220374285,1.2734527220374285,1.2734527220374285,1.2734527220374285,1.2734527220374285,1.2734527220374285,1.0471975511965976]],"response_history":["1"],"rt":9505,"trial_type":"polygon-arrow-question","trial_index":0,"trial_index_global":21,"time_elapsed":470080,"internal_chunk_id":"0-0.3-0"},{"nsides":6,"feedback":"Correct! 2 <img src=./images/hexagon_symbol.png style=width:14px;height:14px> 5 = 1 because 5 steps clockwise on the hexagon from 2 brings us to 1. Equivalently, 2 + 5 = 7 and 7 - 6 = 1.","orientation_history":[0],"rt":1122,"trial_type":"polygon-arrow-feedback","trial_index":0,"trial_index_global":22,"time_elapsed":471205,"internal_chunk_id":"0-0.3-0"},{"nsides":6,"instructions":"Now we're going to discuss a couple special properties of this new operation, <img sr c=./im ages/hexagon_symbol.png style=width:14px;height:14px> that we've learned. First, notice that the number 0 behaves in a special way under <img src=./images/hexagon_symbol.png style=width:14px;height:14px>. Whenever we combine 0 with anything else, we get that same thing back. We'll say that 0 is the <i>identity</i> under <img src=./images/hexagon_symbol.png style=width:14px;height:14px>, because when you combine it with something it gives you that identical thing back.","orientation_history":[0],"rt":15241,"trial_type":"polygon-arrow-instructions","trial_index":0,"trial_index_global":23,"time_elapsed":486452,"internal_chunk_id":"0-0"},{"nsides":6,"instructions":"Now that we know 0 is the identity under <img src=./images/hexagon_symbol.png style=width:14px;height:14px>, we're going to make a new definition. We'll say that the <i>inverse</i> of a number is the element that you combine with it to produce the identity. For example, 5 <img src=./ima ges/hexa gon_symbol.png style=width:14px;height:14px> 1 = 0, so we say 1 is the inverse of 5 under <img src=./images/hexagon_symbol.png style=width:14px;height:14px>, (remember 0 is the identity under <img src=./images/hexagon_symbol.png style=width:14px;height:14px>). Similarly, 3 is its own inverse under <img src=./images/hexagon_symbol.png style=width:14px;height:14px>, because 3 <img src=./images/hexagon_symbol.png style=width:14px;height:14px> 3 = 0.","orientation_history":[0],"rt":23008,"trial_type":"polygon-arrow-instructions","trial_index":0,"trial_index_global":24,"time_elapsed":509462,"internal_chunk_id":"0-0"},{"nsides":6,"question":"Now you try! What is the inverse of 4 under <img src=./images/hexagon_symbol.png style=width:14px;height:14px>? <br /><br /> (Remember, the inverse of an element is the thing which you combine with it to produce the identity.)","response_type":"free","response_choices":[],"correct_response":"2","response":"2","orientation_history":[[0],[0.20902294280626466,0.22347660114063306,0.2487099890935227,0.2825549524695874,0.3268266529299406,0.3625442372645076,0.39852244566642026,0.43358148395176177,0.5020901990219941,0.5255837935516101,0.6690429981905734,0.746456820300409,0.946160904023283,0.946160904023283,1.2597980461893556,1.382574821490126,1.4157995848709555,1.543405918320034,1.5707963267948966,1.6213860355642813,1.6456561745056635,1.6570019004706755,1.6892862859530344,1.6892862859530344,1.734036609579734,1.7454685258031362,1.799292966086759,1.832122307417399,1.8643853142036464,1.967237610013338,1.9912016779976394,2.0582489619807727,2.0965648607840874,2.197241520363652,2.2655346029915995,2.312105432794273,2.4237606576288435,2.5002282936813396,2.633420035754463,2.7076392841958965,2.773611717444809,2.955534476440789,3.060376347139056,3.2741441858864673,3.3708245868667888,3.5371638043326,3.6008350047437885,3.660738767836316,3.701179135443886,3.709032603047642,3.709032603047642,3.709032603047642,3.709032603047642,3.709032603047642,3.7140524674078446,3.7400115470683306,3.8841598843185143,3.9197966964969493,3.9197966964969493,3.984897022235349,4.007110910031056,4.02809418872354,4.02809418872354,4.042417477354166,4.042417477354166,4.042417477354166,4.042417477354166,4.048688599010338,4.048688599010338,4.048688599010338,4.064797914846709,4.064797914846709,4.079091599085359,4.079091599085359,4.093322925802061,4.093322925802061,4.093322925802061,4.093322925802061,4.093322925802061,4.093322925802061,4.093322925802061,4.093322925802061,4.093322925802061,4.093322925802061,4.093322925802061,4.093322925802061,4.093322925802061,4.093322925802061,4.093322925802061,4.093322925802061,4.093322925802061,4.093322925802061,4.093322925802061,4.093322925802061,4.093322925802061,4.093322925802061,4.093322925802061,4.093322925802061,4.093322925802061,4.093322925802061,4.093322925802061,4.093322925802061,4.093322925802061,4.093322925802061,4.093322925802061,4.093322925802061,4.093322925802061,4.093322925802061,4.093322925802061,4.093322925802061,4.093322925802061,4.093322925802061,4.093322925802061,4.093322925802061,4.093322925802061,4.093322925802061,4.093322925802061,4.093322925802061,4.093322925802061,4.093322925802061,4.093322925802061,4.093322925802061,4.093322925802061,4.093322925802061,4.093322925802061,4.093322925802061,4.093322925802061,4.093322925802061,4.093322925802061,4.093322925802061,4.093322925802061,4.093322925802061,4.093322925802061,4.093322925802061,4.093322925802061,4.093322925802061,4.093322925802061,4.093322925802061,4.093322925802061,4.093322925802061,4.093322925802061,4.093322925802061,4.093322925802061,4.093322925802061,4.093322925802061,4.093322925802061,4.093322925802061,4.093322925802061,4.093322925802061,4.093322925802061,4.093322925802061,4.093322925802061,4.093322925802061,4.093322925802061,4.093322925802061,4.093322925802061,4.093322925802061,4.093322925802061,4.093322925802061,4.093322925802061,4.093322925802061,4.093322925802061,4.093322925802061,4.093322925802061,4.093322925802061,4.093322925802061,4.093322925802061,4.093322925802061,4.093322925802061,4.093322925802061,4.093322925802061,4.093322925802061,4.093322925802061,4.093322925802061,4.093322925802061,4.093322925802061,4.093322925802061,4.093322925802061,4.093322925802061,4.093322925802061,4.093322925802061,4.093322925802061,4.093322925802061,4.093322925802061,4.093322925802061,4.093322925802061,4.093322925802061,4.093322925802061,4.093322925802061,4.093322925802061,4.093322925802061,4.093322925802061,4.093322925802061,4.093322925802061,4.093322925802061,4.093322925802061,4.093322925802061,4.093322925802061,4.093322925802061,4.093322925802061,4.093322925802061,4.093322925802061,4.093322925802061,4.093322925802061,4.093322925802061,4.093322925802061,4.093322925802061,4.093322925802061,4.093322925802061,4.093322925802061,4.093322925802061,4.093322925802061,4.093322925802061,4.093322925802061,4.093322925802061,4.093322925802061,4.093322925802061,4.093322925802061,4.093322925802061,4.093322925802061,4.093322925802061,4.093322925802061,4.093322925802061,4.093322925802061,4.093322925802061,4.093322925802061,4.093322925802061,4.093322925802061,4.093322925802061,4.093322925802061,4.093322925802061,4.093322925802061,4.093322925802061,4.093322925802061,4.093322925802061,4.093322925802061,4.093322925802061,4.093322925802061,4.093322925802061,4.093322925802061,4.093322925802061,4.093322925802061,4.093322925802061,4.093322925802061,4.093322925802061,4.093322925802061,4.093322925802061,4.093322925802061,4.093322925802061,4.093322925802061,4.093322925802061,4.093322925802061,4.093322925802061,4.093322925802061,4.093322925802061,4.093322925802061,4.093322925802061,4.093322925802061,4.093322925802061,4.093322925802061,4.093322925802061,4.093322925802061,4.093322925802061,4.093322925802061,4.093322925802061,4.093322925802061,4.093322925802061,4.093322925802061,4.093322925802061,4.093322925802061,4.093322925802061,4.093322925802061,4.093322925802061,4.093322925802061,4.093322925802061,4.093322925802061,4.093322925802061,4.093322925802061,4.093322925802061,4.093322925802061,4.093322925802061,4.093322925802061,4.093322925802061,4.093322925802061,4.093322925802061,4.093322925802061,4.093322925802061,4.093322925802061,4.093322925802061,4.093322925802061,4.093322925802061,4.093322925802061,4.093322925802061,4.093322925802061,4.093322925802061,4.093322925802061,4.093322925802061,4.093322925802061,4.093322925802061,4.093322925802061,4.093322925802061,4.093322925802061,4.093322925802061,4.093322925802061,4.093322925802061,4.093322925802061,4.093322925802061,4.093322925802061,4.093322925802061,4.093322925802061,4.093322925802061,4.093322925802061,4.093322925802061,4.093322925802061,4.093322925802061,4.110101634249725,4.1481207915267575,4.1795450927653,4.203087836382678,4.253949657622956,4.343429434178834,4.37868680384714,4.4674103172578254,4.788002123621519,4.927746680082428,4.927746680082428,5.087229695740287,5.149016140198231,5.1827932433212816,5.263064531296941,5.300391583932257,5.300391583932257,5.300391583932257,5.300391583932257,5.300391583932257,5.300391583932257,5.300391583932257,5.300391583932257,5.300391583932257,5.300391583932257,5.300391583932257,5.300391583932257,5.300391583932257,5.300391583932257,5.300391583932257,5.300391583932257,5.300391583932257,5.300391583932257,5.300391583932257,5.300391583932257,5.300391583932257,5.300391583932257,5.300391583932257,5.300391583932257,5.300391583932257,5.300391583932257,5.300391583932257,5.300391583932257,5.300391583932257,5.300391583932257,5.300391583932257,5.300391583932257,5.300391583932257,5.300391583932257,5.300391583932257,5.300391583932257,5.300391583932257,5.300391583932257,5.300391583932257,5.300391583932257,5.300391583932257,5.300391583932257,5.373432149235376,5.403332208387091,5.4452040821711964,5.4765137577580765,5.5845254824581225,5.62748968093805,5.695182703632019,5.724585991836024,5.758389535529479,5.7790193457004335,5.792333526781567,5.826340314333589,5.846558147366045,5.852858694057027,5.886105861954604,5.905418649239765,5.9294821610984645,5.934414303595679,5.997133865462268,6.0010615750368705,6.018142447282131,6.064516361305644,6.083192350573405,6.128584761748385,6.143083582782956,6.171156344753598,6.185932108928021,6.187096591662219,6.225111147616632,6.237240651371467,6.237240651371467,6.237762027758009,6.237762027758009,6.237762027758009,6.24949019983357,6.272074653281979,0]],"response_history":["2"],"rt":18891,"trial_type":"polygon-arrow-question","trial_index":0,"trial_index_global":25,"time_elapsed":528355,"internal_chunk_id":"0-0.7-0"},{"nsides":6,"feedback":"Correct! The inverse of 4 under <img src=./images/hexagon_symbol.png style=width:14px;height:14px> is 2 because 4 <img src=./images/hexagon_symbol.png style=width:14px;height:14px> 2 = 0, and 0 is the identity under <img src=./images/hexagon_symbol.png style=width:14px;height:14px>.","orientation_history":[0],"rt":1237,"trial_type":"polygo n-arrow-feedback","trial_index":0,"trial_index_global":26,"time_elapsed":529595,"internal_chunk_id":"0-0.7-0"},{"nsides":6,"question":"What is the inverse of 1 under <img src=./images/hexagon_symbol.png style=width:14px;height:14px>? <br /><br /> (Remember, the inverse of an element is the thing which you combine with it to produce the identity.)","response_type":"free","response_choices":[],"correct_response":"5","response":"5","orientation_history":[[0],[0,0,0,0,0,0,0,0,0.015525399559311648,0.015525399559311648,0.06491312331982946,0.09774445922448027,0.20828510310816006,0.41127892497697616,0.41127892497697616,0.5895805680964271,0.6661746183579431,0.6800626142889101,0.7824699140803657,0.808071672962107,0.8316943532694551,0.8565031580498502,0.8565031580498502,0.8565031580498502,0.8565031580498502,0.8565031580498502,0.8565031580498502,0.8811895001054496,0.8918112554126116,0.8918112554126116,0.9021445161943904,0.9159712313573818,0.9259357315600653,0.9259357315600653,0.9259357315600653,0.9259357315600653,0.9259357315600653,0.9399453228211724,0.9399453228211724,0.9637084545384312,0.9637084545384312,0.9872369416175499,0.9872369416175499,0.9872369416175499,1.0018131686855525,1.0018131686855525,1.0018131686855525,1.0018131686855525,1.0018131686855525,1.0018131686855525,1.0018131686855525,1.0018131686855525,1.0018131686855525,1.0018131686855525,1.0018131686855525,1.0018131686855525,1.0018131686855525,1.0018131686855525,1.0018131686855525,1.0018131686855525,1.0018131686855525,1.0018131686855525,1.0018131686855525,1.0018131686855525,1.0018131686855525,1.0018131686855525,1.0018131686855525,1.0018131686855525,1.0018131686855525,1.0018131686855525,1.0018131686855525,1.0018131686855525,1.0785850599553304,1.2312343883505956,1.2312343883505956,1.3933427213466394,1.4617616576906756,1.6371843752988928,1.6972294108800776,1.801862298364394,1.8733287456602685,1.9146311156328908,1.9866518788572356,2.0122093073731446,2.037120111387211,2.0613787832026595,2.0613787832026595,2.0920858516327216,2.0920858516327216,2.103726332223235,2.115198811844843,2.115198811844843,2.115198811844843,2.115198811844843,2.130235272503704,2.1416851537978743,2.1416851537978743,2.1416851537978743,2.1416851537978743,2.1416851537978743,2.1416851537978743,2.1416851537978743,2.1416851537978743,2.1416851537978743,2.152958633345345,2.2212379776546807,2.2299039249948662,2.367609519476875,2.367609519476875,2.4842327093356,2.5210581590644323,2.590239910370631,2.7777046144360216,2.804976214727257,2.9156334359011526,2.9571607943527107,3.0575304905053162,3.113028995751033,3.1269169916820005,3.1269169916820005,3.1269169916820005,3.1269169916820005,3.1269169916820005,3.1269169916820005,3.1269169916820005,3.140799632344454,3.140799632344454,3.140799632344454,3.140799632344454,3.140799632344454,3.140799632344454,3.140799632344454,3.140799632344454,3.140799632344454,3.140799632344454,3.140799632344454,3.140799632344454,3.1823621294392415,3.2852198102739725,3.4963131434967187,3.4963131434967187,3.8584484720251915,3.954970596093299,4.025019286428455,4.099224066425604,4.1454508091996995,4.194542305023447,4.194542305023447,4.194542305023447,4.194542305023447,4.194542305023447,4.194542305023447,4.199875934685906,4.199875934685906,4.199875934685906,4.199875934685906,4.199875934685906,4.199875934685906,4.199875934685906,4.199875934685906,4.199875934685906,4.199875934685906,4.199875934685906,4.199875934685906,4.199875934685906,4.209973986051169,4.283584665511956,4.339178006927904,4.52073003033569,4.621406512549973,4.7088201161648495,4.998057221630267,5.053509611341232,5.085695969986386,5.085695969986386,5.085695969986386,5.096235764143318,5.096235764143318,5.096235764143318,5.096235764143318,5.096235764143318,5.096235764143318,5.096235764143318,5.096235764143318,5.096235764143318,5.096235764143318,5.096235764143318,5.096235764143318,5.096235764143318,5.096235764143318,5.096235764143318,5.096235764143318,5.117025490977564,5.2059169363742175,5.312621608961363,5.405091370941946,5.7792786671743315,5.820377328544025,5.972849782067474,6.047747700361084,6.117555475030638,6.154952996849664,6.166934994211326,6.190878336808138,6.191547531443915,6.191547531443915,6.191547531443915,6.191547531443915,6.191547531443915,6.191547531443915,6.191547531443915,6.283185307179586]],"response_history":["5"],"rt":11393,"trial_type":"polygon-arrow-question","trial_index":0,"trial_index_global":27,"time_elapsed":540989,"internal_chunk_id":"0-0.7-0"},{"nsides":6,"feedback":"Correct! The inverse of 1 under <img src=./images/hexagon_symbol.png style=width:14px;height:14px> is 5 because 1 <img src=./images/hexagon_symbol.png style=width:14px;height:14px> 5 = 0, and 0 is the identity under <img src=./images/hexagon_symbol.png style=width:14px;height:14px>.","orientation_history":[0],"rt":954,"trial_type":"polygon-arrow-feedback","trial_index":0,"trial_index_global":28,"time_elapsed":541945,"internal_chunk_id":"0-0.7-0"},{"nsides":6,"question":"What is the  inverse  of 3 under <img src=./images/hexagon_symbol.png style=width:14px;height:14px>? <br /><br /> (Remember, the inverse of an element is the thing which you combine with it to produce the identity.)","response_type":"free","response_choices":[],"correct_response":"3","response":"3","orientation_history":[[0]],"response_history":["3"],"rt":4557,"trial_type":"polygon-arrow-question","trial_index":0,"trial_index_global":29,"time_elapsed":546504,"internal_chunk_id":"0-0.7-0"},{"nsides":6,"feedback":"Correct! The inverse of 3 under <img src=./images/hexagon_symbol.png style=width:14px;height:14px> is 3 because 3 <img src=./images/hexagon_symbol.png style=width:14px;height:14px> 3 = 0, and 0 is the identity under <img src=./images/hexagon_symbol.png style=width:14px;height:14px>.","orientation_history":[0],"rt":975,"trial_type":"polygon-arrow-feedback","trial_index":0,"trial_index_global":30,"time_elapsed":547480,"internal_chunk_id":"0-0.7-0"},{"nsides":6,"question":"What is the inverse of 2 under <img src=./images/hexagon_symbol.png style=width:14px;height:14px>? <br /><br /> (Remember, the inverse of an element is the thing which you combine with it to produce the identity.)","response_type":"free","response_choices":[],"correct_response":"4","response":"4","orientation_history":[[0],[0.014671633416512009,0.03159867435861763,-6.194848970836512,-6.150903340875125,-6.045823067458795,-5.928165701358714,-5.84343752906588,-5.492097304757649,-4.614506394658738,-4.527720531983169,-4.457852856778903,-4.39533782354533,-4.288914629961086,-4.268457126268908,-4.2450239163894405,-4.176349014157401,-4.160945867870717,-4.107082015848217,-4.093935054868008,-4.081343127828784,-4.087329646350317,-4.0782486363971,-4.069275564096564,-4.069275564096564,-4.069275564096564,-4.069275564096564,-4.069275564096564,-4.069275564096564,-4.069275564096564,-4.069275564096564,-4.069275564096564,-4.069275564096564,-4.069275564096564,-4.069275564096564,-4.069275564096564,-4.069275564096564,-4.069275564096564,-4.069275564096564,-4.069275564096564,-4.087329646350317,-4.096519028445163,-4.10581715439273,-4.10581715439273,-4.10581715439273,-4.10581715439273,-4.10581715439273,-4.111593263440123,-4.111593263440123,-4.10581715439273,-4.081343127828784,-4.050710689358366,-4.050710689358366,-3.942276921996775,-3.8697201803912775,-3.8697201803912775,-3.8112819187953977,-3.8112819187953977,-3.696530308169731,-3.696530308169731,-3.6188442834001933,-3.5984023184448493,-3.5984023184448493,-3.5984023184448493,-3.5984023184448493,-3.5984023184448493,-3.5984023184448493,-3.5984023184448493,-3.5984023184448493,-3.5984023184448493,-3.5984023184448493,-3.5984023184448493,-3.5984023184448493,-3.5984023184448493,-3.5984023184448493,-3.5984023184448493,-3.5984023184448493,-3.5984023184448493,-3.5984023184448493,-3.5984023184448493,-3.5984023184448493,-3.5824092454275016,-3.561418626946095,-3.534826142150518,-3.5240249703972784,-3.513115268306808,-3.463969774320482,-3.44122292275768,-3.44122292275768,-3.4297051074954314,-3.41809350451706,-3.41809350451706,-3.406390132510314,-3.3945971427132107,-3.3945971427132107,-3.3945971427132107,-3.3945971427132107,-3.3945971427132107,-3.3945971427132107,-3.3945971427132107,-3.3945971427132107,-3.3945971427132107,-3.3945971427132107,-3.3945971427132107,-3.3945971427132107,-3.3945971427132107,-3.3945971427132107,-3.3945971427132107,-3.3945971427132107,-3.3279968998946368,-3.3279968998946368,-3.121015577012533,-3.0319198993916663,-2.9222399938882986,-2.8398976433957133,-2.7001117749582573,-2.628804310172967,-2.5691735970417975,-2.53209204226893,-2.53209204226893,-2.509078912179917,-2.4997545144387106,-2.452363766412027,-2.4284057563470887,-2.4043069540278905,-2.380094321079444,-2.3557956070862565,-2.3314391649490434,-2.3314391649490434,-2.319398807620549,-2.319398807620549,-2.319398807620549,-2.319398807620549,-2.319398807620549,-2.319398807620549,-2.319398807620549,-2.319398807620549,-2.319398807620549,-2.319398807620549,-2.319398807620549,-2.319398807620549,-2.319398807620549,-2.319398807620549,-2.319398807620549,-2.319398807620549,-2.228269794787181,-1.7148670762266827,-1.5216555923788766,-1.3946828027647973,-0.9630562770353146,-0.9630562770353146,-0.9053586549828054,-0.8649539302594427,-0.8393390375041285,-0.8393390375041285,-0.8269173161821737,-0.8269173161821737,-0.8269173161821737,-0.8147475316187602,-0.8147475316187602,-0.8147475316187602,-0.8147475316187602,-0.8147475316187602,-0.8147475316187602,-0.8147475316187602,-0.8249133108488662,-0.8249133108488662,-0.8249133108488662,-0.8249133108488662,-0.8249133108488662,-0.8249133108488662,-0.8249133108488662,-0.8249133108488662,-0.8249133108488662,-0.779708324372959,-0.7362574289814283,-0.6825456996781964,-0.6302730709918292,-0.5796555519994131,-0.4987227970858159,-0.4467537570200397,-0.4145068745847862,-0.3261300884399372,-0.2901518800380245,-0.1991491748870482,-0.16379761516337776,-0.10951452777038195,-0.0530659836912335,-0.04036308393559018,-0.014066097481440387,-0.013278075579937543,-0.0008176613059225346,-0.0008176613059225346,-0.0008176613059225346,-0.0008176613059225346,-0.0008176613059225346,-0.0008176613059225346,-0.00020189783695023777,-0.00020189783695023777,0.0121206185420899,0.0121206185420899,0.0121206185420899,0.0121206185420899,0.0121206185420899,0.0121206185420899,0.0121206185420899,6.283185307179586]],"response_history":["4"],"rt":7334,"trial_type":"polygon-arrow-question","trial_index":0,"trial_index_global":31,"time_elapsed":554816,"internal_chunk_id":"0-0.7-0"},{"nsides":6,"feedback":"Correct! The inverse of 2 under <img src=./images/hexagon_symbol.png style=width:14px;height:14px> is 4 because 2 <img src=./images/hexagon_symbol.png style=width:14px;height:14px> 4 = 0, and 0 is the identity under <img src=./images/hexagon_symbol.png style=width:14px;height:14px>.","orientation_history":[0],"rt":1164,"trial_type":"polygon-arrow-feedback","trial_index":0,"trial_index_global":32,"time_elapsed":555981,"internal_chunk_id":"0-0.7-0"},{"nsides":6,"question":"What is the inverse of 0 under <img src=./images/hexagon_symbol.png style=width:14px;height:14px>? <br /><br /> (Remember, the inverse of an element is the thing which you combine with it to produce the identity.)","response_type":"free","response_choices":[],"correct_response":"0","response":"0","orientation_history":[[0]],"response_history":["0"],"rt":11076,"trial_type":"polygon-arrow-question","trial_index":0,"trial_index_global":33,"time_elapsed":567057,"internal_chunk_id":"0-0.7-0"},{"nsides":6,"feedback":"Correct! The inverse of 0 under <img src=./images/hexagon_symbol.png style=width:14px;height:14px> is 0 because 0 <img src=./images/hexagon_symbol.png style=width:14px;height:14px> 0 = 0, and 0 is the identity under <img src=./images/hexagon_symbol.png style=width:14px;height:14px>.","orientation_history":[0],"rt":1662,"trial_type":"polygon-arrow-f eedback","trial_index":0,"trial_index_global":34,"time_elapsed":568721,"internal_chunk_id":"0-0.7-0"},{"nsides":6,"instructions":"It is also possible to successively apply <img src=./images/hexagon_symbol.png style=width:14px;height:14px>, and the operation can simply be performed starting with the left-most pair. For example, 2 <img src=./images/hexagon_symbol.png style=width:14px;height:14px> 3 <img src=./images/hexagon_symbol.png style=width:14px;height:14px> 4 = 5 <img src=./images/hexagon_symbol.png style=width:14px;height:14px> 4 = 3.","orientation_history":[0],"rt":6527,"trial_type":"polygon-arrow-instructions","trial_index":0,"trial_index_global":35,"time_elapsed":575249,"internal_chunk_id":"0-0"},{"nsides":6,"instructions":"We have one last definition to learn today, using the successive operations we just learned. Let's start with an example. Under our operation <img src=./images/hexagon_symbol.png style=width:14px;height:14px> we ca n make e very other number using just 1: 2 = 1 <img src=./images/hexagon_symbol.png style=width:14px;height:14px> 1, 3 = 1 <img src=./images/hexagon_symbol.png style=width:14px;height:14px> 1 <img src=./images/hexagon_symbol.png style=width:14px;height:14px> 1, 4 = 1 <img src=./images/hexagon_symbol.png style=width:14px;height:14px> 1 <img src=./images/hexagon_symbol.png style=width:14px;height:14px> 1 <img src=./images/hexagon_symbol.png style=width:14px;height:14px> 1, 5 = 1 <img src=./images/hexagon_symbol.png style=width:14px;height:14px> 1 <img src=./images/hexagon_symbol.png style=width:14px;height:14px> 1 <img src=./images/hexagon_symbol.png style=width:14px;height:14px> 1 <img src=./images/hexagon_symbol.png style=width:14px;height:14px> 1, and 0 = 1 <img src=./images/hexagon_symbol.png style=width:14px;height:14px> 1 <img src=./images/hexagon_symbol.png style=width:14px;height:14px> 1 <im g src=./images/hexagon_symbol.png style=width:14px;height:14px> 1 <img src=./images/hexagon_symbol.png style=width:14px;height:14px> 1 <img src=./images/hexagon_symbol.png style=width:14px;height:14px> 1. Because 1 can make every other element under <img src=./images/hexagon_symbol.png style=width:14px;height:14px>, we say that 1 is a <i>generator</i> under <img src=./images/hexagon_symbol.png style=width:14px;height:14px>. <br /><br /> However, 2 is not a generator under <img src=./images/hexagon_symbol.png style=width:14px;height:14px>, because 4 = 2 <img src=./images/hexagon_symbol.png style=width:14px;height:14px> 2, and 0 = 2 <img src=./images/hexagon_symbol.png style=width:14px;height:14px> 2 <img src=./images/hexagon_symbol.png style=width:14px;height:14px> 2, but there is no way to make 1, 3, or 5 using just 2.","orientation_history":[0],"rt":24017,"trial_type":"polygon-arrow-instructions","trial_index":0,"trial_index_global":36,"time_elapsed":599268,"internal_chunk_id":"0-0"},{"nsides":6,"question":"Now you try! Is 3 a generator under <img src=./images/hexagon_symbol.png style=width:14px;height:14px>? <br /><br /> (Remember, a generator is an element which can make every other element.)","response_type":"multi","response_choices":["Yes","No"],"correct_response":"No","response":"No","orientation_history":[[0]],"response_history":["No"],"rt":19118,"trial_type":"polygon-arrow-question","trial_index":0,"trial_index_global":37,"time_elapsed":618390,"internal_chunk_id":"0-0.10-0"},{"nsides":6,"feedback":"Correct! 3 is not a generator under <img src=./images/hexagon_symbol.png style=width:14px;height:14px>, because 3 = 3, 0 = 3 <img src=./images/hexagon_symbol.png style=width:14px;height:14px> 3, but there is no way to make 1, 2, 4, or 5 using just 3.","orientation_history":[0],"rt":12251,"trial_type":"polygon-arrow-feedback","trial_index":0,"trial_index_global":38,"time_elapsed":630644,"internal_chunk_id":"0-0.10-0"},{"nsides":6,"question":"Is 5 a generator under <img src=./images/hexagon_symbol.png style=width:14px;height:14px>? <br /><br /> (Remember, a generator is an element which can make every other element.)","response_type":"multi","response_choices":["Yes","No"],"correct_response":"Yes","response":"No","orientation_history":[[0]],"response_history":["No"],"rt":7030,"trial_type":"polygon-arrow-question","trial_index":0,"trial_index_global":39,"time_elapsed":637676,"internal_chunk_id":"0-0.10-0"},{"nsides":6,"feedback":"Sorry, that's incorrect. 5 is a generator under <img src=./images/hexagon_symbol.png style=width:14px;height:14px>, because 5 = 5, 4 = 5 <img src=./images/hexagon_symbol.png style=width:14px;height:14px> 5, 3 = 5 <img src=./images/hexagon_symbol.png style=width:14px;height:14px> 5 <img src=./images/hexagon_symbol.png style=width:14px;height:14px> 5, 2 = 5 <img src=./im ages/hex agon_symbol.png style=width:14px;height:14px> 5 <img src=./images/hexagon_symbol.png style=width:14px;height:14px> 5 <img src=./images/hexagon_symbol.png style=width:14px;height:14px> 5, 1 = 5 <img src=./images/hexagon_symbol.png style=width:14px;height:14px> 5 <img src=./images/hexagon_symbol.png style=width:14px;height:14px> 5 <img src=./images/hexagon_symbol.png style=width:14px;height:14px> 5 <img src=./images/hexagon_symbol.png style=width:14px;height:14px> 5, and 0 = 5 <img src=./images/hexagon_symbol.png style=width:14px;height:14px> 5 <img src=./images/hexagon_symbol.png style=width:14px;height:14px> 5 <img src=./images/hexagon_symbol.png style=width:14px;height:14px> 5 <img src=./images/hexagon_symbol.png style=width:14px;height:14px> 5 <img src=./images/hexagon_symbol.png style=width:14px;height:14px> 5, so you can make all of the numbers under <img src=./images/hexagon_ symbol.p ng style=width:14px;height:14px> using 5","orientation_history":[0],"rt":17738,"trial_type":"polygon-arrow-feedback","trial_index":0,"trial_index_global":40,"time_elapsed":655416,"internal_chunk_id":"0-0.10-0"},{"nsides":6,"question":"Is 4 a generator under <img src=./images/hexagon_symbol.png style=width:14px;height:14px>? <br /><br /> (Remember, a generator is an element which can make every other element.)","response_type":"multi","response_choices":["Yes","No"],"correct_response":"No","response":"No","orientation_history":[[0],[0,-6.219778355212754,-6.169819959490812,-6.152085332518785,-6.118431851947086,-6.082712180902567,-6.012282128777551,-5.995543604103658,-5.9034922273006,-5.865072703201814,-5.826327717283819,-5.779027507433332,-5.740864756665168,-5.725836986293173,-5.725836986293173,-5.725836986293173,-5.725836986293173,-5.725836986293173,-5.725836986293173,-5.725836986293173,-5.725836986293173,-5.725836986293173,-5.725836986293173,-5.71768815619076,-5.71768815619076,-5.71768815619076,-5.71768815619076,-5.71768815619076,-5.71768815619076,-5.71768815619076,-5.71768815619076,-5.71768815619076,-5.71768815619076,-5.71768815619076,-5.71768815619076,-5.71768815619076,-5.71768815619076,-5.71768815619076,-5.71768815619076,-5.71768815619076,-5.732879123401485,-5.732879123401485,-5.764004599236049,-5.794573336233136,-5.855043540948341,-5.8710073516288475,-5.9034922273006,-5.978931899971343,-6.012282128777551,-6.03234924276908,-6.068402911478728,-6.085007070735023,-6.085007070735023,-6.111507764352298,-6.07788130060859,-6.07788130060859,-5.935984246004426,-5.756130746211948,-5.32372297064141,-4.06097942487029,-3.714693917410912,-3.714693917410912,-3.567038055950709,-3.5347911735154547,-3.5279453146927997,-3.484932773348932,-3.4563280169455624,-3.4383788460407914,-3.421991502713118,-3.399936256019603,-3.379105935983386,-3.3520277378501038,-3.3307399774010205,-3.310999514729695,-3.2926574003712004,-3.2755812614728415,-3.264672603290178,-3.253923998308328,-3.253923998308328,-3.2523296386623786,-3.2523296386623786,-3.243334379037588,-3.243334379037588,-3.243334379037588,-3.243334379037588,-3.1990884659256524,-3.1731374079657173,-3.136941524338684,-3.0880863682109494,-2.973308762892727,-2.9059948871000216,-2.752950840769177,-2.7078622719201864,-2.6588440540729312,-2.6096120240937317,-2.599833270244303,-2.599833270244303,-2.5901526834494364,-2.5901526834494364,-2.5901526834494364,-2.5901526834494364,-2.580570579943732,-2.580570579943732,-2.462999463510987,-2.462999463510987,-2.4238154556524063,-2.376560481969279,-2.3382108176470897,-2.3003061935378164,-2.2778632732354276,-2.270234971575208,-2.262945653558403,-2.262945653558403,-2.262945653558403,-2.262945653558403,-2.255211248882789,-2.255211248882789,-2.255211248882789,-2.248041306770897,-2.248041306770897,-2.248041306770897,-2.248041306770897,-2.248041306770897,-2.248041306770897,-2.248041306770897,-2.248041306770897,-2.248041306770897,-2.248041306770897,-2.248041306770897,-2.248041306770897,-2.248041306770897,-2.248041306770897,-2.248041306770897,-2.248041306770897,-2.248041306770897,-2.248041306770897,-2.248041306770897,-2.248041306770897,-2.248041306770897,-2.248041306770897,-2.248041306770897,-2.248041306770897,-2.248041306770897,-2.248041306770897,-2.248041306770897,-2.248041306770897,-2.248041306770897,-2.248041306770897,-2.248041306770897,-2.248041306770897,-2.248041306770897,-2.248041306770897,-2.248041306770897,-2.248041306770897,-2.248041306770897,-2.248041306770897,-2.248041306770897,-2.248041306770897,-2.248041306770897,-2.248041306770897,-2.248041306770897,-2.248041306770897,-2.248041306770897,-2.2557674223515827,-2.2557674223515827,-2.2557674223515827,-2.2557674223515827,-2.2557674223515827,-2.2557674223515827,-2.2557674223515827,-2.2557674223515827,-2.2557674223515827,-2.2557674223515827,-2.2557674223515827,-2.2557674223515827,-2.2557674223515827,-2.2557674223515827,-2.2486984808274406,-2.2486984808274406,-2.2486984808274406,-2.2409820814345114,-2.2409820814345114,-2.2409820814345114,-2.177028320504702,-2.1236863122241356,-2.0759139225591046,-2.0191282171434226,-1.6639912518100797,-1.6639912518100797,-1.6122663135582984,-1.5073893748280645,-1.5073893748280645,-1.3654923202239004,-1.3527888293968635,-1.3275358750355863,-1.2654688061436596,-1.2411373256771396,-1.229089715822953,-1.2052441512886274,-1.2052441512886274,-1.2088904432418852,-1.2088904432418852,-1.2088904432418852,-1.2088904432418852,-1.2088904432418852,-1.2088904432418852,-1.2088904432418852,-1.2088904432418852,-1.2088904432418852,-1.2088904432418852,-1.2206439706961225,-1.2594345300123733,-1.3756271083501384,-1.4479357155194075,-1.5895568971897642,-1.6591545301557673,-1.7658443110360826,-1.8187596792259662,-1.835942545379516,-1.89570809300053,-1.9150208802856907,-1.9483136229872295,-1.9665325097903024,-1.9710369838288706,-1.9710369838288706,-1.966631725982059,-1.9710369838288706,-1.9710369838288706,-1.975422920617663,-1.975422920617663,-1.975422920617663,-1.975422920617663,-1.9710369838288706,-1.9710369838288706,-1.9710369838288706,-1.9710369838288706,-1.9710369838288706,-1.9710369838288706,-1.9531016874566998,-1.9348536878432894,-1.897437447091514,-1.8588341688316161,-1.7988461693059312,-1.6762212768391853,-1.6116609867557194,-1.4464891665500765,-1.3980708409401643,-1.234380671741354,-1.1608505103941225,-1.0796544624418223,-0.9193867712804975,-0.7597091638974804,-0.6664927061848998,-0.5537844395735307,-0.48574595071217885,-0.40585857545892967,-0.3510999226179541,-0.2732678674198956,-0.21807234656121022,-0.17344180898008776,-0.16006964917380095,-0.13614843173845514,-0.1106382878759069,-0.09995919614144366,-0.08600875794963603,-0.07401919353011088,-0.06356583764724721,-0.07401919353011088,-0.07401919353011088,-0.06356583764724721,-0.06356583764724721,-0.07401919353011088,-0.07401919353011088,-0.14691892169822562,-0.16006964917380095,-0.17609231394332703,-0.33987452975200405,-0.42349227984443694,-0.5663963834535863,-0.6331170366175085,-0.8525573062302438,-0.9669698745574804,-1.0749815992575273,-1.2493821329641088,-1.3019939856382967,-1.4025124360978305,-1.4694329296397504,-1.4694329296397504,-1.5073893748280645,-1.5197344266722892,-1.5197344266722892,-1.5197344266722892,-1.5197344266722892,-1.5197344266722892,-1.5197344266722892,-1.5198887238474255,-1.5198887238474255,-1.2887204289541225,-1.0891650452488353,-0.8905881510400464,-0.7325171384623417,-0.7325171384623417,-0.6067150854596646,-0.21871678017588359,-0.0841611193471623,-6.195092013157154,-6.060226634279495,-6.060226634279495,-5.97479969208589,-5.93249690181562,-5.848887066400092,-5.810870526261828,-5.747281419695691,-5.747281419695691,-5.631775751665186,-5.597306650665678,-5.568701633768274,-5.568701633768274,-5.515284290970537,-5.509070920637105,-5.501845216337211,-5.501845216337211,-5.501845216337211,-5.501845216337211,-5.495528354464607,-5.495528354464607,-5.495528354464607,-5.489119971865186,-5.4963696330098255,-5.489878697061023,-5.4832921979645,-5.513352299556698,-5.528987426935036,-5.545037412989202,-5.571966928285656,-5.607240798602451,-5.691703906786395,-5.756130746211948,-5.848887066400092,-6.079853684638636,-6.205694779389894,-0.17160526375382457,-0.3047238193583315,-0.5211943041534939,-0.5211943041534939,-0.5211943041534939,-0.5211943041534939,-0.5211943041534939,-0.5211943041534939,-0.5211943041534939,-0.5211943041534939,-0.5211943041534939,-0.5211943041534939,-0.5211943041534939,-0.5211943041534939,-0.5211943041534939,-0.5211943041534939,-0.5211943041534939,-0.5211943041534939,-0.5211943041534939,-0.5211943041534939,-0.5211943041534939,-0.5211943041534939,-0.5211943041534939,-0.5211943041534939,-0.5211943041534939,-0.5211943041534939,-0.5211943041534939,-0.5211943041534939,-0.5211943041534939,-0.5211943041534939,-0.5211943041534939,-0.5211943041534939,-0.5211943041534939,-0.5211943041534939,-0.5211943041534939,-0.5211943041534939,5.235987755982988]],"response_history":["No"],"rt":19224,"trial_type":"polygon-arrow -questio n","trial_index":0,"trial_index_global":41,"time_elapsed":674642,"internal_chunk_id":"0-0.10-0"},{"nsides":6,"feedback":"Correct! 4 is not a generator under <img src=./images/hexagon_symbol.png style=width:14px;height:14px>, because 4 = 4, 2 = 4 <img src=./images/hexagon_symbol.png style=width:14px;height:14px> 4, and 0 = 4 <img src=./images/hexagon_symbol.png style=width:14px;height:14px> 4 <img src=./images/hexagon_symbol.png style=width:14px;height:14px> 4, but there is no way to make 1, 3, or 5 using just 4.","orientation_history":[0],"rt":17061,"trial_type":"polygon-arrow-feedback","trial_index":0,"trial_index_global":42,"time_elapsed":691706,"internal_chunk_id":"0-0.10-0"},{"nsides":6,"question":"Is 0 a generator under <img src=./images/hexagon_symbol.png style=width:14px;height:14px>? <br /><br /> (Remember, a generator is an element which can make every other element.)","response_type":"multi","response_choices":["Yes","No"],"correct_response":"No","response":"No","orientation_history":[[0]],"response_history":["No"],"rt":7681,"trial_type":"polygon-arrow-question","trial_index":0,"trial_index_global":43,"time_elapsed":699388,"internal_chunk_id":"0-0.10-0"},{"nsides":6,"feedback":"Correct! 0 is not a generator under <img src=./images/hexagon_symbol.png style=width:14px;height:14px>, because 0 = 0, but there is no way to make 1, 2, 3, 4, or 5 using just 0.","orientation_history":[0],"rt":1101,"trial_type":"polygon-arrow-feedback","trial_index":0,"trial_index_global":44,"time_elapsed":700492,"internal_chunk_id":"0-0.10-0"},{"nsides":9,"instructions":"Now we are going to ask you some questions about a new operation, <img src=./images/nonagon_symbol.png style=width:14px;height:14px>, on the numbers 0, 1, 2, 3, 4, 5, 6, 7, 8. It works exactly like <img src=./images/hexagon_symbol.png style=width:14px;height:14px>, except now you use the nonagon shown at the right. Equivalently, after add ing the  two numbers you subtract 9 if your result is 9 or greater.<br /><br />Do you see how the different ways of performing <img src=./images/nonagon_symbol.png style=width:14px;height:14px> give the same result, just like with <img src=./images/hexagon_symbol.png style=width:14px;height:14px>? By labeling the points of the nonagon with the numbers from 0 to 8, we ensure that when we combine two numbers under <img src=./images/nonagon_symbol.png style=width:14px;height:14px>, we only produce numbers between 0 and 8. When we use the arithmetic strategy, adding the second number to the first mimics counting around the nonagon, and subtracting 9 each time we get above 8 makes sure the results correspond to the numbers on the points of the nonagon.<br /><br />We'll give you one practice question with feedback to make sure you understand the new operation. After that, try to complete the remaining questions as accurately as possible.","orientation_history":[0],"rt":36203,"trial_type":"polygon-arrow-instructions","trial_index":0,"trial_index_global":45,"time_elapsed":736697,"internal_chunk_id":"0-0"},{"nsides":9,"question":"Practice: What is 5 <img src=./images/nonagon_symbol.png style=width:14px;height:14px> 5?","response_type":"free","response_choices":[],"correct_response":"1","response":"1","orientation_history":[[0],[0,0,0,0,0.015863690536667807,0.03171142028519336,0.1306124954017711,0.21710755608531285,0.45558826706911715,0.5962808139532934,0.5962808139532934,1.0912770348023004,1.1500328575180232,1.3175503968299358,1.4343009752230038,1.5126962416901046,1.6626145146359272,1.7265527121839865,1.833224302808218,1.8921778321247653,1.9825054254877332,2.013496154270614,2.043567046422833,2.124965107502817,2.1604693074080767,2.2280154225079793,2.251008814207333,2.303302691326625,2.362541372527274,2.3999535203317244,2.8605138531461787,2.8605138531461787,2.9330202119356175,3.0891519146844617,3.1744628219079347,3.3418059428947897,3.3878408118634757,3.432766702616794,3.4764489188462067,3.487161861491556,3.5187789897799355,3.5187789897799355,3.5187789897799355,3.5187789897799355,3.5187789897799355,3.523139054482577,3.523139054482577,3.523139054482577,3.523139054482577,3.523139054482577,3.523139054482577,3.523139054482577,3.523139054482577,3.523139054482577,3.523139054482577,3.523139054482577,3.523139054482577,3.523139054482577,3.523139054482577,3.523139054482577,3.523139054482577,3.523139054482577,3.523139054482577,3.523139054482577,3.523139054482577,3.523139054482577,3.523139054482577,3.523139054482577,3.599839401103506,3.7965784371987703,3.9022698074791937,3.9646394024547664,3.9646394024547664,3.990597378603658,3.990597378603658,3.990597378603658,4.000168716629949,4.000168716629949,4.000168716629949,4.000168716629949,4.000168716629949,4.000168716629949,4.000168716629949,4.505332837795885,4.68064561440111,4.743358010308869,4.849166625788165,4.89391285724278,4.89391285724278,4.890997413608005,4.890997413608005,4.905540240199164,4.905540240199164,4.905540240199164,4.919993898533533,4.919993898533533,4.916766020783589,4.916766020783589,4.916766020783589,4.916766020783589,4.916766020783589,4.916766020783589,4.916766020783589,4.916766020783589,4.916766020783589,4.916766020783589,4.916766020783589,4.976816953731351,5.004570078416676,5.068915744069654,5.192411788828959,5.239468437824493,5.366639334819396,5.4194966507943905,5.461085140754131,5.533416271741574,5.553955526177176,5.563367505096219,5.574434081909995,5.574434081909995,5.574434081909995,5.574434081909995,5.574434081909995,5.574434081909995,5.574434081909995,5.574434081909995,5.574434081909995,5.574434081909995,5.574434081909995,5.574434081909995,5.574434081909995,5.574434081909995,5.574434081909995,5.574434081909995,5.574434081909995,5.574434081909995,5.574434081909995,5.574434081909995,5.574434081909995,5.574434081909995,5.574434081909995,5.574434081909995,5.574434081909995,5.525366356181879,5.44744635979084,5.44744635979084,5.362486534772009,5.362486534772009,5.018267851789542,4.948207269151086,4.608509923865159,4.5505050396816245,4.410465855675582,4.281025201452009,4.062494577729478,3.990318204964903,3.9572402500099626,3.941412893914227,3.8688907318824497,3.8688907318824497,3.842732790404948,3.8180554052710334,3.8180554052710334,3.8062421952652175,3.8062421952652175,3.7420179079940743,3.7420179079940743,3.73232607919253,3.7093567896751645,3.6924501881215095,3.653795419024363,3.646630751446219,3.63281947499034,3.6261617837452973,3.6261617837452973,3.6261617837452973,3.619662339517584,3.619662339517584,3.619662339517584,3.619662339517584,3.619662339517584,3.619662339517584,3.619662339517584,3.619662339517584,3.619662339517584,3.619662339517584,3.619662339517584,3.619662339517584,3.619662339517584,3.644867084844526,3.754517257013436,3.816664198600405,3.8898457479713904,3.997857472671436,4.050004149515665,4.083309948518391,4.125179817559273,4.158681770699471,4.192351335913747,4.226113034456308,4.246291701132185,4.285800334278228,4.313233149647214,4.3377466271223275,4.3377466271223275,4.3377466271223275,4.3377466271223275,4.3377466271223275,4.3377466271223275,4.3377466271223275,4.3377466271223275,4.3377466271223275,4.3377466271223275,4.3377466271223275,4.3377466271223275,4.3377466271223275,4.3377466271223275,4.3377466271223275,4.3377466271223275,4.3377466271223275,4.3377466271223275,4.3377466271223275,4.538427326271214,4.538427326271214,4.611012003714695,4.710802039980296,4.794791250648909,4.82260539245749,4.836441967967017,4.850224826451379,4.850224826451379,4.850224826451379,4.850224826451379,4.850224826451379,4.850224826451379,4.852385498791222,4.852385498791222,4.852385498791222,4.852385498791222,4.852385498791222,4.852385498791222,4.852385498791222,4.852385498791222,4.852385498791222,4.852385498791222,4.852385498791222,4.852385498791222,4.907610630615646,4.990751862504087,4.990751862504087,5.133144457206441,5.215663411639422,5.30206196099787,5.470421714075318,5.549991919048347,5.688239354820065,5.746175480703678,5.775504448199097,5.80366601518699,5.80366601518699,5.818053511575916,5.818053511575916,5.818053511575916,5.818053511575916,5.818053511575916,5.818053511575916,5.818053511575916,5.818053511575916,5.818053511575916,5.818053511575916,5.818053511575916,5.818053511575916,5.818053511575916,5.818053511575916,5.818053511575916,5.818053511575916,5.818053511575916,5.818053511575916,5.818053511575916,5.915868830184245,5.974401226662273,6.003749740604758,6.069918064337916,6.177999631194574,6.177999631194574,6.222567392733181,6.237471739520687,0.013970201675319371,0.013970201675319371,0.04375903013937932,0.05861710722209179,0.05861710722209179,0.05861710722209179,0.05861710722209179,0.05861710722209179,0.05861710722209179,0.05861710722209179,0.05861710722209179,0.07344231000143209,0.13228833774004123,0.16135370195792942,0.21854399273202074,0.3280974367315712,0.4780696859277911,0.6646495416754243,0.7187227763474366,0.7187227763474366,0.6981317007977318]],"response_history":[" 1"],"rt":13412,"trial_type":"polygon-arrow-question","trial_index":0,"trial_index_global":46,"time_elapsed":750111,"internal_chunk_id":"0-0.12-0"},{"nsides":9,"feedback":"Correct! 5 <img src=./images/nonagon_symbol.png style=width:14px;height:14px> 5 = 1 because 5 steps clockwise on the nonagon from 5 brings us to 1. Equivalently, 5 + 5 = 10 and 10 - 9 = 1.","orientation_history":[0],"rt":2250,"trial_type":"polygon-arrow-feedback","trial_index":0,"trial_index_global":47,"time_elapsed":752364,"internal_chunk_id":"0-0.12-0"},{"nsides":9,"question":"What is 3 <img src=./images/nonagon_symbol.png style=width:14px;height:14px> 3?","response_type":"free","response_choices":[],"correct_response":"6","response":"6","orientation_history":[[0]],"response_history":["6"],"rt":9438,"trial_type":"polygon-arrow-question","trial_index":0,"trial_index_global":48,"time_elapsed":761804,"internal_chunk_id":"0-0.12-0"},{"nsides":9,"question":"What is 7 <img src=./images/nonagon_symbol. png st yle=width:14px;height:14px> 4?","response_type":"free","response_choices":[],"correct_response":"2","response":"2","orientation_history":[[0],[0,0,0,0,0,5.7603962217991835,5.639684198386302,5.639684198386302,5.639684198386302,5.7453497804861575,5.7453497804861575,5.636883085264209,5.604179998481042,5.604179998481042,5.525303133067592,5.525303133067592,5.4887783784917215,5.479931898642585,5.47124470603074,5.47124470603074,5.462088031102814,5.453568199386485,5.4452040821711964,5.4277265611436825,5.418308899173931,5.391051471133002,5.373432149235376,5.365815321565451,5.321078287712101,5.269684515502195,5.2360736413809335,5.2300380897614644,5.197423702237225,5.197423702237225,5.191908272377286,5.1657276762392526,5.139969762069317,5.105446999566622,5.105446999566622,5.058356252997486,5.058356252997486,5.034139534781332,5.006935363384119,4.986231016611832,4.98333583072311,4.9729913721320305,4.9729913721320305,4.9729913721320305,4.9729913721320305,4.9729913721320305,4.9729913721320305,4.9729913721320305,4.9729913721320305,4.9729913721320305,4.9729913721320305,4.9729913721320305,4.9729913721320305,4.9729913721320305,4.9729913721320305,4.9729913721320305,4.9729913721320305,4.96258952816233,4.96258952816233,4.96258952816233,4.96258952816233,4.96258952816233,4.96258952816233,4.96258952816233,4.96258952816233,4.96258952816233,4.96258952816233,4.96258952816233,4.96258952816233,4.96258952816233,4.96258952816233,4.96258952816233,4.96258952816233,4.96258952816233,4.96258952816233,4.96258952816233,4.96258952816233,4.96258952816233,4.96258952816233,4.96258952816233,4.96258952816233,4.96258952816233,4.96258952816233,4.96258952816233,4.96258952816233,4.96258952816233,4.96258952816233,4.96258952816233,4.96258952816233,4.965283045480287,4.9757866129301895,4.981556473170389,4.995289833912775,5.049063799771417,5.079562814202909,5.15356846079967,5.193276260580026,5.285355123273396,5.3310333313094365,5.407127256581393,5.456993460914273,5.497787143782138,5.549287954733364,5.579239188088009,5.590305764901785,5.590305764901785,5.590305764901785,5.599475995545214,5.599475995545214,5.610706804534741,5.610706804534741,5.610706804534741,5.610706804534741,5.622142138328899,5.622142138328899,5.622142138328899,5.622142138328899,5.622142138328899,5.622142138328899,5.622142138328899,5.622142138328899,5.622142138328899,5.622142138328899,5.622142138328899,5.622142138328899,5.622142138328899,5.622142138328899,5.622142138328899,5.622142138328899,5.622142138328899,5.7453497804861575,5.84008275221218,5.8883941874798245,5.937049343610226,6.191138458316179,6.237064191165075,6.268034951304816,0.030293759918775143,0.08931399299322207,0.10409993810959928,0.11884034456776504,0.11884034456776504,0.13158814145792053,0.13158814145792053,0.13158814145792053,0.13158814145792053,0.13158814145792053,0.13158814145792053,0.13158814145792053,0.13158814145792053,0.13158814145792053,0.13158814145792053,0.13158814145792053,0.13158814145792053,0.13158814145792053,0.13158814145792053,0.13158814145792053,0.13158814145792053,0.13158814145792053,0.13158814145792053,0.13158814145792053,0.13158814145792053,0.13158814145792053,0.21711131473490508,0.46364760900080615,0.5045604387762455,0.5045604387762455,0.5382217016114783,0.5667292175235064,0.5774396161445141,0.6158699519395264,0.623199329934065