[{"nsides":6,"instructions":"Let's define a new operation <img src=./images/hexagon_symbol.png style=width:14px;height:14px>. This operation will give us a way of combining two of the numbers 0, 1, 2, 3, 4, 5 to get another one of them back. To perform <img src=./images/hexagon_symbol.png style=width:14px;height:14px>, you can either use a method based on the hexagon at right, or a method based on arithmetic.<br /><b>Hexagon method:</b> you can use the interactive diagram on the right, or perform the operation in your mind. Point the arrow at the first number on the hexagon by clicking, then click (or click and drag) to move the arrow the second number of points clockwise around the hexagon. The number the arrow arrives at is your result. (The operation is called <img src=./images/hexagon_symbol.png style=width:14px;height:14px> because it uses the hexagon, which has 6 sides.) <br ><b>Arithmetic method:</b> you start with the first number, and then add  the sec ond one to it. If the sum is smaller than 6, that's your result. If the sum is 6 or bigger, you subtract 6 to get your result. <br /><br />For example, 3 <img src=./images/hexagon_symbol.png style=width:14px;height:14px> 5 = 2, because 5 steps clockwise from 3 on the hexagon brings us to 2. Equivalently, 3 + 5 = 8, and 8 is bigger than 6, so we subtract 6, and 8 - 6 = 2. So 3 <img src=./images/hexagon_symbol.png style=width:14px;height:14px> 5 = 2.<br /><br />Similarly, 1 <img src=./images/hexagon_symbol.png style=width:14px;height:14px> 4 = 5, because 1 + 4 = 5, and 5 is less than 6 so we leave it alone. Equivalently, 4 steps clockwise from 1 on the hexagon brings us to 5. <br /><br />Click Continue when you're ready to move on.","orientation_history":[0,[4.759972083661673,4.759972083661673,4.759972083661673,4.759972083661673,4.759972083661673,4.759972083661673,4.759972083661673,4.759972083661673,4.759972083661673,4.759972083661673,4.759972083661673,5.235987755982988],[0.0117641631497587,0.0117641631497587,0.0117641631497587,0.0117641631497587,0.0117641631497587,0.0117641631497587,0.0117641631497587,0.0117641631497587,0.0117641631497587,0.0117641631497587,0],[1.0577384173858575,1.0577384173858575,1.0531472174181222,1.0531472174181222,1.0531472174181222,1.0531472174181222,1.0531472174181222,1.0531472174181222,1.0531472174181222,1.0531472174181222,1.0471975511965976],[6.226428149357493,6.226428149357493,6.226428149357493,6.226428149357493,6.226428149357493,6.226428149357493,6.226428149357493,6.226428149357493,6.226428149357493,6.226428149357493,6.226428149357493,6.283185307179586],[1.059565614517107,1.059565614517107,1.059565614517107,1.059565614517107,1.059565614517107,1.059565614517107,1.059565614517107,1.059565614517107,1.059565614517107,1.059565614517107,1.0471975511965976],[3.108271657711546,3.108271657711546,3.108271657711546,3.108271657711546,3.108271657711546,3.108271657711546,3.108271657711546,3.108271657711546,3.141592653589793],[5.261948993911069,5.261948993911069,5.261948993911069,5.261948993911069,5.261948993911069,5.261948993911069,5.261948993911069,5.261948993911069,5.261948993911069,5.261948993911069,5.261948993911069,5.261948993911069,5.261948993911069,5.261948993911069,5.261948993911069,5.235987755982988]],"rt":226227,"trial_type":"polygon-arrow-instructions","trial_index":0,"trial_index_global":1,"time_elapsed":776596,"internal_chunk_id":"0-0"},{"nsides":6,"instructions":"Do you see how the different ways of performing <img src=./images/hexagon_symbol.png style=width:14px;height:14px> give the same result? By labeling the points of the hexagon with the numbers from 0 to 5, we ensure that when we combine two numbers using the hexagon, we only produce numbers between 0 and 5. When we use the arithmetic strategy, adding the second number to the first mimics counting around the hexagon, and subtracting 6 each time we get above 5 makes sure the results correspond to the numbers on  the poin ts of the hexagon. <br /><br />Click Continue when you're ready to move on.","orientation_history":[0],"rt":32262,"trial_type":"polygon-arrow-instructions","trial_index":0,"trial_index_global":2,"time_elapsed":808864,"internal_chunk_id":"0-0"},{"nsides":6,"question":"Now try one on your own! What is 4 <img src=./images/hexagon_symbol.png style=width:14px;height:14px> 5? <br /><br /> (Remember, to perform <img src=./images/hexagon_symbol.png style=width:14px;height:14px>, you can either use a method based on the hexagon at right, or a method based on arithmetic.<br /><br /><b>Hexagon method:</b> you can use the interactive diagram on the right, or perform the operation in your mind. Point the arrow at the first number, then move the arrow the second number of points clockwise around the hexagon. The number the arrow arrives at is your result. <br /><br /><b>Arithmetic method:</b> you start with the first number, and then add the second one to it. If the su m is sma ller than 6, that's your result. If the sum is 6 or bigger, you subtract 6 to get your result.)","response_type":"free","response_choices":[],"correct_response":"3","response":"3","orientation_history":[[0]],"response_history":["3"],"rt":23710,"trial_type":"polygon-arrow-question","trial_index":0,"trial_index_global":3,"time_elapsed":832576,"internal_chunk_id":"0-0.3-0"},{"nsides":6,"feedback":"Correct! 4 <img src=./images/hexagon_symbol.png style=width:14px;height:14px> 5 = 3 because 5 steps clockwise on the hexagon from 4 brings us to 3. Equivalently, 4 + 5 = 9 and 9 - 6 = 3.","orientation_history":[0],"rt":14990,"trial_type":"polygon-arrow-feedback","trial_index":0,"trial_index_global":4,"time_elapsed":847568,"internal_chunk_id":"0-0.3-0"},{"nsides":6,"question":"What is 3 <img src=./images/hexagon_symbol.png style=width:14px;height:14px> 2? Try to solve this problem using the hexagon. <br /><br /> (Remember, to perform <img src=./images/hexagon_symbol.p ng sty le=width:14px;height:14px> on the hexagon, you can use the interactive diagram on the right, or perform the operation in your mind. Point the arrow at the first number on the hexagon, and then move the arrow the second number of points clockwise around the hexagon.)","response_type":"free","response_choices":[],"correct_response":"5","response":"1","orientation_history":[[0]],"response_history":["1"],"rt":7683,"trial_type":"polygon-arrow-question","trial_index":0,"trial_index_global":5,"time_elapsed":855251,"internal_chunk_id":"0-0.3-0"},{"nsides":6,"feedback":"Sorry, that was incorrect. 3 <img src=./images/hexagon_symbol.png style=width:14px;height:14px> 2 = 5 because 2 steps clockwise on the hexagon from 3 brings us to 5. Equivalently, 3 + 2 = 5 and 5 is less than 6.","orientation_history":[0,[2.1130990640105014,2.1130990640105014,2.1130990640105014,2.1130990640105014,2.1130990640105014,2.1130990640105014,2.1130990640105014,2.1130990640105014,2.1130990640105014,2.1130990640105014,2.1130990640105014,2.0943951023931953]],"rt":34859,"trial_type":"polygon-arrow-feedback","trial_index":0,"trial_index_global":6,"time_elapsed":890111,"internal_chunk_id":"0-0.3-0"},{"nsides":6,"question":"What is 1 <img src=./images/hexagon_symbol.png style=width:14px;height:14px> 5? Try to solve this probem using the arithmetic technique. <br /><br /> (Remember, to perform <img src=./images/hexagon_symbol.png style=width:14px;height:14px> by arithmetic, you start with the first number, and then add the second one to it. If the sum is smaller than 6, that's your result. If the sum is 6 or bigger, you subtract 6 to get your result.)","response_type":"free","response_choices":[],"correct_response":"0","response":"0","orientation_history":[[0]],"response_history":["0"],"rt":19343,"trial_type":"polygon-arrow-question","trial_index":0,"trial_index_global":7,"time_elapsed":909455,"internal_chunk_id":"0-0.3-0"},{"nsides":6,"feedback":"Correct! 1 <img src =./ima ges/hexagon_symbol.png style=width:14px;height:14px> 5 = 0 because 1 + 5 = 6 and 6 - 6 = 0.  Equivalently, 5 steps clockwise on the hexagon from 1 brings us to 0.","orientation_history":[0],"rt":12419,"trial_type":"polygon-arrow-feedback","trial_index":0,"trial_index_global":8,"time_elapsed":921876,"internal_chunk_id":"0-0.3-0"},{"nsides":6,"question":"What is 1 <img src=./images/hexagon_symbol.png style=width:14px;height:14px> 1? Try to solve this problem using the hexagon. <br /><br /> (Remember, to perform <img src=./images/hexagon_symbol.png style=width:14px;height:14px> on the hexagon, you can use the interactive diagram on the right, or perform the operation in your mind. Point the arrow at the first number on the hexagon, and then move the arrow the second number of points clockwise around the hexagon.)","response_type":"free","response_choices":[],"correct_response":"2","response":"4","orientation_history":[[0],[1.0584068664841588,1.0584068664841588,1.0584068664841588,1.0584068664841588,1.0584068664841588,1.0584068664841588,1.0584068664841588,1.0584068664841588,1.0584068664841588,1.0584068664841588,1.0471975511965976],[2.092630606609307,2.092630606609307,2.092630606609307,2.092630606609307,2.092630606609307,2.092630606609307,2.092630606609307,2.092630606609307,2.092630606609307,2.092630606609307,2.092630606609307,2.092630606609307,2.092630606609307,2.0943951023931953]],"response_history":["4"],"rt":27595,"trial_type":"polygon-arrow-question","trial_index":0,"trial_index_global":9,"time_elapsed":949471,"internal_chunk_id":"0-0.3-0"},{"nsides":6,"feedback":"Sorry, that was incorrect. 1 <img src=./images/hexagon_symbol.png style=width:14px;height:14px> 1 = 2 because 1 step clockwise on the hexagon from 1 brings us to 2. Equivalently, 1 + 1 = 2 and 2 is less than 6.","orientation_history":[0],"rt":67200,"trial_type":"polygon-arrow-feedback","trial_index":0,"trial_index_global":10,"time_elapsed":1016672,"internal_chunk_id":"0-0 .3-0"},{"nsides":6,"question":"What is 3 <img src=./images/hexagon_symbol.png style=width:14px;height:14px> 0? Try to solve this problem using the arithmetic technique. <br /><br /> (Remember, to perform <img src=./images/hexagon_symbol.png style=width:14px;height:14px> using arithmetic, you start with the first number, and then add the second one to it. If the sum is smaller than 6, that's your result. If the sum is 6 or bigger, you subtract 6 to get your result.)","response_type":"free","response_choices":[],"correct_response":"3","response":"3","orientation_history":[[0]],"response_history":["3"],"rt":19459,"trial_type":"polygon-arrow-question","trial_index":0,"trial_index_global":11,"time_elapsed":1036132,"internal_chunk_id":"0-0.3-0"},{"nsides":6,"feedback":"Correct! 3 <img src=./images/hexagon_symbol.png style=width:14px;height:14px> 0 = 3 because 3 + 0 = 3 and 3 - 6 = 3.  Equivalently, 0 steps clockwise on the hexagon from 3 brings us to 3.","orientation_history":[0],"rt":1807,"trial_type":"polygon-arrow-feedback","trial_index":0,"trial_index_global":12,"time_elapsed":1037939,"internal_chunk_id":"0-0.3-0"},{"nsides":6,"question":"What is 4 <img src=./images/hexagon_symbol.png style=width:14px;height:14px> 4? Try to solve this problem using the hexagon. <br /><br /> (Remember, to perform <img src=./images/hexagon_symbol.png style=width:14px;height:14px> on the hexagon, you can use the interactive diagram on the right, or perform the operation in your mind. Point the arrow at the first number on the hexagon, and then move the arrow the second number of points clockwise around the hexagon.)","response_type":"free","response_choices":[],"correct_response":"2","response":"2","orientation_history":[[0],[4.209545769456829,4.209545769456829,4.209545769456829,4.209545769456829,4.209545769456829,4.209545769456829,4.209545769456829,4.209545769456829,4.209545769456829,4.1887902047863905],[5.224127822700048,5.224127822700048,5.224127822700048,5.224127822700048,5.224127822700048,5.224127822700048,5.224127822700048,5.224127822700048,5.224127822700048,5.224127822700048,5.235987755982988],[0.10931853388789992,0.10931853388789992,0.10931853388789992,0.10931853388789992,0.10931853388789992,0.10931853388789992,0.10931853388789992,0.10931853388789992,0.10931853388789992,0.10931853388789992,0.10931853388789992,0],[1.0747526484287184,1.0747526484287184,1.0656978197358993,1.0656978197358993,1.0656978197358993,1.0656978197358993,1.0656978197358993,1.0656978197358993,1.0656978197358993,1.0656978197358993,1.0471975511965976],[2.072060591666479,2.072060591666479,2.072060591666479,2.072060591666479,2.072060591666479,2.072060591666479,2.072060591666479,2.072060591666479,2.072060591666479,2.072060591666479,2.072060591666479,2.0943951023931953]],"response_history":["2"],"rt":25160,"trial_type":"polygon-arrow-question","trial_index":0,"trial_index_global":13,"time_elapsed":1063100,"internal_chunk_id":"0-0.3-0"},{"nsides":6,"feedback":"Correct! 4 <img src=./images/hexagon_symbol.png style=width:14px;height:14px> 4 = 2 because 4 steps clockwise on the hexagon from 4 brings us to 2. Equivalently, 4 + 4 = 8 and 8 - 6 = 2.","orientation_history":[0],"rt":4519,"trial_type":"polygon-arrow-feedback","trial_index":0,"trial_index_global":14,"time_elapsed":1067619,"internal_chunk_id":"0-0.3-0"},{"nsides":6,"question":"What is 1 <img src=./images/hexagon_symbol.png style=width:14px;height:14px> 3? Try to solve this problem using the arithmetic technique. <br /><br /> (Remember, to perform <img src=./images/hexagon_symbol.png style=width:14px;height:14px> by arithmetic, you start with the first number, and then add the second one to it. If the sum is smaller than 6, that's your result. If the sum is 6 or bigger, you subtract 6 to get your result.)","response_type":"free","response_choices":[],"correct_response":"4","response":"4","orientation_history":[[0],[1.0343608691901653,1.0343608691901653,1.0343608691901653,1.0343608691901653,1.0343608691901653,1.0343608691901653,1.0343608691901653,1.0343608691901653,1.0343608691901653,1.0343608691901653,1.0471975511965976],[2.084402331517645,2.084402331517645,2.084402331517645,2.084402331517645,2.084402331517645,2.084402331517645,2.084402331517645,2.084402331517645,2.084402331517645,2.084402331517645,2.0943951023931953],[3.1865062490595824,3.1865062490595824,3.1865062490595824,3.1865062490595824,3.1865062490595824,3.1865062490595824,3.1865062490595824,3.1865062490595824,3.1865062490595824,3.1865062490595824,3.141592653589793],[4.138084150209988,4.138084150209988,4.138084150209988,4.138084150209988,4.138084150209988,4.138084150209988,4.138084150209988,4.138084150209988,4.138084150209988,4.138084150209988,4.138084150209988,4.1887902047863905]],"response_history":["4"],"rt":32903,"trial_type":"polygon-arrow-question","trial_index":0,"trial_index_global":15,"time_elapsed":1100523,"internal_chunk_id":"0-0.3-0"},{"nsides":6,"feedback":"Correct! 1 <img src=./images/hexagon_symbol.png style=width:14px;height:14px> 3 = 4 because 1 + 3 = 4 and 4 - 6 = 4.  Equivalently, 3 steps clockwise on the hexagon from 1 brings us to 4.","orientation_history":[0],"rt":1727,"trial_type":"polygon-arrow-feedback","trial_index":0,"trial_index_global":16,"time_elapsed":1102251,"internal_chunk_id":"0-0.3-0"},{"nsides":6,"question":"What is 4 <img src=./images/hexagon_symbol.png style=width:14px;height:14px> 3? <br /><br /> (Remember, to perform <img src=./images/hexagon_symbol.png style=width:14px;height:14px>, you can either use a method based on the hexagon at right, or a method based on arithmetic.<br /><br /><b>Hexagon method:</b> you can use the interactive diagram on the right, or perform the operation in your mind. Point the arrow at the first number, then move the arrow the second number of points clockwise around the hexagon. The number the arrow arrives at is your result. <br /><br /><b>Arith metic me thod:</b> you start with the first number, and then add the second one to it. If the sum is smaller than 6, that's your result. If the sum is 6 or bigger, you subtract 6 to get your result.)","response_type":"free","response_choices":[],"correct_response":"1","response":"1","orientation_history":[[0]],"response_history":["1"],"rt":7355,"trial_type":"polygon-arrow-question","trial_index":0,"trial_index_global":17,"time_elapsed":1109607,"internal_chunk_id":"0-0.3-0"},{"nsides":6,"feedback":"Correct! 4 <img src=./images/hexagon_symbol.png style=width:14px;height:14px> 3 = 1 because 3 steps clockwise on the hexagon from 4 brings us to 1. Equivalently, 4 + 3 = 7 and 7 - 6 = 1.","orientation_history":[0],"rt":1635,"trial_type":"polygon-arrow-feedback","trial_index":0,"trial_index_global":18,"time_elapsed":1111243,"internal_chunk_id":"0-0.3-0"},{"nsides":6,"question":"What is 0 <img src=./images/hexagon_symbol.png style=width:14px;height:14px> 5? <br /><br /> (Remem ber, to  perform <img src=./images/hexagon_symbol.png style=width:14px;height:14px>, you can either use a method based on the hexagon at right, or a method based on arithmetic.<br /><br /><b>Hexagon method:</b> you can use the interactive diagram on the right, or perform the operation in your mind. Point the arrow at the first number, then move the arrow the second number of points clockwise around the hexagon. The number the arrow arrives at is your result. <br /><br /><b>Arithmetic method:</b> you start with the first number, and then add the second one to it. If the sum is smaller than 6, that's your result. If the sum is 6 or bigger, you subtract 6 to get your result.)","response_type":"free","response_choices":[],"correct_response":"5","response":"5","orientation_history":[[0]],"response_history":["5"],"rt":21544,"trial_type":"polygon-arrow-question","trial_index":0,"trial_index_global":19,"time_elapsed":1132788,"internal_chunk_id":"0-0.3-0"},{"nsides":6,"feedback":"Corr ect! 0 < img src=./images/hexagon_symbol.png style=width:14px;height:14px> 5 = 5 because 5 steps clockwise on the hexagon from 0 brings us to 5. Equivalently, 0 + 5 = 5 and 5 is less than 6.","orientation_history":[0],"rt":6446,"trial_type":"polygon-arrow-feedback","trial_index":0,"trial_index_global":20,"time_elapsed":1139235,"internal_chunk_id":"0-0.3-0"},{"nsides":6,"question":"What is 2 <img src=./images/hexagon_symbol.png style=width:14px;height:14px> 5? <br /><br /> (Remember, to perform <img src=./images/hexagon_symbol.png style=width:14px;height:14px>, you can either use a method based on the hexagon at right, or a method based on arithmetic.<br /><br /><b>Hexagon method:</b> you can use the interactive diagram on the right, or perform the operation in your mind. Point the arrow at the first number, then move the arrow the second number of points clockwise around the hexagon. The number the arrow arrives at is your result. <br /><br /><b>Arithmetic met hod:</b>  you start with the first number, and then add the second one to it. If the sum is smaller than 6, that's your result. If the sum is 6 or bigger, you subtract 6 to get your result.)","response_type":"free","response_choices":[],"correct_response":"1","response":"1","orientation_history":[[0]],"response_history":["1"],"rt":5911,"trial_type":"polygon-arrow-question","trial_index":0,"trial_index_global":21,"time_elapsed":1145147,"internal_chunk_id":"0-0.3-0"},{"nsides":6,"feedback":"Correct! 2 <img src=./images/hexagon_symbol.png style=width:14px;height:14px> 5 = 1 because 5 steps clockwise on the hexagon from 2 brings us to 1. Equivalently, 2 + 5 = 7 and 7 - 6 = 1.","orientation_history":[0],"rt":2132,"trial_type":"polygon-arrow-feedback","trial_index":0,"trial_index_global":22,"time_elapsed":1147280,"internal_chunk_id":"0-0.3-0"},{"nsides":6,"question":"What is 3 <img src=./images/hexagon_symbol.png style=width:14px;height:14px> 3? <br /><br /> (Remember, to p erform < img src=./images/hexagon_symbol.png style=width:14px;height:14px>, you can either use a method based on the hexagon at right, or a method based on arithmetic.<br /><br /><b>Hexagon method:</b> you can use the interactive diagram on the right, or perform the operation in your mind. Point the arrow at the first number, then move the arrow the second number of points clockwise around the hexagon. The number the arrow arrives at is your result. <br /><br /><b>Arithmetic method:</b> you start with the first number, and then add the second one to it. If the sum is smaller than 6, that's your result. If the sum is 6 or bigger, you subtract 6 to get your result.)","response_type":"free","response_choices":[],"correct_response":"0","response":"0","orientation_history":[[0]],"response_history":["0"],"rt":6724,"trial_type":"polygon-arrow-question","trial_index":0,"trial_index_global":23,"time_elapsed":1154005,"internal_chunk_id":"0-0.4-0"},{"nsides":6,"feedback":"Correct! 3 <im g src= ./images/hexagon_symbol.png style=width:14px;height:14px> 3 = 0 because 3 steps clockwise on the hexagon from 3 brings us to 0. Equivalently, 3 + 3 = 6 and 6 - 6 = 0.","orientation_history":[0],"rt":1596,"trial_type":"polygon-arrow-feedback","trial_index":0,"trial_index_global":24,"time_elapsed":1155603,"internal_chunk_id":"0-0.4-0"},{"nsides":6,"question":"What is 1 <img src=./images/hexagon_symbol.png style=width:14px;height:14px> 2? <br /><br /> (Remember, to perform <img src=./images/hexagon_symbol.png style=width:14px;height:14px>, you can either use a method based on the hexagon at right, or a method based on arithmetic.<br /><br /><b>Hexagon method:</b> you can use the interactive diagram on the right, or perform the operation in your mind. Point the arrow at the first number, then move the arrow the second number of points clockwise around the hexagon. The number the arrow arrives at is your result. <br /><br /><b>Arithmetic method:</b> you star t with t he first number, and then add the second one to it. If the sum is smaller than 6, that's your result. If the sum is 6 or bigger, you subtract 6 to get your result.)","response_type":"free","response_choices":[],"correct_response":"3","response":"3","orientation_history":[[0]],"response_history":["3"],"rt":6611,"trial_type":"polygon-arrow-question","trial_index":0,"trial_index_global":25,"time_elapsed":1162216,"internal_chunk_id":"0-0.4-0"},{"nsides":6,"feedback":"Correct! 1 <img src=./images/hexagon_symbol.png style=width:14px;height:14px> 2 = 3 because 2 steps clockwise on the hexagon from 1 brings us to 3. Equivalently, 1 + 2 = 3 and 3 is less than 6.","orientation_history":[0],"rt":1423,"trial_type":"polygon-arrow-feedback","trial_index":0,"trial_index_global":26,"time_elapsed":1163639,"internal_chunk_id":"0-0.4-0"},{"nsides":6,"question":"What is 5 <img src=./images/hexagon_symbol.png style=width:14px;height:14px> 5? <br /><br /> (Remember, to perform <im g src= ./images/hexagon_symbol.png style=width:14px;height:14px>, you can either use a method based on the hexagon at right, or a method based on arithmetic.<br /><br /><b>Hexagon method:</b> you can use the interactive diagram on the right, or perform the operation in your mind. Point the arrow at the first number, then move the arrow the second number of points clockwise around the hexagon. The number the arrow arrives at is your result. <br /><br /><b>Arithmetic method:</b> you start with the first number, and then add the second one to it. If the sum is smaller than 6, that's your result. If the sum is 6 or bigger, you subtract 6 to get your result.)","response_type":"free","response_choices":[],"correct_response":"4","response":"4","orientation_history":[[0]],"response_history":["4"],"rt":5096,"trial_type":"polygon-arrow-question","trial_index":0,"trial_index_global":27,"time_elapsed":1168736,"internal_chunk_id":"0-0.4-0"},{"nsides":6,"feedback":"Correct! 5 <img src=./ images/h exagon_symbol.png style=width:14px;height:14px> 5 = 4 because 5 steps clockwise on the hexagon from 5 brings us to 4. Equivalently, 5 + 5 = 10 and 10 - 6 = 4.","orientation_history":[0],"rt":1618,"trial_type":"polygon-arrow-feedback","trial_index":0,"trial_index_global":28,"time_elapsed":1170355,"internal_chunk_id":"0-0.4-0"},{"nsides":6,"question":"What is 4 <img src=./images/hexagon_symbol.png style=width:14px;height:14px> 2? <br /><br /> (Remember, to perform <img src=./images/hexagon_symbol.png style=width:14px;height:14px>, you can either use a method based on the hexagon at right, or a method based on arithmetic.<br /><br /><b>Hexagon method:</b> you can use the interactive diagram on the right, or perform the operation in your mind. Point the arrow at the first number, then move the arrow the second number of points clockwise around the hexagon. The number the arrow arrives at is your result. <br /><br /><b>Arithmetic method:</b> you start with t he first  number, and then add the second one to it. If the sum is smaller than 6, that's your result. If the sum is 6 or bigger, you subtract 6 to get your result.)","response_type":"free","response_choices":[],"correct_response":"0","response":"0","orientation_history":[[0]],"response_history":["0"],"rt":5407,"trial_type":"polygon-arrow-question","trial_index":0,"trial_index_global":29,"time_elapsed":1175763,"internal_chunk_id":"0-0.4-0"},{"nsides":6,"feedback":"Correct! 4 <img src=./images/hexagon_symbol.png style=width:14px;height:14px> 2 = 0 because 2 steps clockwise on the hexagon from 4 brings us to 0. Equivalently, 4 + 2 = 6 and 6 - 6 = 0.","orientation_history":[0],"rt":992,"trial_type":"polygon-arrow-feedback","trial_index":0,"trial_index_global":30,"time_elapsed":1176756,"internal_chunk_id":"0-0.4-0"},{"nsides":6,"question":"What is 0 <img src=./images/hexagon_symbol.png style=width:14px;height:14px> 2? <br /><br /> (Remember, to perform <img src=./images /hexagon _symbol.png style=width:14px;height:14px>, you can either use a method based on the hexagon at right, or a method based on arithmetic.<br /><br /><b>Hexagon method:</b> you can use the interactive diagram on the right, or perform the operation in your mind. Point the arrow at the first number, then move the arrow the second number of points clockwise around the hexagon. The number the arrow arrives at is your result. <br /><br /><b>Arithmetic method:</b> you start with the first number, and then add the second one to it. If the sum is smaller than 6, that's your result. If the sum is 6 or bigger, you subtract 6 to get your result.)","response_type":"free","response_choices":[],"correct_response":"2","response":"2","orientation_history":[[0]],"response_history":["2"],"rt":4248,"trial_type":"polygon-arrow-question","trial_index":0,"trial_index_global":31,"time_elapsed":1181004,"internal_chunk_id":"0-0.4-0"},{"nsides":6,"feedback":"Correct! 0 <img src=./images/hexagon_s ymbol.pn g style=width:14px;height:14px> 2 = 2 because 2 steps clockwise on the hexagon from 0 brings us to 2. Equivalently, 0 + 2 = 2 and 2 is less than 6.","orientation_history":[0],"rt":1022,"trial_type":"polygon-arrow-feedback","trial_index":0,"trial_index_global":32,"time_elapsed":1182027,"internal_chunk_id":"0-0.4-0"},{"nsides":6,"question":"What is 3 <img src=./images/hexagon_symbol.png style=width:14px;height:14px> 5? <br /><br /> (Remember, to perform <img src=./images/hexagon_symbol.png style=width:14px;height:14px>, you can either use a method based on the hexagon at right, or a method based on arithmetic.<br /><br /><b>Hexagon method:</b> you can use the interactive diagram on the right, or perform the operation in your mind. Point the arrow at the first number, then move the arrow the second number of points clockwise around the hexagon. The number the arrow arrives at is your result. <br /><br /><b>Arithmetic method:</b> you start with the first nu mber, an d then add the second one to it. If the sum is smaller than 6, that's your result. If the sum is 6 or bigger, you subtract 6 to get your result.)","response_type":"free","response_choices":[],"correct_response":"2","response":"2","orientation_history":[[0]],"response_history":["2"],"rt":3599,"trial_type":"polygon-arrow-question","trial_index":0,"trial_index_global":33,"time_elapsed":1185628,"internal_chunk_id":"0-0.4-0"},{"nsides":6,"feedback":"Correct! 3 <img src=./images/hexagon_symbol.png style=width:14px;height:14px> 5 = 2 because 5 steps clockwise on the hexagon from 3 brings us to 2. Equivalently, 3 + 5 = 8 and 8 - 6 = 2.","orientation_history":[0],"rt":1295,"trial_type":"polygon-arrow-feedback","trial_index":0,"trial_index_global":34,"time_elapsed":1186923,"internal_chunk_id":"0-0.4-0"},{"nsides":6,"question":"What is 1 <img src=./images/hexagon_symbol.png style=width:14px;height:14px> 4? <br /><br /> (Remember, to perform <img src=./images/hexagon_s ymbol.pn g style=width:14px;height:14px>, you can either use a method based on the hexagon at right, or a method based on arithmetic.<br /><br /><b>Hexagon method:</b> you can use the interactive diagram on the right, or perform the operation in your mind. Point the arrow at the first number, then move the arrow the second number of points clockwise around the hexagon. The number the arrow arrives at is your result. <br /><br /><b>Arithmetic method:</b> you start with the first number, and then add the second one to it. If the sum is smaller than 6, that's your result. If the sum is 6 or bigger, you subtract 6 to get your result.)","response_type":"free","response_choices":[],"correct_response":"5","response":"5","orientation_history":[[0]],"response_history":["5"],"rt":5575,"trial_type":"polygon-arrow-question","trial_index":0,"trial_index_global":35,"time_elapsed":1192499,"internal_chunk_id":"0-0.4-0"},{"nsides":6,"feedback":"Correct! 1 <img src=./images/hexagon_symbol.png style= width:14px;height:14px> 4 = 5 because 4 steps clockwise on the hexagon from 1 brings us to 5. Equivalently, 1 + 4 = 5 and 5 is less than 6.","orientation_history":[0],"rt":1523,"trial_type":"polygon-arrow-feedback","trial_index":0,"trial_index_global":36,"time_elapsed":1194023,"internal_chunk_id":"0-0.4-0"},{"nsides":6,"question":"What is 5 <img src=./images/hexagon_symbol.png style=width:14px;height:14px> 1? <br /><br /> (Remember, to perform <img src=./images/hexagon_symbol.png style=width:14px;height:14px>, you can either use a method based on the hexagon at right, or a method based on arithmetic.<br /><br /><b>Hexagon method:</b> you can use the interactive diagram on the right, or perform the operation in your mind. Point the arrow at the first number, then move the arrow the second number of points clockwise around the hexagon. The number the arrow arrives at is your result. <br /><br /><b>Arithmetic method:</b> you start with the first number, and  then add  the second one to it. If the sum is smaller than 6, that's your result. If the sum is 6 or bigger, you subtract 6 to get your result.)","response_type":"free","response_choices":[],"correct_response":"0","response":"0","orientation_history":[[0]],"response_history":["0"],"rt":5151,"trial_type":"polygon-arrow-question","trial_index":0,"trial_index_global":37,"time_elapsed":1199176,"internal_chunk_id":"0-0.4-0"},{"nsides":6,"feedback":"Correct! 5 <img src=./images/hexagon_symbol.png style=width:14px;height:14px> 1 = 0 because 1 step clockwise on the hexagon from 5 brings us to 0. Equivalently, 5 + 1 = 6 and 6 - 6 = 0.","orientation_history":[0],"rt":976,"trial_type":"polygon-arrow-feedback","trial_index":0,"trial_index_global":38,"time_elapsed":1200152,"internal_chunk_id":"0-0.4-0"},{"nsides":6,"question":"What is 1 <img src=./images/hexagon_symbol.png style=width:14px;height:14px> 0? <br /><br /> (Remember, to perform <img src=./images/hexagon_symbol.png  style= width:14px;height:14px>, you can either use a method based on the hexagon at right, or a method based on arithmetic.<br /><br /><b>Hexagon method:</b> you can use the interactive diagram on the right, or perform the operation in your mind. Point the arrow at the first number, then move the arrow the second number of points clockwise around the hexagon. The number the arrow arrives at is your result. <br /><br /><b>Arithmetic method:</b> you start with the first number, and then add the second one to it. If the sum is smaller than 6, that's your result. If the sum is 6 or bigger, you subtract 6 to get your result.)","response_type":"free","response_choices":[],"correct_response":"1","response":"1","orientation_history":[[0]],"response_history":["1"],"rt":3608,"trial_type":"polygon-arrow-question","trial_index":0,"trial_index_global":39,"time_elapsed":1203760,"internal_chunk_id":"0-0.4-0"},{"nsides":6,"feedback":"Correct! 1 <img src=./images/hexagon_symbol.png style=wi dth:14px ;height:14px> 0 = 1 because 0 steps clockwise on the hexagon from 1 brings us to 1. Equivalently, 1 + 0 = 1 and 1 is less than 6.","orientation_history":[0],"rt":1216,"trial_type":"polygon-arrow-feedback","trial_index":0,"trial_index_global":40,"time_elapsed":1204976,"internal_chunk_id":"0-0.4-0"},{"nsides":6,"question":"What is 5 <img src=./images/hexagon_symbol.png style=width:14px;height:14px> 2? <br /><br /> (Remember, to perform <img src=./images/hexagon_symbol.png style=width:14px;height:14px>, you can either use a method based on the hexagon at right, or a method based on arithmetic.<br /><br /><b>Hexagon method:</b> you can use the interactive diagram on the right, or perform the operation in your mind. Point the arrow at the first number, then move the arrow the second number of points clockwise around the hexagon. The number the arrow arrives at is your result. <br /><br /><b>Arithmetic method:</b> you start with the first number, and then add the  second  one to it. If the sum is smaller than 6, that's your result. If the sum is 6 or bigger, you subtract 6 to get your result.)","response_type":"free","response_choices":[],"correct_response":"1","response":"1","orientation_history":[[0]],"response_history":["1"],"rt":5040,"trial_type":"polygon-arrow-question","trial_index":0,"trial_index_global":41,"time_elapsed":1210016,"internal_chunk_id":"0-0.4-0"},{"nsides":6,"feedback":"Correct! 5 <img src=./images/hexagon_symbol.png style=width:14px;height:14px> 2 = 1 because 2 steps clockwise on the hexagon from 5 brings us to 1. Equivalently, 5 + 2 = 7 and 7 - 6 = 1.","orientation_history":[0],"rt":1071,"trial_type":"polygon-arrow-feedback","trial_index":0,"trial_index_global":42,"time_elapsed":1211087,"internal_chunk_id":"0-0.4-0"},{"nsides":6,"instructions":"Now we're going to discuss a couple special properties of this new operation, <img src=./images/hexagon_symbol.png style=width:14px;height:14px> that we've learne d. First , notice that the number 0 behaves in a special way under <img src=./images/hexagon_symbol.png style=width:14px;height:14px>. Whenever we combine 0 with anything else, we get that same thing back. We'll say that 0 is the <i>identity</i> under <img src=./images/hexagon_symbol.png style=width:14px;height:14px>, because when you combine it with something it gives you that identical thing back.","orientation_history":[0],"rt":52355,"trial_type":"polygon-arrow-instructions","trial_index":0,"trial_index_global":43,"time_elapsed":1263443,"internal_chunk_id":"0-0"},{"nsides":6,"instructions":"Now that we know 0 is the identity under <img src=./images/hexagon_symbol.png style=width:14px;height:14px>, we're going to make a new definition. We'll say that the <i>inverse</i> of a number is the element that you combine with it to produce the identity. For example, 5 <img src=./images/hexagon_symbol.png style=width:14px;height:14px> 1 = 0, so we say 1 is the  inverse  of 5 under <img src=./images/hexagon_symbol.png style=width:14px;height:14px>, (remember 0 is the identity under <img src=./images/hexagon_symbol.png style=width:14px;height:14px>). Similarly, 3 is its own inverse under <img src=./images/hexagon_symbol.png style=width:14px;height:14px>, because 3 <img src=./images/hexagon_symbol.png style=width:14px;height:14px> 3 = 0.","orientation_history":[0],"rt":26391,"trial_type":"polygon-arrow-instructions","trial_index":0,"trial_index_global":44,"time_elapsed":1289836,"internal_chunk_id":"0-0"},{"nsides":6,"question":"Now you try! What is the inverse of 4 under <img src=./images/hexagon_symbol.png style=width:14px;height:14px>? <br /><br /> (Remember, the inverse of an element is the thing which you combine with it to produce the identity.)","response_type":"free","response_choices":[],"correct_response":"2","response":"1","orientation_history":[[0]],"response_history":["1"],"rt":8012,"trial_type":"po lygon-arrow-question","trial_index":0,"trial_index_global":45,"time_elapsed":1297848,"internal_chunk_id":"0-0.7-0"},{"nsides":6,"feedback":"Sorry, that was incorrect. The inverse of 4 under <img src=./images/hexagon_symbol.png style=width:14px;height:14px> is 2 because 4 <img src=./images/hexagon_symbol.png style=width:14px;height:14px> 2 = 0, and 0 is the identity under <img src=./images/hexagon_symbol.png style=width:14px;height:14px>.","orientation_history":[0],"rt":4175,"trial_type":"polygon-arrow-feedback","trial_index":0,"trial_index_global":46,"time_elapsed":1302023,"internal_chunk_id":"0-0.7-0"},{"nsides":6,"question":"What is the inverse of 1 under <img src=./images/hexagon_symbol.png style=width:14px;height:14px>? <br /><br /> (Remember, the inverse of an element is the thing which you combine with it to produce the identity.)","response_type":"free","response_choices":[],"correct_response":"5","response":"5","orientation_history":[[0]],"response_history":["5"],"rt":11127,"trial_type":"polygon-arrow-question","trial_index":0,"trial_index_global":47,"time_elapsed":1313152,"internal_chunk_id":"0-0.7-0"},{"nsides":6,"feedback":"Correct! The inverse of 1 under <img src=./images/hexagon_symbol.png style=width:14px;height:14px> is 5 because 1 <img src=./images/hexagon_symbol.png style=width:14px;height:14px> 5 = 0, and 0 is the identity under <img src=./images/hexagon_symbol.png style=width:14px;height:14px>.","orientation_history":[0],"rt":1247,"trial_type":"polygon-arrow-feedback","trial_index":0,"trial_index_global":48,"time_elapsed":1314399,"internal_chunk_id":"0-0.7-0"},{"nsides":6,"question":"What is the inverse of 3 under <img src=./images/hexagon_symbol.png style=width:14px;height:14px>? <br /><br /> (Remember, the inverse of an element is the thing which you combine with it to produce the identity.)","response_type":"free","response_choices":[],"correct_response":"3","response":"3","orientation_history":[[0]],"response_history":["3"],"rt":7427,"trial_type":"polygon-arrow-question","trial_index":0,"trial_index_global":49,"time_elapsed":1321827,"internal_chunk_id":"0-0.7-0"},{"nsides":6,"feedback":"Correct! The inverse of 3 under <img src=./images/hexagon_symbol.png style=width:14px;height:14px> is 3 because 3 <img src=./images/hexagon_symbol.png style=width:14px;height:14px> 3 = 0, and 0 is the identity under <img src=./images/hexagon_symbol.png style=width:14px;height:14px>.","orientation_history":[0],"rt":951,"trial_type":"polygon-arrow-feedback","trial_index":0,"trial_index_global":50,"time_elapsed":1322779,"internal_chunk_id":"0-0.7-0"},{"nsides":6,"question":"What is the inverse of 2 under <img src=./images/hexagon_symbol.png style=width:14px;height:14px>? <br /><br /> (Remember, the inverse of an element is the thing which you combine with it to produce the identity.)","response_type":"free","response_choices":[],"correct_response":"4","response":"4","orientation_history":[[0]],"response_history":["4"],"rt":4039,"trial_type":"polygon-arrow-question","trial_index":0,"trial_index_global":51,"time_elapsed":1326819,"internal_chunk_id":"0-0.7-0"},{"nsides":6,"feedback":"Correct! The inverse of 2 under <img src=./images/hexagon_symbol.png style=width:14px;height:14px> is 4 because 2 <img src=./images/hexagon_symbol.png style=width:14px;height:14px> 4 = 0, and 0 is the identity under <img src=./images/hexagon_symbol.png style=width:14px;height:14px>.","orientation_history":[0],"rt":1199,"trial_type":"polygon-arrow-feedback","trial_index":0,"trial_index_global":52,"time_elapsed":1328019,"internal_chunk_id":"0-0.7-0"},{"nsides":6,"question":"What is the inverse of 0 under <img src=./images/hexagon_symbol.png style=width:14px;height:14px>? <br /><br /> (Remember, the inverse of an element is the thing which you combine with it to produce the identity.)","response_type":"fre e","response_choices":[],"correct_response":"0","response":"0","orientation_history":[[0]],"response_history":["0"],"rt":4223,"trial_type":"polygon-arrow-question","trial_index":0,"trial_index_global":53,"time_elapsed":1332243,"internal_chunk_id":"0-0.7-0"},{"nsides":6,"feedback":"Correct! The inverse of 0 under <img src=./images/hexagon_symbol.png style=width:14px;height:14px> is 0 because 0 <img src=./images/hexagon_symbol.png style=width:14px;height:14px> 0 = 0, and 0 is the identity under <img src=./images/hexagon_symbol.png style=width:14px;height:14px>.","orientation_history":[0],"rt":1956,"trial_type":"polygon-arrow-feedback","trial_index":0,"trial_index_global":54,"time_elapsed":1334200,"internal_chunk_id":"0-0.7-0"},{"nsides":6,"instructions":"It is also possible to successively apply <img src=./images/hexagon_symbol.png style=width:14px;height:14px>, and the operation can simply be performed starting with the left-most pair. For example, 2 < img src= ./images/hexagon_symbol.png style=width:14px;height:14px> 3 <img src=./images/hexagon_symbol.png style=width:14px;height:14px> 4 = 5 <img src=./images/hexagon_symbol.png style=width:14px;height:14px> 4 = 3.","orientation_history":[0],"rt":78872,"trial_type":"polygon-arrow-instructions","trial_index":0,"trial_index_global":55,"time_elapsed":1413072,"internal_chunk_id":"0-0"},{"nsides":6,"instructions":"We have one last definition to learn today, using the successive operations we just learned. Let's start with an example. Under our operation <img src=./images/hexagon_symbol.png style=width:14px;height:14px> we can make every other number using just 1: 2 = 1 <img src=./images/hexagon_symbol.png style=width:14px;height:14px> 1, 3 = 1 <img src=./images/hexagon_symbol.png style=width:14px;height:14px> 1 <img src=./images/hexagon_symbol.png style=width:14px;height:14px> 1, 4 = 1 <img src=./images/hexagon_symbol.png style= width: 14px;height:14px> 1 <img src=./images/hexagon_symbol.png style=width:14px;height:14px> 1 <img src=./images/hexagon_symbol.png style=width:14px;height:14px> 1, 5 = 1 <img src=./images/hexagon_symbol.png style=width:14px;height:14px> 1 <img src=./images/hexagon_symbol.png style=width:14px;height:14px> 1 <img src=./images/hexagon_symbol.png style=width:14px;height:14px> 1 <img src=./images/hexagon_symbol.png style=width:14px;height:14px> 1, and 0 = 1 <img src=./images/hexagon_symbol.png style=width:14px;height:14px> 1 <img src=./images/hexagon_symbol.png style=width:14px;height:14px> 1 <img src=./images/hexagon_symbol.png style=width:14px;height:14px> 1 <img src=./images/hexagon_symbol.png style=width:14px;height:14px> 1 <img src=./images/hexagon_symbol.png style=width:14px;height:14px> 1. Because 1 can make every other element under <img src=./images/hexagon_symbol.png style=width:1 4px;heig ht:14px>, we say that 1 is a <i>generator</i> under <img src=./images/hexagon_symbol.png style=width:14px;height:14px>. <br /><br /> However, 2 is not a generator under <img src=./images/hexagon_symbol.png style=width:14px;height:14px>, because 4 = 2 <img src=./images/hexagon_symbol.png style=width:14px;height:14px> 2, and 0 = 2 <img src=./images/hexagon_symbol.png style=width:14px;height:14px> 2 <img src=./images/hexagon_symbol.png style=width:14px;height:14px> 2, but there is no way to make 1, 3, or 5 using just 2.","orientation_history":[0],"rt":34023,"trial_type":"polygon-arrow-instructions","trial_index":0,"trial_index_global":56,"time_elapsed":1447095,"internal_chunk_id":"0-0"},{"nsides":6,"question":"Now you try! Is 3 a generator under <img src=./images/hexagon_symbol.png style=width:14px;height:14px>? <br /><br /> (Remember, a generator is an element which can make every other element.)","response_type":"multi","response_choices":["Yes","No"],"correct_response":"No","response":"Yes","orientation_history":[[0]],"response_history":["Yes"],"rt":6000,"trial_type":"polygon-arrow-question","trial_index":0,"trial_index_global":57,"time_elapsed":1453096,"internal_chunk_id":"0-0.10-0"},{"nsides":6,"feedback":"Sorry, that's incorrect. 3 is not a generator under <img src=./images/hexagon_symbol.png style=width:14px;height:14px>, because 3 = 3, 0 = 3 <img src=./images/hexagon_symbol.png style=width:14px;height:14px> 3, but there is no way to make 1, 2, 4, or 5 using just 3.","orientation_history":[0],"rt":5150,"trial_type":"polygon-arrow-feedback","trial_index":0,"trial_index_global":58,"time_elapsed":1458247,"internal_chunk_id":"0-0.10-0"},{"nsides":6,"question":"Is 5 a generator under <img src=./images/hexagon_symbol.png style=width:14px;height:14px>? <br /><br /> (Remember, a generator is an element which can make every other element.)","response_type":"multi","response_choices":["Yes","N o"],"correct_response":"Yes","response":"No","orientation_history":[[0]],"response_history":["No"],"rt":5120,"trial_type":"polygon-arrow-question","trial_index":0,"trial_index_global":59,"time_elapsed":1463368,"internal_chunk_id":"0-0.10-0"},{"nsides":6,"feedback":"Sorry, that's incorrect. 5 is a generator under <img src=./images/hexagon_symbol.png style=width:14px;height:14px>, because 5 = 5, 4 = 5 <img src=./images/hexagon_symbol.png style=width:14px;height:14px> 5, 3 = 5 <img src=./images/hexagon_symbol.png style=width:14px;height:14px> 5 <img src=./images/hexagon_symbol.png style=width:14px;height:14px> 5, 2 = 5 <img src=./images/hexagon_symbol.png style=width:14px;height:14px> 5 <img src=./images/hexagon_symbol.png style=width:14px;height:14px> 5 <img src=./images/hexagon_symbol.png style=width:14px;height:14px> 5, 1 = 5 <img src=./images/hexagon_symbol.png style=width:14px;height:14px> 5 <img src=./image s/hexago n_symbol.png style=width:14px;height:14px> 5 <img src=./images/hexagon_symbol.png style=width:14px;height:14px> 5 <img src=./images/hexagon_symbol.png style=width:14px;height:14px> 5, and 0 = 5 <img src=./images/hexagon_symbol.png style=width:14px;height:14px> 5 <img src=./images/hexagon_symbol.png style=width:14px;height:14px> 5 <img src=./images/hexagon_symbol.png style=width:14px;height:14px> 5 <img src=./images/hexagon_symbol.png style=width:14px;height:14px> 5 <img src=./images/hexagon_symbol.png style=width:14px;height:14px> 5, so you can make all of the numbers under <img src=./images/hexagon_symbol.png style=width:14px;height:14px> using 5","orientation_history":[0],"rt":3921,"trial_type":"polygon-arrow-feedback","trial_index":0,"trial_index_global":60,"time_elapsed":1467289,"internal_chunk_id":"0-0.10-0"},{"nsides":6,"question":"Is 4 a generator under <img src=./images/hexagon_symbol.png style =width :14px;height:14px>? <br /><br /> (Remember, a generator is an element which can make every other element.)","response_type":"multi","response_choices":["Yes","No"],"correct_response":"No","response":"Yes","orientation_history":[[0]],"response_history":["Yes"],"rt":6367,"trial_type":"polygon-arrow-question","trial_index":0,"trial_index_global":61,"time_elapsed":1473656,"internal_chunk_id":"0-0.10-0"},{"nsides":6,"feedback":"Sorry, that's incorrect. 4 is not a generator under <img src=./images/hexagon_symbol.png style=width:14px;height:14px>, because 4 = 4, 2 = 4 <img src=./images/hexagon_symbol.png style=width:14px;height:14px> 4, and 0 = 4 <img src=./images/hexagon_symbol.png style=width:14px;height:14px> 4 <img src=./images/hexagon_symbol.png style=width:14px;height:14px> 4, but there is no way to make 1, 3, or 5 using just 4.","orientation_history":[0],"rt":1420,"trial_type":"polygon-arrow-feedback","trial_index":0,"trial_index_global":62,"time_elapsed":1475076,"internal_chunk_id":"0-0.10-0"},{"nsides":6,"question":"Is 0 a generator under <img src=./images/hexagon_symbol.png style=width:14px;height:14px>? <br /><br /> (Remember, a generator is an element which can make every other element.)","response_type":"multi","response_choices":["Yes","No"],"correct_response":"No","response":"No","orientation_history":[[0]],"response_history":["No"],"rt":4220,"trial_type":"polygon-arrow-question","trial_index":0,"trial_index_global":63,"time_elapsed":1479296,"internal_chunk_id":"0-0.10-0"},{"nsides":6,"feedback":"Correct! 0 is not a generator under <img src=./images/hexagon_symbol.png style=width:14px;height:14px>, because 0 = 0, but there is no way to make 1, 2, 3, 4, or 5 using just 0.","orientation_history":[0],"rt":1803,"trial_type":"polygon-arrow-feedback","trial_index":0,"trial_index_global":64,"time_elapsed":1481100,"internal_chunk_id":"0-0.10-0"},{"nsides":9,"instructions":"Now we are going to ask you so me quest ions about a new operation, <img src=./images/nonagon_symbol.png style=width:14px;height:14px>, on the numbers 0, 1, 2, 3, 4, 5, 6, 7, 8. It works exactly like <img src=./images/hexagon_symbol.png style=width:14px;height:14px>, except now you use the nonagon shown at the right. Equivalently, after adding the two numbers you subtract 9 if your result is 9 or greater.<br /><br />Do you see how the different ways of performing <img src=./images/nonagon_symbol.png style=width:14px;height:14px> give the same result, just like with <img src=./images/hexagon_symbol.png style=width:14px;height:14px>? By labeling the points of the nonagon with the numbers from 0 to 8, we ensure that when we combine two numbers under <img src=./images/nonagon_symbol.png style=width:14px;height:14px>, we only produce numbers between 0 and 8. When we use the arithmetic strategy, adding the second number to the first mimics counting around the nonagon, and subtract ing 9 ea ch time we get above 8 makes sure the results correspond to the numbers on the points of the nonagon.<br /><br />We'll give you one practice question with feedback to make sure you understand the new operation. After that, try to complete the remaining questions as accurately as possible.","orientation_history":[0,[0.7276113326265106,0.7276113326265106,0.7276113326265106,0.7276113326265106,0.7276113326265106,0.7276113326265106,0.7276113326265106,0.7276113326265106,0.7276113326265106,0.7276113326265106,0.6981317007977318],[1.371112441419795,1.371112441419795,1.371112441419795,1.371112441419795,1.371112441419795,1.371112441419795,1.371112441419795,1.371112441419795,1.3962634015954636],[2.1112158270654806,2.1112158270654806,2.1112158270654806,2.1112158270654806,2.1112158270654806,2.1112158270654806,2.1112158270654806,2.1112158270654806,2.0943951023931953],[2.8163577927360097,2.8163577927360097,2.8163577927360097,2.8163577927360097,2.8163577927360097,2.8163577927360097,2.8163577927360097,2.8163577927360097,2.8163577927360097,2.792526803190927],[3.4480772184396553,3.4480772184396553,3.4480772184396553,3.4480772184396553,3.4480772184396553,3.4480772184396553,3.4480772184396553,3.4480772184396553,3.490658503988659],[4.174167278773211,4.174167278773211,4.174167278773211,4.174167278773211,4.174167278773211,4.174167278773211,4.174167278773211,4.174167278773211,4.174167278773211,4.1887902047863905],[4.842091517540602,4.842091517540602,4.856314429772906,4.858401238095965,4.858401238095965,4.858401238095965,4.858401238095965,4.886921905584122],[5.593646290892151,5.593646290892151,5.593646290892151,5.593646290892151,5.593646290892151,5.593646290892151,5.593646290892151,5.593646290892151,5.593646290892151,5.593646290892151,5.593646290892151,5.585053606381854]],"rt":34443,"trial_type":"polygon-arrow-instructions","trial_index":0,"trial_index_global":65,"time_elapsed":1515544,"internal_chunk_id":"0-0"},{"nsides":9,"question":"Practice: What is 5 <img src=./images/non agon_sym bol.png style=width:14px;height:14px> 5?","response_type":"free","response_choices":[],"correct_response":"1","response":"20","orientation_history":[[0]],"response_history":["20"],"rt":27683,"trial_type":"polygon-arrow-question","trial_index":0,"trial_index_global":66,"time_elapsed":1543227,"internal_chunk_id":"0-0.12-0"},{"nsides":9,"feedback":"Sorry, that was incorrect. 5 <img src=./images/nonagon_symbol.png style=width:14px;height:14px> 5 = 1 because 5 steps clockwise on the nonagon from 5 brings us to 1. Equivalently, 5 + 5 = 10 and 10 - 9 = 1.","orientation_history":[0],"rt":11259,"trial_type":"polygon-arrow-feedback","trial_index":0,"trial_index_global":67,"time_elapsed":1554487,"internal_chunk_id":"0-0.12-0"},{"nsides":9,"question":"What is 3 <img src=./images/nonagon_symbol.png style=width:14px;height:14px> 3?","response_type":"free","response_choices":[],"correct_response":"6","response":"6","orientation_history":[[0],[0.687352886103609,0.687352886103609,0.687352886103609,0.687352886103609,0.687352886103609,0.687352886103609,0.687352886103609,0.6981317007977318],[1.3318598862087332,1.3318598862087332,1.3318598862087332,1.3318598862087332,1.3318598862087332,1.3318598862087332,1.3318598862087332,1.3318598862087332,1.3962634015954636],[2.1924562490779858,2.1924562490779858,2.1924562490779858,2.1924562490779858,2.1924562490779858,2.1924562490779858,2.1924562490779858,2.1924562490779858,2.1924562490779858,2.0943951023931953],[2.827360754505455,2.827360754505455,2.827360754505455,2.827360754505455,2.827360754505455,2.827360754505455,2.827360754505455,2.792526803190927],[3.551238762214631,3.551238762214631,3.551238762214631,3.551238762214631,3.551238762214631,3.551238762214631,3.551238762214631,3.551238762214631,3.490658503988659],[4.106006094008727,4.106006094008727,4.106006094008727,4.106006094008727,4.106006094008727,4.106006094008727,4.106006094008727,4.106006094008727,4.106006094008727,4.1887902047863905]],"response_history":["6"],"rt":26072,"trial_type":"polygon-arrow-question","trial_index":0,"trial_index_global":68,"time_elapsed":1580560,"internal_chunk_id":"0-0.12-0"},{"nsides":9,"question":"What is 7 <img src=./images/nonagon_symbol.png style=width:14px;height:14px> 4?","response_type":"free","response_choices":[],"correct_response":"2","response":"2","orientation_history":[[0],[0.6817707034005765,0.6817707034005765,0.6817707034005765,0.6817707034005765,0.6817707034005765,0.6817707034005765,0.6817707034005765,0.6817707034005765,0.6817707034005765,0.6817707034005765,0.6981317007977318],[1.4494443262241328,1.43903406031697,1.43903406031697,1.427212933148428,1.427212933148428,1.427212933148428,1.427212933148428,1.427212933148428,1.43903406031697,1.3962634015954636],[2.123215251115242,2.123215251115242,2.123215251115242,2.1132278967848466,2.1132278967848466,2.1132278967848466,2.1132278967848466,2.1132278967848466,2.0943951023931953],[2.738057718575155,2.738057718575155,2.738057718575155,2.738057718575155,2.738057718575155,2.738057718575155,2.738057718575155,2.738057718575155,2.792526803190927],[3.4525909341953342,3.4525909341953342,3.456096958006538,3.456096958006538,3.456096958006538,3.456096958006538,3.456096958006538,3.456096958006538,3.456096958006538,3.456096958006538,3.456096958006538,3.490658503988659],[4.086342457891158,4.086342457891158,4.086342457891158,4.086342457891158,4.086342457891158,4.086342457891158,4.086342457891158,4.086342457891158,4.086342457891158,4.1887902047863905],[4.904436997625419,4.904436997625419,4.904436997625419,4.904436997625419,4.904436997625419,4.904436997625419,4.904436997625419,4.904436997625419,4.904436997625419,4.886921905584122],[5.629102582765226,5.629102582765226,5.637066403318984,5.647599600355035,5.647599600355035,5.647599600355035,5.647599600355035,5.647599600355035,5.585053606381854],[0.16710179993110552,0.16710179993110552,0.1651486774146267,0.1767088560700365,0.1767088560700365,0.1767088560700365,0.1767088560700365,0],[0.7853981633974483,0.7853981633974483,0.7853981633974483,0.7853981633974483,0.7853981633974483,0.7853981633974483,0.7853981633974483,0.7853981633974483,0.6981317007977318],[1.493174818057503,1.493174818057503,1.493174818057503,1.493174818057503,1.493174818057503,1.493174818057503,1.493174818057503,1.493174818057503,1.493174818057503,1.3962634015954636]],"response_history":["2"],"rt":18659,"trial_type":"polygon-arrow-question","trial_index":0,"trial_index_global":69,"time_elapsed":1599219,"internal_chunk_id":"0-0.12-0"},{"nsides":9,"question":"What is 1 <img src=./images/nonagon_symbol.png style=width:14px;height:14px> 8?","response_type":"free","response_choices":[],"correct_response":"0","response":"9","orientation_history":[[0]],"response_history":["9"],"rt":4347,"trial_type":"polygon-arrow-question","trial_index":0,"trial_index_global":70,"time_elapsed":1603568,"internal_chunk_id":"0-0.12-0"},{"nsides":9,"question":"What is 5 <img src=./images/nonagon_symbol.png style=w idth:14p x;height:14px> 4?","response_type":"free","response_choices":[],"correct_response":"0","response":"9","orientation_history":[[0]],"response_history":["9"],"rt":3238,"trial_type":"polygon-arrow-question","trial_index":0,"trial_index_global":71,"time_elapsed":1606807,"internal_chunk_id":"0-0.12-0"},{"nsides":9,"question":"What is 6 <img src=./images/nonagon_symbol.png style=width:14px;height:14px> 6?","response_type":"free","response_choices":[],"correct_response":"3","response":"12","orientation_history":[[0]],"response_history":["7","12"],"rt":5583,"trial_type":"polygon-arrow-question","trial_index":0,"trial_index_global":72,"time_elapsed":1612391,"internal_chunk_id":"0-0.12-0"},{"nsides":9,"question":"What is 4 <img src=./images/nonagon_symbol.png style=width:14px;height:14px> 1? Please explain in words how you got your answer.","response_type":"free","response_choices":[],"correct_response":"","response":"4 (9) 1 takes you 5 steps around the diagram","orientation_history":[[0]],"response_history":["4 (","4 (9) 1 taks you ","4 (9) 1 taks you","4 (9) 1 taks yo","4 (9) 1 taks y","4 (9) 1 taks ","4 (9) 1 taks","4 (9) 1 takes you 5 steps around the nn","4 (9) 1 takes you 5 steps around the n","4 (9) 1 takes you 5 steps around the n","4 (9) 1 takes you 5 steps around the ","4 (9) 1 takes you 5 steps around the diagram"],"rt":27366,"trial_type":"polygon-arrow-question","trial_index":0,"trial_index_global":73,"time_elapsed":1639758,"internal_chunk_id":"0-0.12-0"},{"nsides":9,"question":"What is 8 <img src=./images/nonagon_symbol.png style=width:14px;height:14px> 4? Please explain in words how you got your answer.","response_type":"free","response_choices":[],"correct_response":"","response":"12 - because it takes you 12 steps around the diagram","orientation_history":[[0]],"response_history":["12 - because it takes you 12 steps around the diagram"],"rt":21432,"trial_type":"polygon-arrow-question","trial_index":0,"trial_index_global":74,"time_elapsed":1661191,"internal_chunk_id":"0-0.12-0"},{"nsides":9,"question":"What is the identity under <img src=./images/nonagon_symbol.png style=width:14px;height:14px>? Please explain in words how you got your answer.","response_type":"free","response_choices":[],"correct_response":"0","response":"zero? This is so confusing, and I AM paying attention closely. :(","orientation_history":[[0]],"response_history":["zero? This is so confusing, and I a","zero? This is so confusing, and I AM paying attention closely. :("],"rt":60848,"trial_type":"polygon-arrow-question","trial_index":0,"trial_index_global":75,"time_elapsed":1722039,"internal_chunk_id":"0-0.12-0"},{"nsides":9,"question":"What is the inverse of 5 under <img src=./images/nonagon_symbol.png style=width:14px;height:14px>?","response_type":"free","response_choices":[],"correct_response":"4","response":"4","orientation_history":[[0]],"response_history":["4"],"rt":5040,"trial_type":"polygon-arrow-quest ion","trial_index":0,"trial_index_global":76,"time_elapsed":1727080,"internal_chunk_id":"0-0.12-0"},{"nsides":9,"question":"What is the inverse of 2 under <img src=./images/nonagon_symbol.png style=width:14px;height:14px>?","response_type":"free","response_choices":[],"correct_response":"7","response":"7","orientation_history":[[0]],"response_history":["7"],"rt":4127,"trial_type":"polygon-arrow-question","trial_index":0,"trial_index_global":77,"time_elapsed":1731208,"internal_chunk_id":"0-0.12-0"},{"nsides":9,"question":"What is the inverse of 0 under <img src=./images/nonagon_symbol.png style=width:14px;height:14px>?","response_type":"free","response_choices":[],"correct_response":"0","response":"9?","orientation_history":[[0]],"response_history":["9?"],"rt":9048,"trial_type":"polygon-arrow-question","trial_index":0,"trial_index_global":78,"time_elapsed":1740256,"internal_chunk_id":"0-0.12-0"},{"nsides":9,"question":"What is the inverse of 3 under <img src=./image s/nonago n_symbol.png style=width:14px;height:14px>? Please explain in words how you got your answer.","response_type":"free","response_choices":[],"correct_response":"","response":"6. Three from 9? Confusing. :(","orientation_history":[[0]],"response_history":["6 - ","6 -","6 ","6. Three from 9? Confusing. :("],"rt":25079,"trial_type":"polygon-arrow-question","trial_index":0,"trial_index_global":79,"time_elapsed":1765335,"internal_chunk_id":"0-0.12-0"},{"nsides":9,"question":"Is 2 a generator under <img src=./images/nonagon_symbol.png style=width:14px;height:14px>? Please explain in words how you got your answer.","response_type":"free","response_choices":[],"correct_response":"","response":"no.There is no way to make a 2 under 9","orientation_history":[[0]],"response_history":["m","no.There is ano","no.There is an","no.There is a","no.There is no ay to make a 2 under 9","no.There is no way to make a 2 under 9"],"rt":58540,"trial_type":"polygon-arrow-question","trial_index":0,"trial_index_global":80,"time_elapsed":1823876,"internal_chunk_id":"0-0.12-0"},{"nsides":9,"question":"Is 3 a generator under <img src=./images/nonagon_symbol.png style=width:14px;height:14px>? Please explain in words how you got your answer.","response_type":"free","response_choices":[],"correct_response":"","response":"Yes, it's possible to make one. 3 3 3 ","orientation_history":[[0]],"response_history":["Yes, it's possible to make one with ","Yes, it's possible to make one. 3 3 3 "],"rt":14080,"trial_type":"polygon-arrow-question","trial_index":0,"trial_index_global":81,"time_elapsed":1837956,"internal_chunk_id":"0-0.12-0"},{"nsides":9,"question":"Is 5 a generator under <img src=./images/nonagon_symbol.png style=width:14px;height:14px>? Please explain in words how you got your answer.","response_type":"free","response_choices":[],"correct_response":"","response":"No, it's not possible to make 9 with 5","orientation_history":[[0]],"response_history":["No,  it's not  possible to make 9 with 5"],"rt":8452,"trial_type":"polygon-arrow-question","trial_index":0,"trial_index_global":82,"time_elapsed":1846408,"internal_chunk_id":"0-0.12-0"},{"nsides":9,"question":"Is 6 a generator under <img src=./images/nonagon_symbol.png style=width:14px;height:14px>? Please explain in words how you got your answer.","response_type":"free","response_choices":[],"correct_response":"","response":"Not sure. Unless you used 3s, but I don't think that's right. So, I'm going to say no. ","orientation_history":[[0]],"response_history":["Not sure. Unless you used 3s, but I don't think that's right. So, I'm going to say no. "],"rt":32004,"trial_type":"polygon-arrow-question","trial_index":0,"trial_index_global":83,"time_elapsed":1878412,"internal_chunk_id":"0-0.12-0"},{"nsides":"n","instructions":"Now we'd like to ask you some questions about <img src=./images/ngon_symbol.png style=width:14px;height:14px>, where n could be any postive counting number . For ex ample, n could be 3, and the polygon a triangle, or n could be any other counting number you can think of, in which case the corresponding polygon would have n sides. Just as before, you can use either the polygon or arithmetic methods. If you need to write the operation, you can use (n), and your answers can include n to stand in for the arbitrary value if necessary. (You can use the polygon at the right to think, but it doesn't necessarily correspond to the real polygon, which is why we've left most of it dashed.)","orientation_history":[0],"rt":36535,"trial_type":"polygon-arrow-instructions","trial_index":0,"trial_index_global":84,"time_elapsed":1914948,"internal_chunk_id":"0-0"},{"nsides":"n","question":"What is the formula for the inverse of 1 under <img src=./images/ngon_symbol.png style=width:14px;height:14px>?","response_type":"free","response_choices":[],"correct_response":"n-1","response":" Now we'd like to ask you some questions about , where n could b e any po stive counting number. For example, n could be 3, and the polygon a triangle, or n could be any other counting number you can think of, in which case the corresponding polygon would have n sides. Just as before, you can use either the polygon or arithmetic methods. If you need to write the operation, you can use (n), and your answers can include n to stand in for the arbitrary value if necessary. (You can use the polygon at the right to think, but it doesn't necessarily correspond to the real polygon, which is why we've left most of it dashed.) There was no laid out formula in the last instructions, it was all words","orientation_history":[[0]],"response_history":["Out o a","Out o ","Out o","Out f","Out of all the instructions, the on","Out of all the instructions, the o","Out of all the instructions, the instructions for this were the hardest to understand. So frustrated right now.","Out of all the instructions, the instructions for this were the hardest to understand.  So frust rated right now, and there's only 15 minutes left. "," Now we'd like to ask you some questions about , where n could be any postive counting number. For example, n could be 3, and the polygon a triangle, or n could be any other counting number you can think of, in which case the corresponding polygon would have n sides. Just as before, you can use either the polygon or arithmetic methods. If you need to write the operation, you can use (n), and your answers can include n to stand in for the arbitrary value if necessary. (You can use the polygon at the right to think, but it doesn't necessarily correspond to the real polygon, which is why we've left most of it dashed.) There was no laid out formula in the last instructions, it was all o"," Now we'd like to ask you some questions about , where n could be any postive counting number. For example, n could be 3, and the polygon a triangle, or n could be any other counting number you can think of, in which case the correspondi ng polyg on would have n sides. Just as before, you can use either the polygon or arithmetic methods. If you need to write the operation, you can use (n), and your answers can include n to stand in for the arbitrary value if necessary. (You can use the polygon at the right to think, but it doesn't necessarily correspond to the real polygon, which is why we've left most of it dashed.) There was no laid out formula in the last instructions, it was all words"],"rt":84260,"trial_type":"polygon-arrow-question","trial_index":0,"trial_index_global":85,"time_elapsed":1999208,"internal_chunk_id":"0-0.14-0"},{"nsides":"n","question":"What is the formula for the inverse of an element x under <img src=./images/ngon_symbol.png style=width:14px;height:14px>? Please explain in words how you got your answer.","response_type":"free","response_choices":[],"correct_response":"n-x","response":"N could be anything, I think, from the instrutions. Like N could be a 3 if you want it to be, and i nstead o f a polygon,  you would use a triangle. So 3 for the numbers shown on the diagram??","orientation_history":[[0]],"response_history":["N could be anything, I think, from the instrutions. Like N could be a 3 if you want it to be, and instead of a polygon,  you would use a triange","N could be anything, I think, from the instrutions. Like N could be a 3 if you want it to be, and instead of a polygon,  you would use a triangle .","N could be anything, I think, from the instrutions. Like N could be a 3 if you want it to be, and instead of a polygon,  you would use a triangle ","N could be anything, I think, from the instrutions. Like N could be a 3 if you want it to be, and instead of a polygon,  you would use a triangle. So 3 for the numbers shown on the diagram??"],"rt":86700,"trial_type":"polygon-arrow-question","trial_index":0,"trial_index_global":86,"time_elapsed":2085908,"internal_chunk_id":"0-0.14-0"},{"nsides":"n","question":"Is there a pattern to which elements are gener ators? H ow can you know if an element x is a generator under <img src=./images/ngon_symbol.png style=width:14px;height:14px> without seeing whether it can make all the elements?.","response_type":"free","response_choices":[],"correct_response":"","response":"For generators, you must be able to make an element. That's all I understood from earlier.","orientation_history":[[0]],"response_history":["The nujb","The nuj","The nu","For generators, you must be able to make an elementa","For generators, you must be able to make an element. But I'm not ","For generators, you must be able to make an element. But I'm not","For generators, you must be able to make an element. But I'm not understanding these instrution","For generators, you must be able to make an element. B","For generators, you must be able to make an element. Thta's all I understood from earlier.","For generators, you must be able to make an element. That's all I understood from earlier."],"rt":126696,"trial_type":"po lygon-ar row-question","trial_index":0,"trial_index_global":87,"time_elapsed":2212604,"internal_chunk_id":"0-0.14-0"},{"nsides":"n","question":"True or false: If x is an odd number, it must be a generator under <img src=./images/ngon_symbol.png style=width:14px;height:14px>.","response_type":"multi","response_choices":["True","False"],"correct_response":"False","response":"True","orientation_history":[[0]],"response_history":["True"],"rt":12124,"trial_type":"polygon-arrow-question","trial_index":0,"trial_index_global":88,"time_elapsed":2224728,"internal_chunk_id":"0-0.14-0"},{"nsides":"n","question":"True or false: If x is an even number, it must not be a generator under <img src=./images/ngon_symbol.png style=width:14px;height:14px>.","response_type":"multi","response_choices":["True","False"],"correct_response":"False","response":"False","orientation_history":[[0]],"response_history":["False"],"rt":8215,"trial_type":"polygon-arrow-question","trial_index":0,"trial_index_global":89,"time_elapsed":2232944,"internal_chunk_id":"0-0.14-0"},{"nsides":"n","question":"True or false: If x is not a generator under <img src=./images/ngon_symbol.png style=width:14px;height:14px>, x must be a divisor of n, that is, x must divide n evenly, with no remainder.","response_type":"multi","response_choices":["True","False"],"correct_response":"False","response":"True","orientation_history":[[0]],"response_history":["True"],"rt":5192,"trial_type":"polygon-arrow-question","trial_index":0,"trial_index_global":90,"time_elapsed":2238136,"internal_chunk_id":"0-0.14-0"},{"nsides":"n","question":"True or false: If x is not a generator under <img src=./images/ngon_symbol.png style=width:14px;height:14px>, x must be a multiple of a divisor of n. Please explain in words why your answer is correct.","response_type":"free","response_choices":[],"correct_response":"True","response":"No. I believe it was that we can make every other number the number under it is  a genera tor.","orientation_history":[[0]],"response_history":["I believe it was that we can make an","I believe it was that we can make a","I believe it was that we can make every othr ","I believe it was that we can make every othr","I believe it was that we can make every other number, bu","I believe it was that we can make every other number, b","I believe it was that we can make every other number, ","I believe it was that we can make every other number,","I believe it was that we can make every other number if that nu","I believe it was that we can make every other number if","I believe it was that we can make every other number i","I believe it was that we can make every other number the numberu","I believe it was that we can make every other number the number under it is a genarator.","NI believe it was that we can make every other number the number under it is a generator.","NoI believe it was that we can make every other number the number under it is a generator.","No. I be lieve it  was that we can make every other number the number under it is a generator."],"rt":71652,"trial_type":"polygon-arrow-question","trial_index":0,"trial_index_global":91,"time_elapsed":2309788,"internal_chunk_id":"0-0.14-0"},{"nsides":"n","question":"If an element x is a generator under <img src=./images/ngon_symbol.png style=width:14px;height:14px>, is its inverse a generator under <img src=./images/ngon_symbol.png style=width:14px;height:14px> always, sometimes, or never?","response_type":"multi","response_choices":["Always","Sometimes","Never"],"correct_response":"Always","response":"Always","orientation_history":[[0]],"response_history":["Always"],"rt":11755,"trial_type":"polygon-arrow-question","trial_index":0,"trial_index_global":92,"time_elapsed":2321544,"internal_chunk_id":"0-0.14-0"},{"nsides":"n","question":"if an element x is a generator under <img src=./images/ngon_symbol.png style=width:14px;height:14px>, is x <img src=./images/ngon_symbo l.png  style=width:14px;height:14px> x a generator under <img src=./images/ngon_symbol.png style=width:14px;height:14px> always, sometimes, or never? Please explain in words why your answer is correct.","response_type":"free","response_choices":[],"correct_response":"sometimes","response":"n/a","orientation_history":[[0]],"response_history":["n/a"],"rt":29896,"trial_type":"polygon-arrow-question","trial_index":0,"trial_index_global":93,"time_elapsed":2351440,"internal_chunk_id":"0-0.14-0"},{"nsides":"n","question":"If an element x is not a generator under <img src=./images/ngon_symbol.png style=width:14px;height:14px>, is x <img src=./images/ngon_symbol.png style=width:14px;height:14px> x a generator under <img src=./images/ngon_symbol.png style=width:14px;height:14px> always, sometimes, or never?","response_type":"multi","response_choices":["Always","Sometimes","Never"],"correct_response":"Never","response":"Never","orientation_history":[[0]],"response_history":["Never"],"rt":77896,"trial_type":"polygon-arrow-question","trial_index":0,"trial_index_global":94,"time_elapsed":2429336,"internal_chunk_id":"0-0.14-0"},{"instructions":"We would like to ask you some questions about your background. Please press Continue to continue.","rt":1795,"trial_type":"instructions","trial_index":0,"trial_index_global":95,"time_elapsed":2431132,"internal_chunk_id":"0-0.15-0"},{"question":"What is your age?","response_type":"free","response_choices":[],"correct_response":"","response":"47","response_history":["47"],"rt":2763,"trial_type":"question","trial_index":0,"trial_index_global":96,"time_elapsed":2433896,"internal_chunk_id":"0-0.15-0"},{"question":"What is your level of education?","response_type":"multi","response_choices":["Did not graduate high school","High school diploma","Some college, no degree","Associates Degree","Bachelors Degree","Some graduate school, no degree","Masters Degree","Doctorate, M.D., etc."],"correct_response":"","response":"Some college, no degree","response_history":["Some college, no degree"],"rt":3244,"trial_type":"question","trial_index":0,"trial_index_global":97,"time_elapsed":2437140,"internal_chunk_id":"0-0.15-0"},{"question":"What is the most advanced math class you've completed? If you have multiple classes and you're not sure which one is most advanced, please list them.","response_type":"free","response_choices":[],"correct_response":"","response":"prealgebra","response_history":["prealgebra"],"rt":6499,"trial_type":"question","trial_index":0,"trial_index_global":98,"time_elapsed":2443640,"internal_chunk_id":"0-0.15-0"},{"question":"How familiar are you with the concept of modular arithmetic?","response_type":"multi","response_choices":["1 - never heard of it","2 - heard of it but didn't know what it was","3 - seen it used or explained","4 - used it but not often or recently","5 - used it, remember and understand it"],"correct_response":"1","response":"1 - never heard of it","response_history":["1 - never heard of it"],"rt":4340,"trial_type":"question","trial_index":0,"trial_index_global":99,"time_elapsed":2447980,"internal_chunk_id":"0-0.15-0"},{"question":"How familiar are you with the concept of a mathematical group?","response_type":"multi","response_choices":["1 - never heard of it","2 - heard of it but didn't know what it was","3 - seen it used or explained","4 - used it but not often or recently","5 - used it, remember and understand it"],"correct_response":"1","response":"1 - never heard of it","response_history":["1 - never heard of it"],"rt":3815,"trial_type":"question","trial_index":0,"trial_index_global":100,"time_elapsed":2451796,"internal_chunk_id":"0-0.15-0"},{"question":"Do you feel you learned something from this HIT?","response_type":"multi","response_choices":["1 - not at all","2 - somewhat","3 - definitely"],"correct_response":"1","response":"2 - somewhat","response_history":["2 - somewhat"],"rt":3419,"trial_type":"question","trial_index":0,"trial_index_global":101,"time_elapsed":2455216,"internal_chunk_id":"0-0.15-0"},{"question":"Do you feel you understood the concepts in this HIT?","response_type":"multi","response_choices":["1 - not at all","2 - somewhat","3 - definitely"],"correct_response":"1","response":"2 - somewhat","response_history":["1 - not at all","2 - somewhat"],"rt":4967,"trial_type":"question","trial_index":0,"trial_index_global":102,"time_elapsed":2460184,"internal_chunk_id":"0-0.15-0"},{"question":"Did you enjoy this HIT?","response_type":"multi","response_choices":["1 - not at all","2 - somewhat","3 - definitely"],"correct_response":"1","response":"1 - not at all","response_history":["1 - not at all"],"rt":2511,"trial_type":"question","trial_index":0,"trial_index_global":103,"time_elapsed":2462696,"internal_chunk_id":"0-0.15-0"},{"question":"What is your gender?","response_type":"multi","response_choices":["Female","Male","Other"],"correct_response":"","response":"Female","response_history":["Female "],"rt":2235,"trial_type":"question","trial_index":0,"trial_index_global":104,"time_elapsed":2464932,"internal_chunk_id":"0-0.15-0"},{"question":"What is/are your native language(s)? (The languages spoken in your household when you were a child.)","response_type":"free","response_choices":[],"correct_response":"","response":"english","response_history":["english"],"rt":3608,"trial_type":"question","trial_index":0,"trial_index_global":105,"time_elapsed":2468540,"internal_chunk_id":"0-0.15-0"},{"question":"Did you use pen and paper at any point on this HIT?","response_type":"free","response_choices":[],"correct_response":"","response":"no","response_history":["no"],"rt":3460,"trial_type":"question","trial_index":0,"trial_index_global":106,"time_elapsed":2472000,"internal_chunk_id":"0-0.15-0"},{"question":"Do you have any comments on this HIT?","response_type":"free","response_choices":[],"correct_response":"","response":"so frustrating :(","response_history":["so frustrating : ("],"rt":6259,"trial_type":"question","trial_index":0,"trial_index_global":107,"time_elapsed":2478260,"internal_chunk_id":"0-0.15-0"}]