[{"nsides":6,"instructions":"Let's define a new operation <img src=./images/hexagon_symbol.png style=width:14px;height:14px>. This operation will give us a way of combining two of the numbers 0, 1, 2, 3, 4, 5 to get another one of them back. To perform <img src=./images/hexagon_symbol.png style=width:14px;height:14px>, you can either use a method based on the hexagon at right, or a method based on arithmetic.<br /><b>Hexagon method:</b> you can use the interactive diagram on the right, or perform the operation in your mind. Point the arrow at the first number on the hexagon by clicking, then click (or click and drag) to move the arrow the second number of points clockwise around the hexagon. The number the arrow arrives at is your result. (The operation is called <img src=./images/hexagon_symbol.png style=width:14px;height:14px> because it uses the hexagon, which has 6 sides.) <br ><b>Arithmetic method:</b> you start with the first number, and then add  the sec ond one to it. If the sum is smaller than 6, that's your result. If the sum is 6 or bigger, you subtract 6 to get your result. <br /><br />For example, 3 <img src=./images/hexagon_symbol.png style=width:14px;height:14px> 5 = 2, because 5 steps clockwise from 3 on the hexagon brings us to 2. Equivalently, 3 + 5 = 8, and 8 is bigger than 6, so we subtract 6, and 8 - 6 = 2. So 3 <img src=./images/hexagon_symbol.png style=width:14px;height:14px> 5 = 2.<br /><br />Similarly, 1 <img src=./images/hexagon_symbol.png style=width:14px;height:14px> 4 = 5, because 1 + 4 = 5, and 5 is less than 6 so we leave it alone. Equivalently, 4 steps clockwise from 1 on the hexagon brings us to 5. <br /><br />Click Continue when you're ready to move on.","orientation_history":[0],"rt":28926,"trial_type":"polygon-arrow-instructions","trial_index":0,"trial_index_global":1,"time_elapsed":31140,"internal_chunk_id":"0-0"},{"nsides":6,"instructions":"Do you see how the differe nt ways  of performing <img src=./images/hexagon_symbol.png style=width:14px;height:14px> give the same result? By labeling the points of the hexagon with the numbers from 0 to 5, we ensure that when we combine two numbers using the hexagon, we only produce numbers between 0 and 5. When we use the arithmetic strategy, adding the second number to the first mimics counting around the hexagon, and subtracting 6 each time we get above 5 makes sure the results correspond to the numbers on the points of the hexagon. <br /><br />Click Continue when you're ready to move on.","orientation_history":[0],"rt":16399,"trial_type":"polygon-arrow-instructions","trial_index":0,"trial_index_global":2,"time_elapsed":47545,"internal_chunk_id":"0-0"},{"nsides":6,"question":"Now try one on your own! What is 4 <img src=./images/hexagon_symbol.png style=width:14px;height:14px> 5? <br /><br /> (Remember, to perform <img src=./images/hexagon_symbol.png style=width:14px;height:14px> , you ca n either use a method based on the hexagon at right, or a method based on arithmetic.<br /><br /><b>Hexagon method:</b> you can use the interactive diagram on the right, or perform the operation in your mind. Point the arrow at the first number, then move the arrow the second number of points clockwise around the hexagon. The number the arrow arrives at is your result. <br /><br /><b>Arithmetic method:</b> you start with the first number, and then add the second one to it. If the sum is smaller than 6, that's your result. If the sum is 6 or bigger, you subtract 6 to get your result.)","response_type":"free","response_choices":[],"correct_response":"3","response":"1","orientation_history":[[0],[3.9592376994224954,3.948264203011303,3.9585592734750197,3.9585592734750197,3.9585592734750197,3.9585592734750197,4.1887902047863905],[5.431218980006314,5.44124370683732,5.450204040505154,5.450204040505154,5.450204040505154,5.450204040505154,5.450204040505154,5.235987755982988],[4.131632626817019,4.131632626817019,4.131632626817019,4.131632626817019,4.131632626817019,4.131632626817019,4.131632626817019,4.131632626817019,4.1887902047863905],[5.21399303457381,5.21399303457381,5.21399303457381,5.21399303457381,5.21399303457381,5.21399303457381,5.21399303457381,5.235987755982988],[0.044089057398071674,0.044089057398071674,0.044089057398071674,0.044089057398071674,0.044089057398071674,0.044089057398071674,0.044089057398071674,0],[0.9505468408120751,0.970746113393143,0.970746113393143,0.9907935525872157,0.9907935525872157,1.0471975511965976],[2.000558605891585,2.000558605891585,2.000558605891585,2.000558605891585,2.000558605891585,2.000558605891585,2.000558605891585,2.0943951023931953],[3.141592653589793,3.141592653589793,3.141592653589793,3.141592653589793,3.141592653589793,3.141592653589793,3.141592653589793],[4.231501700189353,4.231501700189353,4.231501700189353,4.231501700189353,4.231501700189353,4.231501700189353,4.231501700189353,4.231501700189353,4.1887902047863905]],"response_history":["1","3","1"],"rt":61067,"trial_type":"polygon-arrow-question","trial_index":0,"trial_index_global":3,"time_elapsed":108617,"internal_chunk_id":"0-0.3-0"},{"nsides":6,"feedback":"Sorry, that was incorrect. 4 <img src=./images/hexagon_symbol.png style=width:14px;height:14px> 5 = 3 because 5 steps clockwise on the hexagon from 4 brings us to 3. Equivalently, 4 + 5 = 9 and 9 - 6 = 3.","orientation_history":[0],"rt":1977,"trial_type":"polygon-arrow-feedback","trial_index":0,"trial_index_global":4,"time_elapsed":110599,"internal_chunk_id":"0-0.3-0"},{"nsides":6,"question":"What is 3 <img src=./images/hexagon_symbol.png style=width:14px;height:14px> 2? Try to solve this problem using the hexagon. <br /><br /> (Remember, to perform <img src=./images/hexagon_symbol.png style=width:14px;height:14px> on the hexagon, you can use the interactive diagram on the right, or perform the operation in your mind. Point the arrow at the first number on the  hexagon , and then move the arrow the second number of points clockwise around the hexagon.)","response_type":"free","response_choices":[],"correct_response":"5","response":"5","orientation_history":[[0],[3.0681953276881817,3.0681953276881817,3.0681953276881817,3.0681953276881817,3.0681953276881817,3.0681953276881817,3.0681953276881817,3.0681953276881817,3.0681953276881817,3.0681953276881817,3.141592653589793],[4.237378224119593,4.237378224119593,4.237378224119593,4.237378224119593,4.237378224119593,4.237378224119593,4.237378224119593,4.237378224119593,4.1887902047863905],[5.129287050794583,5.129287050794583,5.129287050794583,5.129287050794583,5.129287050794583,5.129287050794583,5.129287050794583,5.129287050794583,5.235987755982988]],"response_history":["5"],"rt":17282,"trial_type":"polygon-arrow-question","trial_index":0,"trial_index_global":5,"time_elapsed":127882,"internal_chunk_id":"0-0.3-0"},{"nsides":6,"feedback":"Correct! 3 <img src=./images/hexagon_symbol.png style=wid th:14px; height:14px> 2 = 5 because 2 steps clockwise on the hexagon from 3 brings us to 5. Equivalently, 3 + 2 = 5 and 5 is less than 6.","orientation_history":[0],"rt":3265,"trial_type":"polygon-arrow-feedback","trial_index":0,"trial_index_global":6,"time_elapsed":131149,"internal_chunk_id":"0-0.3-0"},{"nsides":6,"question":"What is 1 <img src=./images/hexagon_symbol.png style=width:14px;height:14px> 5? Try to solve this probem using the arithmetic technique. <br /><br /> (Remember, to perform <img src=./images/hexagon_symbol.png style=width:14px;height:14px> by arithmetic, you start with the first number, and then add the second one to it. If the sum is smaller than 6, that's your result. If the sum is 6 or bigger, you subtract 6 to get your result.)","response_type":"free","response_choices":[],"correct_response":"0","response":"0","orientation_history":[[0],[1.1013684353504287,1.1013684353504287,1.1013684353504287,1.1013684353504287,1.1013684353504287,1.1013684353504287,1.1013684353504287,1.1013684353504287,1.0471975511965976],[2.1199492294739075,2.1199492294739075,2.1199492294739075,2.1199492294739075,2.1199492294739075,2.1199492294739075,2.1199492294739075,2.1199492294739075,2.1199492294739075,2.1199492294739075,2.1199492294739075,2.1199492294739075,2.1199492294739075,2.1199492294739075,2.0943951023931953],[2.9653579558531176,2.9653579558531176,2.9653579558531176,2.9653579558531176,2.9653579558531176,2.9653579558531176,2.9653579558531176,3.141592653589793],[4.0780061599086,4.0780061599086,4.0780061599086,4.0780061599086,4.0780061599086,4.0780061599086,4.0780061599086,4.0780061599086,4.0780061599086,4.0780061599086,4.0780061599086,4.0780061599086,4.0780061599086,4.0780061599086,4.1887902047863905],[5.264043962913236,5.264043962913236,5.264043962913236,5.264043962913236,5.264043962913236,5.264043962913236,5.264043962913236,5.264043962913236,5.264043962913236,5.264043962913236,5.264043962913236,5.264043962913236,5.264043962913236,5.235987755982988],[2.0032041023654346,2.0032041023654346,2.0032041023654346,2.0032041023654346,2.0032041023654346,2.0032041023654346,2.0032041023654346,2.0943951023931953],[3.1955941539657617,3.1955941539657617,3.1955941539657617,3.1955941539657617,3.1955941539657617,3.1955941539657617,3.1955941539657617,3.141592653589793],[4.204078355373863,4.204078355373863,4.204078355373863,4.204078355373863,4.204078355373863,4.204078355373863,4.204078355373863,4.1887902047863905],[5.20633034930427,5.20633034930427,5.218180295979093,5.218180295979093,5.218180295979093,5.218180295979093,5.218180295979093,5.218180295979093,5.235987755982988],[0.15037142800713443,0.15037142800713443,0.15037142800713443,0.15037142800713443,0.15037142800713443,0.15037142800713443,0.15037142800713443,0.15037142800713443,0]],"response_history":["4","0"],"rt":20394,"trial_type":"polygon-arrow-question","trial_index":0,"trial_index_global":7,"time_elapsed":151545,"internal_chunk_id":"0-0.3-0"},{"nsides":6,"feedback":"Correct! 1 < img src= ./images/hexagon_symbol.png style=width:14px;height:14px> 5 = 0 because 1 + 5 = 6 and 6 - 6 = 0.  Equivalently, 5 steps clockwise on the hexagon from 1 brings us to 0.","orientation_history":[0],"rt":1573,"trial_type":"polygon-arrow-feedback","trial_index":0,"trial_index_global":8,"time_elapsed":153120,"internal_chunk_id":"0-0.3-0"},{"nsides":6,"question":"What is 1 <img src=./images/hexagon_symbol.png style=width:14px;height:14px> 1? Try to solve this problem using the hexagon. <br /><br /> (Remember, to perform <img src=./images/hexagon_symbol.png style=width:14px;height:14px> on the hexagon, you can use the interactive diagram on the right, or perform the operation in your mind. Point the arrow at the first number on the hexagon, and then move the arrow the second number of points clockwise around the hexagon.)","response_type":"free","response_choices":[],"correct_response":"2","response":"2","orientation_history":[[0],[1.0951011079399045,1.0951011079399045,1.0951011079399045,1.0951011079399045,1.0951011079399045,1.0951011079399045,1.0951011079399045,1.0951011079399045,1.0471975511965976],[2.1498705961626277,2.1498705961626277,2.1498705961626277,2.1498705961626277,2.1498705961626277,2.1498705961626277,2.1498705961626277,2.1498705961626277,2.1498705961626277,2.1498705961626277,2.1498705961626277,2.1498705961626277,2.1498705961626277,2.0943951023931953]],"response_history":["2"],"rt":40135,"trial_type":"polygon-arrow-question","trial_index":0,"trial_index_global":9,"time_elapsed":193257,"internal_chunk_id":"0-0.3-0"},{"nsides":6,"feedback":"Correct! 1 <img src=./images/hexagon_symbol.png style=width:14px;height:14px> 1 = 2 because 1 step clockwise on the hexagon from 1 brings us to 2. Equivalently, 1 + 1 = 2 and 2 is less than 6.","orientation_history":[0],"rt":2648,"trial_type":"polygon-arrow-feedback","trial_index":0,"trial_index_global":10,"time_elapsed":195910,"internal_chunk_id":"0-0.3-0"},{"nsides":6,"question":" What is  3 <img src=./images/hexagon_symbol.png style=width:14px;height:14px> 0? Try to solve this problem using the arithmetic technique. <br /><br /> (Remember, to perform <img src=./images/hexagon_symbol.png style=width:14px;height:14px> using arithmetic, you start with the first number, and then add the second one to it. If the sum is smaller than 6, that's your result. If the sum is 6 or bigger, you subtract 6 to get your result.)","response_type":"free","response_choices":[],"correct_response":"3","response":"3","orientation_history":[[0],[3.0045264792796056,3.0045264792796056,3.0045264792796056,3.0045264792796056,3.0045264792796056,3.0045264792796056,3.0045264792796056,3.0045264792796056,3.0045264792796056,3.0045264792796056,3.141592653589793]],"response_history":["3"],"rt":6535,"trial_type":"polygon-arrow-question","trial_index":0,"trial_index_global":11,"time_elapsed":202446,"internal_chunk_id":"0-0.3-0"},{"nsides":6,"feedback":"Correct! 3 <img src=./images /hexagon _symbol.png style=width:14px;height:14px> 0 = 3 because 3 + 0 = 3 and 3 - 6 = 3.  Equivalently, 0 steps clockwise on the hexagon from 3 brings us to 3.","orientation_history":[0],"rt":1607,"trial_type":"polygon-arrow-feedback","trial_index":0,"trial_index_global":12,"time_elapsed":204054,"internal_chunk_id":"0-0.3-0"},{"nsides":6,"question":"What is 4 <img src=./images/hexagon_symbol.png style=width:14px;height:14px> 4? Try to solve this problem using the hexagon. <br /><br /> (Remember, to perform <img src=./images/hexagon_symbol.png style=width:14px;height:14px> on the hexagon, you can use the interactive diagram on the right, or perform the operation in your mind. Point the arrow at the first number on the hexagon, and then move the arrow the second number of points clockwise around the hexagon.)","response_type":"free","response_choices":[],"correct_response":"2","response":"2","orientation_history":[[0],[4.095587756596672,4.095587756596672,4.095587756596672,4.095587756596672,4.095587756596672,4.095587756596672,4.095587756596672,4.095587756596672,4.095587756596672,4.095587756596672,4.095587756596672,4.095587756596672,4.1887902047863905],[5.291952965678012,5.291952965678012,5.291952965678012,5.291952965678012,5.291952965678012,5.291952965678012,5.291952965678012,5.291952965678012,5.291952965678012,5.291952965678012,5.291952965678012,5.291952965678012,5.291952965678012,5.291952965678012,5.291952965678012,5.235987755982988],[6.238439075724971,6.238439075724971,6.238439075724971,6.238439075724971,6.238439075724971,6.238439075724971,6.283185307179586],[0.9140946646754624,0.9140946646754624,0.9140946646754624,0.9140946646754624,0.9140946646754624,0.9140946646754624,0.9140946646754624,0.9140946646754624,0.9140946646754624,0.9140946646754624,0.9140946646754624,0.9140946646754624,0.9140946646754624,0.9140946646754624,1.0471975511965976],[2.214297435588181,2.214297435588181,2.214297435588181,2.214297435588181,2.214297435588181,2.214297435588181,2.214297435588181,2.214297435588181,2.214297435588181,2.214297435588181,2.214297435588181,2.214297435588181,2.214297435588181,2.0943951023931953]],"response_history":["2"],"rt":16491,"trial_type":"polygon-arrow-question","trial_index":0,"trial_index_global":13,"time_elapsed":220546,"internal_chunk_id":"0-0.3-0"},{"nsides":6,"feedback":"Correct! 4 <img src=./images/hexagon_symbol.png style=width:14px;height:14px> 4 = 2 because 4 steps clockwise on the hexagon from 4 brings us to 2. Equivalently, 4 + 4 = 8 and 8 - 6 = 2.","orientation_history":[0],"rt":1832,"trial_type":"polygon-arrow-feedback","trial_index":0,"trial_index_global":14,"time_elapsed":222379,"internal_chunk_id":"0-0.3-0"},{"nsides":6,"question":"What is 1 <img src=./images/hexagon_symbol.png style=width:14px;height:14px> 3? Try to solve this problem using the arithmetic technique. <br /><br /> (Remember, to perform <img src=./images/hexagon_symbol.png style=width:14px;height:14px> by arit hmetic,  you start with the first number, and then add the second one to it. If the sum is smaller than 6, that's your result. If the sum is 6 or bigger, you subtract 6 to get your result.)","response_type":"free","response_choices":[],"correct_response":"4","response":"4","orientation_history":[[0],[1.3220863377013736,1.3220863377013736,1.3220863377013736,1.3220863377013736,1.3220863377013736,1.3220863377013736,1.3220863377013736,1.3220863377013736,1.3220863377013736,1.3220863377013736,1.3220863377013736,1.3220863377013736,1.3220863377013736,1.3220863377013736,1.0471975511965976],[2.056023319362233,2.056023319362233,2.056023319362233,2.056023319362233,2.056023319362233,2.056023319362233,2.056023319362233,2.0943951023931953],[3.2472582356896487,3.2472582356896487,3.2472582356896487,3.2472582356896487,3.2472582356896487,3.2472582356896487,3.2472582356896487,3.2472582356896487,3.2472582356896487,3.2472582356896487,3.2472582356896487,3.2472582356896487,3.2472582356896487,3.141592653589793],[1.0912770348023004,1.0912770348023004,1.0912770348023004,1.0912770348023004,1.0912770348023004,1.0912770348023004,1.0912770348023004,1.0912770348023004,1.0912770348023004,1.0912770348023004,1.0912770348023004,1.0912770348023004,1.0912770348023004,1.0912770348023004,1.0471975511965976]],"response_history":["4"],"rt":14656,"trial_type":"polygon-arrow-question","trial_index":0,"trial_index_global":15,"time_elapsed":237037,"internal_chunk_id":"0-0.3-0"},{"nsides":6,"feedback":"Correct! 1 <img src=./images/hexagon_symbol.png style=width:14px;height:14px> 3 = 4 because 1 + 3 = 4 and 4 - 6 = 4.  Equivalently, 3 steps clockwise on the hexagon from 1 brings us to 4.","orientation_history":[0],"rt":8922,"trial_type":"polygon-arrow-feedback","trial_index":0,"trial_index_global":16,"time_elapsed":245962,"internal_chunk_id":"0-0.3-0"},{"nsides":6,"question":"What is 4 <img src=./images/hexagon_symbol.png style=width:14px;height:14px> 3? <br /><br /> (Remember, to perform <im g src= ./images/hexagon_symbol.png style=width:14px;height:14px>, you can either use a method based on the hexagon at right, or a method based on arithmetic.<br /><br /><b>Hexagon method:</b> you can use the interactive diagram on the right, or perform the operation in your mind. Point the arrow at the first number, then move the arrow the second number of points clockwise around the hexagon. The number the arrow arrives at is your result. <br /><br /><b>Arithmetic method:</b> you start with the first number, and then add the second one to it. If the sum is smaller than 6, that's your result. If the sum is 6 or bigger, you subtract 6 to get your result.)","response_type":"free","response_choices":[],"correct_response":"1","response":"1","orientation_history":[[0],[4.218447611465109,4.218447611465109,4.218447611465109,4.218447611465109,4.218447611465109,4.218447611465109,4.218447611465109,4.218447611465109,4.218447611465109,4.218447611465109,4.218447611465109,4.218447611465109,4.218447611465109,4.218447611465109,4.1887902047863905],[5.176036589385496,5.176036589385496,5.176036589385496,5.176036589385496,5.176036589385496,5.176036589385496,5.176036589385496,5.176036589385496,5.176036589385496,5.176036589385496,5.176036589385496,5.176036589385496,5.176036589385496,5.235987755982988],[6.249864311301339,6.249864311301339,6.249864311301339,6.249864311301339,6.249864311301339,6.249864311301339,6.249864311301339,6.249864311301339,6.249864311301339,6.249864311301339,6.249864311301339,6.249864311301339,6.249864311301339,6.283185307179586],[1.0516502125483735,1.0516502125483735,1.0516502125483735,1.0516502125483735,1.0516502125483735,1.0516502125483735,1.0516502125483735,1.0516502125483735,1.0516502125483735,1.0516502125483735,1.0516502125483735,1.0516502125483735,1.0516502125483735,1.0471975511965976]],"response_history":["1"],"rt":12035,"trial_type":"polygon-arrow-question","trial_index":0,"trial_index_global":17,"time_elapsed":257998,"internal_chunk_id":"0-0.3- 0"},{"nsides":6,"feedback":"Correct! 4 <img src=./images/hexagon_symbol.png style=width:14px;height:14px> 3 = 1 because 3 steps clockwise on the hexagon from 4 brings us to 1. Equivalently, 4 + 3 = 7 and 7 - 6 = 1.","orientation_history":[0],"rt":1628,"trial_type":"polygon-arrow-feedback","trial_index":0,"trial_index_global":18,"time_elapsed":259629,"internal_chunk_id":"0-0.3-0"},{"nsides":6,"question":"What is 0 <img src=./images/hexagon_symbol.png style=width:14px;height:14px> 5? <br /><br /> (Remember, to perform <img src=./images/hexagon_symbol.png style=width:14px;height:14px>, you can either use a method based on the hexagon at right, or a method based on arithmetic.<br /><br /><b>Hexagon method:</b> you can use the interactive diagram on the right, or perform the operation in your mind. Point the arrow at the first number, then move the arrow the second number of points clockwise around the hexagon. The number the arrow arrives at is your result. <br / ><br />< b>Arithmetic method:</b> you start with the first number, and then add the second one to it. If the sum is smaller than 6, that's your result. If the sum is 6 or bigger, you subtract 6 to get your result.)","response_type":"free","response_choices":[],"correct_response":"5","response":"5","orientation_history":[[0],[1.0327521189692717,1.0327521189692717,1.0327521189692717,1.0327521189692717,1.0327521189692717,1.0327521189692717,1.0327521189692717,1.0327521189692717,1.0327521189692717,1.0327521189692717,1.0327521189692717,1.0327521189692717,1.0327521189692717,1.0471975511965976],[2.122451309323443,2.122451309323443,2.122451309323443,2.122451309323443,2.122451309323443,2.122451309323443,2.122451309323443,2.122451309323443,2.122451309323443,2.122451309323443,2.122451309323443,2.122451309323443,2.122451309323443,2.0943951023931953],[3.1718864135085685,3.1718864135085685,3.1718864135085685,3.1718864135085685,3.1718864135085685,3.1718864135085685,3.1718864135085685,3.1718864135085685,3.1718864135085685,3.1718864135085685,3.1718864135085685,3.1718864135085685,3.1718864135085685,3.1718864135085685,3.141592653589793],[3.9599459146015397,3.9599459146015397,3.9599459146015397,3.9599459146015397,3.9599459146015397,3.9599459146015397,3.9599459146015397,3.9599459146015397,3.9599459146015397,3.9599459146015397,4.1887902047863905],[5.187085863464865,5.187085863464865,5.187085863464865,5.187085863464865,5.187085863464865,5.187085863464865,5.187085863464865,5.187085863464865,5.187085863464865,5.187085863464865,5.187085863464865,5.187085863464865,5.187085863464865,5.235987755982988]],"response_history":["5"],"rt":8836,"trial_type":"polygon-arrow-question","trial_index":0,"trial_index_global":19,"time_elapsed":268466,"internal_chunk_id":"0-0.3-0"},{"nsides":6,"feedback":"Correct! 0 <img src=./images/hexagon_symbol.png style=width:14px;height:14px> 5 = 5 because 5 steps clockwise on the hexagon from 0 brings us to 5. Equivalently, 0 + 5 = 5 and 5 is less than 6.","orientation_history":[0],"rt":1963,"trial_type":"polygon-arrow-feedback","trial_index":0,"trial_index_global":20,"time_elapsed":270432,"internal_chunk_id":"0-0.3-0"},{"nsides":6,"question":"What is 2 <img src=./images/hexagon_symbol.png style=width:14px;height:14px> 5? <br /><br /> (Remember, to perform <img src=./images/hexagon_symbol.png style=width:14px;height:14px>, you can either use a method based on the hexagon at right, or a method based on arithmetic.<br /><br /><b>Hexagon method:</b> you can use the interactive diagram on the right, or perform the operation in your mind. Point the arrow at the first number, then move the arrow the second number of points clockwise around the hexagon. The number the arrow arrives at is your result. <br /><br /><b>Arithmetic method:</b> you start with the first number, and then add the second one to it. If the sum is smaller than 6, that's your result. If the sum is 6 or bigger, you subtract 6 to get your result.)","response_type":"f ree","response_choices":[],"correct_response":"1","response":"1","orientation_history":[[0],[2.091934470279015,2.091934470279015,2.091934470279015,2.091934470279015,2.091934470279015,2.091934470279015,2.091934470279015,2.091934470279015,2.091934470279015,2.091934470279015,2.091934470279015,2.091934470279015,2.0943951023931953],[2.988943325194528,2.988943325194528,2.988943325194528,2.988943325194528,2.988943325194528,2.988943325194528,2.988943325194528,2.988943325194528,2.988943325194528,2.988943325194528,2.988943325194528,2.988943325194528,2.988943325194528,2.988943325194528,3.141592653589793],[4.1333147110169595,4.1333147110169595,4.1333147110169595,4.1333147110169595,4.1333147110169595,4.1333147110169595,4.1333147110169595,4.1333147110169595,4.1333147110169595,4.1333147110169595,4.1333147110169595,4.1333147110169595,4.1333147110169595,4.1887902047863905],[5.237184752034796,5.237184752034796,5.237184752034796,5.237184752034796,5.237184752034796,5.237184752034796,5.237184752034796,5.237184752034796,5.237184752034796,5.237184752034796,5.237184752034796,5.237184752034796,5.237184752034796,5.237184752034796,5.235987755982988],[2.1251038229964476,2.1251038229964476,2.1251038229964476,2.1251038229964476,2.1251038229964476,2.1251038229964476,2.1251038229964476,2.1251038229964476,2.1251038229964476,2.1251038229964476,2.1251038229964476,2.1251038229964476,2.1251038229964476,2.1251038229964476,2.0943951023931953]],"response_history":["3","1"],"rt":39741,"trial_type":"polygon-arrow-question","trial_index":0,"trial_index_global":21,"time_elapsed":310175,"internal_chunk_id":"0-0.3-0"},{"nsides":6,"feedback":"Correct! 2 <img src=./images/hexagon_symbol.png style=width:14px;height:14px> 5 = 1 because 5 steps clockwise on the hexagon from 2 brings us to 1. Equivalently, 2 + 5 = 7 and 7 - 6 = 1.","orientation_history":[0],"rt":2312,"trial_type":"polygon-arrow-feedback","trial_index":0,"trial_index_global":22,"time_elapsed":312489,"internal_chunk_id":"0-0.3-0"},{"nsides":6,"instructions":"Now we're going to discuss a couple special properties of this new operation, <img src=./images/hexagon_symbol.png style=width:14px;height:14px> that we've learned. First, notice that the number 0 behaves in a special way under <img src=./images/hexagon_symbol.png style=width:14px;height:14px>. Whenever we combine 0 with anything else, we get that same thing back. We'll say that 0 is the <i>identity</i> under <img src=./images/hexagon_symbol.png style=width:14px;height:14px>, because when you combine it with something it gives you that identical thing back.","orientation_history":[0],"rt":39380,"trial_type":"polygon-arrow-instructions","trial_index":0,"trial_index_global":23,"time_elapsed":351876,"internal_chunk_id":"0-0"},{"nsides":6,"instructions":"Now that we know 0 is the identity under <img src=./images/hexagon_symbol.png style=width:14px;height:14px>, we're going to make a new definition. We'll say that the <i>invers e</i> of  a number is the element that you combine with it to produce the identity. For example, 5 <img src=./images/hexagon_symbol.png style=width:14px;height:14px> 1 = 0, so we say 1 is the inverse of 5 under <img src=./images/hexagon_symbol.png style=width:14px;height:14px>, (remember 0 is the identity under <img src=./images/hexagon_symbol.png style=width:14px;height:14px>). Similarly, 3 is its own inverse under <img src=./images/hexagon_symbol.png style=width:14px;height:14px>, because 3 <img src=./images/hexagon_symbol.png style=width:14px;height:14px> 3 = 0.","orientation_history":[0,[5.487034869991037,5.487034869991037,5.487034869991037,5.487034869991037,5.487034869991037,5.487034869991037,5.487034869991037,5.487034869991037,5.487034869991037,5.487034869991037,5.487034869991037,5.487034869991037,5.487034869991037,5.235987755982988],[6.230602245568645,6.230602245568645,6.230602245568645,6.283185307179586]],"rt":113449,"trial_type":"polyg on-arrow -instructions","trial_index":0,"trial_index_global":24,"time_elapsed":465330,"internal_chunk_id":"0-0"},{"nsides":6,"question":"Now you try! What is the inverse of 4 under <img src=./images/hexagon_symbol.png style=width:14px;height:14px>? <br /><br /> (Remember, the inverse of an element is the thing which you combine with it to produce the identity.)","response_type":"free","response_choices":[],"correct_response":"2","response":"2","orientation_history":[[0],[5.1584945293280935,5.1584945293280935,5.1584945293280935,5.1584945293280935,5.1584945293280935,5.1584945293280935,5.1584945293280935,5.235987755982988],[6.252891547260811,6.252891547260811,6.252891547260811,6.252891547260811,6.252891547260811,6.252891547260811,6.252891547260811,6.252891547260811,6.283185307179586]],"response_history":["2"],"rt":27021,"trial_type":"polygon-arrow-question","trial_index":0,"trial_index_global":25,"time_elapsed":492355,"internal_chunk_id":"0-0.7-0"},{"nsides":6,"feedback":"Correc t! The i nverse of 4 under <img src=./images/hexagon_symbol.png style=width:14px;height:14px> is 2 because 4 <img src=./images/hexagon_symbol.png style=width:14px;height:14px> 2 = 0, and 0 is the identity under <img src=./images/hexagon_symbol.png style=width:14px;height:14px>.","orientation_history":[0],"rt":2023,"trial_type":"polygon-arrow-feedback","trial_index":0,"trial_index_global":26,"time_elapsed":494381,"internal_chunk_id":"0-0.7-0"},{"nsides":6,"question":"What is the inverse of 1 under <img src=./images/hexagon_symbol.png style=width:14px;height:14px>? <br /><br /> (Remember, the inverse of an element is the thing which you combine with it to produce the identity.)","response_type":"free","response_choices":[],"correct_response":"5","response":"5","orientation_history":[[0],[1.1071487177940904,1.1071487177940904,1.1071487177940904,1.1071487177940904,1.1071487177940904,1.1071487177940904,1.0471975511965976],[2.147729271812357,2.147729271812357,2.147729271812357,2.147729271812357,2.147729271812357,2.147729271812357,2.147729271812357,2.147729271812357,2.147729271812357,2.147729271812357,2.147729271812357,2.147729271812357,2.147729271812357,2.0943951023931953],[3.0732063099992897,3.0732063099992897,3.0732063099992897,3.0732063099992897,3.0732063099992897,3.0732063099992897,3.0732063099992897,3.0732063099992897,3.0732063099992897,3.0732063099992897,3.0732063099992897,3.0732063099992897,3.0732063099992897,3.141592653589793],[4.039910477739844,4.039910477739844,4.039910477739844,4.039910477739844,4.039910477739844,4.039910477739844,4.039910477739844,4.039910477739844,4.039910477739844,4.039910477739844,4.039910477739844,4.039910477739844,4.039910477739844,4.039910477739844,4.1887902047863905],[5.092895357497055,5.092895357497055,5.092895357497055,5.092895357497055,5.092895357497055,5.092895357497055,5.092895357497055,5.092895357497055,5.092895357497055,5.092895357497055,5.092895357497055,5.092895357497055,5.092895357497055,5.092895357497055,5.235987755982988],[0.04164257909858837,0.04164257909858837,0.04164257909858837,0.04164257909858837,0.04164257909858837,0.04164257909858837,0.04164257909858837,0.04164257909858837,0.04164257909858837,0.04164257909858837,0.04164257909858837,0.04164257909858837,0.04164257909858837,0]],"response_history":["5"],"rt":27138,"trial_type":"polygon-arrow-question","trial_index":0,"trial_index_global":27,"time_elapsed":521522,"internal_chunk_id":"0-0.7-0"},{"nsides":6,"feedback":"Correct! The inverse of 1 under <img src=./images/hexagon_symbol.png style=width:14px;height:14px> is 5 because 1 <img src=./images/hexagon_symbol.png style=width:14px;height:14px> 5 = 0, and 0 is the identity under <img src=./images/hexagon_symbol.png style=width:14px;height:14px>.","orientation_history":[0],"rt":1808,"trial_type":"polygon-arrow-feedback","trial_index":0,"trial_index_global":28,"time_elapsed":523333,"internal_chunk_id":"0-0.7-0"},{"nsides":6,"question":"What i s the in verse of 3 under <img src=./images/hexagon_symbol.png style=width:14px;height:14px>? <br /><br /> (Remember, the inverse of an element is the thing which you combine with it to produce the identity.)","response_type":"free","response_choices":[],"correct_response":"3","response":"3","orientation_history":[[0]],"response_history":["3"],"rt":11168,"trial_type":"polygon-arrow-question","trial_index":0,"trial_index_global":29,"time_elapsed":534503,"internal_chunk_id":"0-0.7-0"},{"nsides":6,"feedback":"Correct! The inverse of 3 under <img src=./images/hexagon_symbol.png style=width:14px;height:14px> is 3 because 3 <img src=./images/hexagon_symbol.png style=width:14px;height:14px> 3 = 0, and 0 is the identity under <img src=./images/hexagon_symbol.png style=width:14px;height:14px>.","orientation_history":[0],"rt":1050,"trial_type":"polygon-arrow-feedback","trial_index":0,"trial_index_global":30,"time_elapsed":535557,"internal_chunk_id":"0-0.7-0"},{"nsides":6,"question":"What is the inverse of 2 under <img src=./images/hexagon_symbol.png style=width:14px;height:14px>? <br /><br /> (Remember, the inverse of an element is the thing which you combine with it to produce the identity.)","response_type":"free","response_choices":[],"correct_response":"4","response":"4","orientation_history":[[0]],"response_history":["4"],"rt":6667,"trial_type":"polygon-arrow-question","trial_index":0,"trial_index_global":31,"time_elapsed":542227,"internal_chunk_id":"0-0.7-0"},{"nsides":6,"feedback":"Correct! The inverse of 2 under <img src=./images/hexagon_symbol.png style=width:14px;height:14px> is 4 because 2 <img src=./images/hexagon_symbol.png style=width:14px;height:14px> 4 = 0, and 0 is the identity under <img src=./images/hexagon_symbol.png style=width:14px;height:14px>.","orientation_history":[0],"rt":1565,"trial_type":"polygon-arrow-feedback","trial_index":0,"trial_index_global":32,"time_elapsed":543793,"internal_chunk_id":"0-0.7-0"},{"nsides":6,"question":"What is the inverse of 0 under <img src=./images/hexagon_symbol.png style=width:14px;height:14px>? <br /><br /> (Remember, the inverse of an element is the thing which you combine with it to produce the identity.)","response_type":"free","response_choices":[],"correct_response":"0","response":"0","orientation_history":[[0]],"response_history":["0"],"rt":4400,"trial_type":"polygon-arrow-question","trial_index":0,"trial_index_global":33,"time_elapsed":548194,"internal_chunk_id":"0-0.7-0"},{"nsides":6,"feedback":"Correct! The inverse of 0 under <img src=./images/hexagon_symbol.png style=width:14px;height:14px> is 0 because 0 <img src=./images/hexagon_symbol.png style=width:14px;height:14px> 0 = 0, and 0 is the identity under <img src=./images/hexagon_symbol.png style=width:14px;height:14px>.","orientation_history":[0],"rt":1283,"trial_type":"polygon-arrow-feedback","trial_index":0,"trial_index_global":34,"time_elapsed":549478,"internal_chunk_id":"0-0.7-0"},{"nsides":6,"instructions":"It is also possible to successively apply <img src=./images/hexagon_symbol.png style=width:14px;height:14px>, and the operation can simply be performed starting with the left-most pair. For example, 2 <img src=./images/hexagon_symbol.png style=width:14px;height:14px> 3 <img src=./images/hexagon_symbol.png style=width:14px;height:14px> 4 = 5 <img src=./images/hexagon_symbol.png style=width:14px;height:14px> 4 = 3.","orientation_history":[0,[2.191045812777718,2.191045812777718,2.191045812777718,2.191045812777718,2.191045812777718,2.191045812777718,2.191045812777718,2.191045812777718,2.191045812777718,2.191045812777718,2.191045812777718,2.191045812777718,2.191045812777718,2.0943951023931953],[3.1264422977150232,3.1264422977150232,3.1264422977150232,3.1264422977150232,3.1264422977150232,3.1264422977150232,3.1264422977150232,3.1264422977150232,3.1264422977150232,3.1264422977150232,3.1264422977150232,3.1264422977150232,3.1264422977150232,3.1264422977150232,3.141592653589793],[4.31451462276752,4.31451462276752,4.31451462276752,4.31451462276752,4.31451462276752,4.31451462276752,4.31451462276752,4.31451462276752,4.1887902047863905],[2.0344439357957027,2.0344439357957027,2.0344439357957027,2.0344439357957027,2.0344439357957027,2.0344439357957027,2.0344439357957027,2.0344439357957027,2.0344439357957027,2.0344439357957027,2.0344439357957027,2.0344439357957027,2.0344439357957027,2.0943951023931953],[3.1679023708427154,3.1679023708427154,3.1679023708427154,3.1679023708427154,3.1679023708427154,3.1679023708427154,3.1679023708427154,3.1679023708427154,3.1679023708427154,3.1679023708427154,3.1679023708427154,3.1679023708427154,3.1679023708427154,3.1679023708427154,3.141592653589793],[2.1135468251746072,2.1135468251746072,2.1135468251746072,2.1135468251746072,2.1135468251746072,2.1135468251746072,2.1135468251746072,2.1135468251746072,2.1135468251746072,2.1135468251746072,2.1135468251746072,2.1135468251746072,2.1135468251746072,2.0943951023931953],[2.824768167721574,2.824768167721574,2.824768167721574,2.824768167721574,2.824768167721574,2.824768167721574,2.824768167721574,2.824768167721574,2.824768167721574,2.824768167721574,2.824768167721574,2.824768167721574,2.824768167721574,2.824768167721574,3.141592653589793],[4.158081484183139,4.158081484183139,4.158081484183139,4.158081484183139,4.158081484183139,4.158081484183139,4.158081484183139,4.158081484183139,4.158081484183139,4.158081484183139,4.1887902047863905],[3.0406708689224993,3.0406708689224993,3.0406708689224993,3.0406708689224993,3.0406708689224993,3.0406708689224993,3.0406708689224993,3.0406708689224993,3.0406708689224993,3.0406708689224993,3.0406708689224993,3.0406708689224993,3.0406708689224993,3.0406708689224993,3.0406708689224993,3.0406708689224993,3.0406708689224993,3.0406708689224993,3.0406708689224993,3.0406708689224993,3.0406708689224993,3.0406708689224993,3.0406708689224993,3.0406708689224993,3.0406708689224993,3.0406708689224993,3.0406708689224993,3.0406708689224993,3.0406708689224993,3.0406708689224993,3.0406708689224993,3.0406708689224993,3.0406708689224993,3.0406708689224993,3.0406708689224993,3.0406708689224993,3.0406708689224993,3.0406708689224993,3.0406708689224993,3.0406708689224993,3.0406708689224993,3.0406708689224993,3.0406708689224993,3.0406708689224993,3.0406708689224993,3.0406708689224993,3.0406708689224993,3.0406708689224993,3.0406708689224993,3.0406708689224993,3.0406708689224993,3.0406708689224993,3.0406708689224993,3.0406708689224993,3.0406708689224993,3.0406708689224993,3.0406708689224993,3.0406708689224993,3.0406708689224993,3.0406708689224993,3.0406708689224993,3.0406708689224993,3.0406708689224993,3.0406708689224993,4.53397848103365,4.53397848103365,4.53397848103365,4.53397848103365,4.53397848103365,4.53397848103365,4.53397848103365,4.53397848103365,4.53397848103365,4.53397848103365,4.53397848103365,4.53397848103365,4.53397848103365,4.53397848103365,4.53397848103365,4.53397848103365,4.53397848103365,4.53397848103365,4.53397848103365,4.53397848103365,4.53397848103365,4.53397848103365,4.53397848103365,4.53397848103365,4.53397848103365,4.53397848103365,4.53397848103365,4.53397848103365,4.53397848103365,4.53397848103365,4.53397848103365,4.53397848103365,4.53397848103365,4.53397848103365,4.53397848103365,4.53397848103365,4.53397848103365,4.53397848103365,4.53397848103365,4.53397848103365,4.53397848103365,4.53397848103365,4.53397848103365,4.53397848103365,4.53397848103365,4.510785871731846,4.434089321379578,4.434089321379578,4.434089321379578,4.434089321379578,4.434089321379578,4.434089321379578,4.434089321379578,4.434089321379578,4.434089321379578,4.434089321379578,4.434089321379578,4.434089321379578,4.434089321379578,4.434089321379578,4.434089321379578,4.434089321379578,4.434089321379578,4.434089321379578,4.434089321379578,4.434089321379578,4.434089321379578,4.434089321379578,4.434089321379578,4.434089321379578,4.817766419573632,4.84619995785928,4.865038308779955,4.865038308779955,4.874417543119256,4.885399131061852,4.904177122371395,4.913515866201228,4.913515866201228,4.913515866201228,4.913515866201228,4.913515866201228,4.922819183731163,4.922819183731163,4.922819183731163,4.922819183731163,4.922819183731163,4.922819183731163,4.922819183731163,4.922819183731163,4.922819183731163,4.922819183731163,4.922819183731163,4.922819183731163,4.922819183731163,4.922819183731163,4.922819183731163,4.908051439716742,4.885249587171835,4.885249587171835,4.885249587171835,4.885249587171835,4.885249587171835,4.885249587171835,4.885249587171835,4.885249587171835,4.885249587171835,4.885249587171835,4.885249587171835,4.885249587171835,4.885249587171835,4.885249587171835,4.885249587171835,4.885249587171835,4.885249587171835,4.885249587171835,4.885249587171835,4.885249587171835,4.885249587171835,4.885249587171835,4.885249587171835,4.885249587171835,4.885249587171835,4.885249587171835,4.885249587171835,4.885249587171835,4.885249587171835,4.885249587171835,4.885249587171835,4.885249587171835,4.885249587171835,4.885249587171835,4.885249587171835,4.885249587171835,4.885249587171835,4.885249587171835,4.885249587171835,4.885249587171835,4.885249587171835,4.885249587171835,4.885249587171835,4.885249587171835,4.885249587171835,4.885249587171835,4.885249587171835,4.885249587171835,4.885249587171835,4.885249587171835,4.885249587171835,4.885249587171835,4.885249587171835,4.885249587171835,4.885249587171835,4.885249587171835,4.885249587171835,4.885249587171835,4.885249587171835,4.885249587171835,4.885249587171835,4.885249587171835,4.885249587171835,4.885249587171835,4.885249587171835,4.885249587171835,4.885249587171835,4.885249587171835,4.885249587171835,4.885249587171835,4.885249587171835,4.885249587171835,4.885249587171835,4.885249587171835,4.885249587171835,4.885249587171835,4.885249587171835,4.885249587171835,4.885249587171835,4.885249587171835,4.885249587171835,4.885249587171835,4.885249587171835,4.885249587171835,4.885249587171835,4.885249587171835,4.885249587171835,4.885249587171835,4.885249587171835,4.885249587171835,4.885249587171835,4.885249587171835,4.885249587171835,4.885249587171835,4.885249587171835,4.885249587171835,4.885249587171835,4.885249587171835,4.885249587171835,4.885249587171835,4.885249587171835,4.885249587171835,4.885249587171835,4.885249587171835,4.885249587171835,4.885249587171835,4.885249587171835,4.885249587171835,4.885249587171835,4.885249587171835,4.885249587171835,4.885249587171835,4.885249587171835,4.885249587171835,4.885249587171835,4.885249587171835,4.885249587171835,4.885249587171835,4.885249587171835,4.885249587171835,4.885249587171835,4.885249587171835,4.885249587171835,4.885249587171835,4.885249587171835,4.885249587171835,4.885249587171835,4.885249587171835,4.885249587171835,4.885249587171835,4.885249587171835,4.885249587171835,4.885249587171835,4.885249587171835,4.885249587171835,4.885249587171835,4.885249587171835,4.885249587171835,4.885249587171835,4.885249587171835,4.885249587171835,4.885249587171835,4.885249587171835,4.885249587171835,4.885249587171835,4.885249587171835,4.885249587171835,4.885249587171835,4.885249587171835,4.885249587171835,4.885249587171835,4.885249587171835,4.885249587171835,4.885249587171835,4.885249587171835,4.885249587171835,4.885249587171835,4.885249587171835,4.885249587171835,4.885249587171835,4.885249587171835,4.885249587171835,4.885249587171835,4.885249587171835,4.885249587171835,4.885249587171835,4.885249587171835,4.885249587171835,4.885249587171835,4.885249587171835,4.885249587171835,4.885249587171835,4.885249587171835,4.885249587171835,4.885249587171835,4.885249587171835,4.885249587171835,4.885249587171835,4.885249587171835,4.885249587171835,4.885249587171835,4.885249587171835,4.885249587171835,4.885249587171835,4.885249587171835,4.885249587171835,4.885249587171835,4.885249587171835,4.885249587171835,4.885249587171835,4.885249587171835,4.885249587171835,4.885249587171835,4.885249587171835,4.885249587171835,4.885249587171835,4.885249587171835,4.885249587171835,4.885249587171835,4.885249587171835,4.885249587171835,4.885249587171835,4.885249587171835,4.885249587171835,4.885249587171835,4.885249587171835,4.885249587171835,4.885249587171835,4.885249587171835,4.885249587171835,4.885249587171835,4.885249587171835,4.885249587171835,4.885249587171835,4.885249587171835,4.885249587171835,4.885249587171835,4.885249587171835,4.885249587171835,4.885249587171835,4.885249587171835,4.885249587171835,4.885249587171835,4.885249587171835,4.885249587171835,4.885249587171835,4.885249587171835,4.885249587171835,4.885249587171835,4.885249587171835,4.885249587171835,4.885249587171835,4.885249587171835,4.885249587171835,4.885249587171835,4.885249587171835,4.885249587171835,4.885249587171835,4.885249587171835,4.885249587171835,4.885249587171835,4.885249587171835,4.885249587171835,4.885249587171835,4.885249587171835,4.885249587171835,4.885249587171835,4.885249587171835,4.885249587171835,4.885249587171835,4.885249587171835,4.885249587171835,4.885249587171835,4.885249587171835,4.885249587171835,4.885249587171835,4.885249587171835,4.885249587171835,4.885249587171835,4.885249587171835,4.885249587171835,4.885249587171835,4.885249587171835,4.885249587171835,4.885249587171835,4.885249587171835,4.885249587171835,4.885249587171835,4.885249587171835,4.885249587171835,4.885249587171835,4.885249587171835,4.885249587171835,4.885249587171835,4.885249587171835,4.885249587171835,4.885249587171835,4.885249587171835,4.885249587171835,4.885249587171835,4.885249587171835,4.885249587171835,4.885249587171835,4.885249587171835,4.885249587171835,4.885249587171835,4.885249587171835,4.885249587171835,4.885249587171835,4.885249587171835,4.885249587171835,4.885249587171835,4.885249587171835,4.885249587171835,4.885249587171835,4.885249587171835,4.885249587171835,4.885249587171835,4.885249587171835,4.885249587171835,4.885249587171835,4.885249587171835,4.885249587171835,4.885249587171835,4.885249587171835,4.885249587171835,4.885249587171835,4.885249587171835,4.885249587171835,4.885249587171835,4.885249587171835,4.885249587171835,4.885249587171835,4.885249587171835,4.885249587171835,4.885249587171835,4.885249587171835,4.885249587171835,4.885249587171835,4.885249587171835,4.885249587171835,4.885249587171835,4.885249587171835,4.885249587171835,4.885249587171835,4.885249587171835,4.885249587171835,4.885249587171835,4.885249587171835,4.885249587171835,4.885249587171835,4.885249587171835,4.885249587171835,4.885249587171835,4.885249587171835,4.885249587171835,4.885249587171835,4.885249587171835,4.885249587171835,4.885249587171835,4.885249587171835,4.885249587171835,4.885249587171835,4.885249587171835,4.885249587171835,4.885249587171835,4.885249587171835,4.885249587171835,4.885249587171835,4.885249587171835,4.885249587171835,4.885249587171835,4.885249587171835,4.885249587171835,4.885249587171835,4.885249587171835,4.885249587171835,4.885249587171835,4.885249587171835,4.885249587171835,4.885249587171835,4.885249587171835,4.885249587171835,4.885249587171835,4.885249587171835,4.885249587171835,4.885249587171835,4.885249587171835,4.885249587171835,4.885249587171835,4.885249587171835,4.885249587171835,4.885249587171835,4.885249587171835,4.885249587171835,4.885249587171835,4.885249587171835,4.885249587171835,4.885249587171835,4.885249587171835,4.885249587171835,4.885249587171835,4.885249587171835,4.885249587171835,4.885249587171835,4.885249587171835,4.885249587171835,4.885249587171835,4.885249587171835,4.885249587171835,4.885249587171835,4.885249587171835,4.885249587171835,4.885249587171835,4.885249587171835,4.885249587171835,4.885249587171835,4.885249587171835,4.885249587171835,4.885249587171835,4.885249587171835,4.885249587171835,4.885249587171835,4.885249587171835,4.885249587171835,4.885249587171835,4.885249587171835,4.885249587171835,4.885249587171835,4.885249587171835,4.885249587171835,4.885249587171835,4.885249587171835,4.885249587171835,4.885249587171835,4.885249587171835,4.885249587171835,4.885249587171835,4.885249587171835,4.885249587171835,4.885249587171835,4.885249587171835,4.885249587171835,4.885249587171835,4.885249587171835,4.885249587171835,4.885249587171835,4.885249587171835,4.885249587171835,4.885249587171835,4.885249587171835,4.885249587171835,4.885249587171835,4.885249587171835,4.885249587171835,4.885249587171835,4.885249587171835,4.885249587171835,4.885249587171835,4.885249587171835,4.885249587171835,4.885249587171835,4.885249587171835,4.885249587171835,4.885249587171835,4.885249587171835,4.885249587171835,4.885249587171835,4.885249587171835,4.885249587171835,4.885249587171835,4.885249587171835,4.885249587171835,4.885249587171835,4.885249587171835,4.885249587171835,4.885249587171835,4.885249587171835,4.885249587171835,4.885249587171835,4.885249587171835,4.885249587171835,4.885249587171835,4.885249587171835,4.885249587171835,4.885249587171835,4.885249587171835,4.885249587171835,4.885249587171835,4.885249587171835,4.885249587171835,4.885249587171835,4.885249587171835,4.885249587171835,4.885249587171835,4.885249587171835,4.885249587171835,4.885249587171835,4.885249587171835,4.885249587171835,4.885249587171835,4.885249587171835,4.885249587171835,4.885249587171835,4.885249587171835,4.885249587171835,4.885249587171835,4.885249587171835,4.885249587171835,4.885249587171835,4.885249587171835,4.885249587171835,4.885249587171835,4.885249587171835,4.885249587171835,4.885249587171835,4.885249587171835,4.885249587171835,4.885249587171835,4.885249587171835,4.885249587171835,4.885249587171835,4.885249587171835,4.885249587171835,4.885249587171835,4.885249587171835,4.885249587171835,4.885249587171835,4.885249587171835,4.885249587171835,4.885249587171835,4.885249587171835,4.885249587171835,4.885249587171835,4.885249587171835,4.885249587171835,4.885249587171835,4.885249587171835,4.885249587171835,4.885249587171835,4.885249587171835,4.885249587171835,4.885249587171835,4.885249587171835,4.885249587171835,4.885249587171835,4.885249587171835,4.885249587171835,4.885249587171835,4.885249587171835,4.885249587171835,4.885249587171835,4.885249587171835,4.885249587171835,4.885249587171835,4.885249587171835,4.885249587171835,4.885249587171835,4.885249587171835,4.885249587171835,4.885249587171835,4.885249587171835,4.885249587171835,4.885249587171835,4.885249587171835,4.885249587171835,4.885249587171835,4.885249587171835,4.885249587171835,4.885249587171835,4.885249587171835,4.885249587171835,4.885249587171835,4.885249587171835,4.885249587171835,4.885249587171835,4.885249587171835,4.885249587171835,4.885249587171835,4.885249587171835,4.885249587171835,4.885249587171835,4.885249587171835,4.885249587171835,4.885249587171835,4.885249587171835,4.885249587171835,4.885249587171835,4.885249587171835,4.885249587171835,4.885249587171835,4.885249587171835,4.885249587171835,4.885249587171835,4.885249587171835,4.885249587171835,4.885249587171835,4.885249587171835,4.885249587171835,4.885249587171835,4.885249587171835,4.885249587171835,4.885249587171835,4.885249587171835,4.885249587171835,4.885249587171835,4.885249587171835,4.885249587171835,4.885249587171835,4.885249587171835,4.885249587171835,4.885249587171835,4.885249587171835,4.885249587171835,4.885249587171835,4.885249587171835,4.885249587171835,4.885249587171835,4.885249587171835,4.885249587171835,4.885249587171835,4.885249587171835,4.885249587171835,4.885249587171835,4.885249587171835,4.885249587171835,4.885249587171835,4.885249587171835,4.885249587171835,4.885249587171835,4.885249587171835,4.885249587171835,4.885249587171835,4.885249587171835,4.885249587171835,4.885249587171835,4.885249587171835,4.885249587171835,4.885249587171835,4.885249587171835,4.885249587171835,4.885249587171835,4.885249587171835,4.885249587171835,4.885249587171835,4.885249587171835,4.885249587171835,4.885249587171835,4.885249587171835,4.885249587171835,4.885249587171835,4.885249587171835,4.885249587171835,4.885249587171835,4.885249587171835,4.885249587171835,4.885249587171835,4.885249587171835,4.885249587171835,4.885249587171835,4.885249587171835,4.885249587171835,4.885249587171835,4.885249587171835,4.885249587171835,4.885249587171835,4.885249587171835,4.885249587171835,4.885249587171835,4.885249587171835,4.885249587171835,4.885249587171835,4.885249587171835,4.885249587171835,4.885249587171835,4.885249587171835,4.885249587171835,4.885249587171835,4.885249587171835,4.885249587171835,4.885249587171835,4.885249587171835,4.885249587171835,4.885249587171835,4.885249587171835,4.885249587171835,4.885249587171835,4.885249587171835,4.885249587171835,4.885249587171835,4.885249587171835,4.885249587171835,4.885249587171835,4.885249587171835,4.885249587171835,4.885249587171835,4.885249587171835,4.885249587171835,4.885249587171835,4.885249587171835,4.885249587171835,4.885249587171835,4.885249587171835,4.885249587171835,4.885249587171835,4.885249587171835,4.885249587171835,4.885249587171835,4.885249587171835,4.885249587171835,4.885249587171835,4.885249587171835,4.885249587171835,4.885249587171835,4.885249587171835,4.885249587171835,4.885249587171835,4.885249587171835,4.885249587171835,4.885249587171835,4.885249587171835,4.885249587171835,4.885249587171835,4.885249587171835,4.885249587171835,4.885249587171835,4.885249587171835,4.885249587171835,4.885249587171835,4.885249587171835,4.885249587171835,4.885249587171835,4.885249587171835,4.885249587171835,4.885249587171835,4.885249587171835,4.885249587171835,4.885249587171835,4.885249587171835,4.885249587171835,4.885249587171835,4.885249587171835,4.885249587171835,4.885249587171835,4.885249587171835,4.885249587171835,4.885249587171835,4.885249587171835,4.885249587171835,4.885249587171835,4.885249587171835,4.885249587171835,4.885249587171835,4.885249587171835,4.885249587171835,4.885249587171835,4.885249587171835,4.885249587171835,4.885249587171835,4.885249587171835,4.885249587171835,4.885249587171835,4.885249587171835,4.885249587171835,4.885249587171835,4.885249587171835,4.885249587171835,4.885249587171835,4.885249587171835,4.885249587171835,4.885249587171835,4.885249587171835,4.885249587171835,4.885249587171835,4.885249587171835,4.885249587171835,4.885249587171835,4.885249587171835,4.885249587171835,4.885249587171835,4.885249587171835,4.885249587171835,4.885249587171835,4.885249587171835,4.885249587171835,4.885249587171835,4.885249587171835,4.885249587171835,4.885249587171835,4.885249587171835,4.885249587171835,4.885249587171835,4.885249587171835,4.885249587171835,4.885249587171835,4.885249587171835,4.885249587171835,4.885249587171835,4.885249587171835,4.885249587171835,4.885249587171835,4.885249587171835,4.885249587171835,4.885249587171835,4.885249587171835,4.885249587171835,4.885249587171835,4.885249587171835,4.885249587171835,4.885249587171835,4.885249587171835,4.885249587171835,4.885249587171835,4.885249587171835,4.885249587171835,4.885249587171835,4.885249587171835,4.885249587171835,4.885249587171835,4.885249587171835,4.885249587171835,4.885249587171835,4.885249587171835,4.885249587171835,4.885249587171835,4.885249587171835,4.885249587171835,4.885249587171835,4.885249587171835,4.885249587171835,4.885249587171835,4.885249587171835,4.885249587171835,4.885249587171835,4.885249587171835,4.885249587171835,4.885249587171835,4.885249587171835,4.885249587171835,4.885249587171835,4.885249587171835,4.885249587171835,4.885249587171835,4.885249587171835,4.885249587171835,4.885249587171835,4.885249587171835,4.885249587171835,4.885249587171835,4.885249587171835,4.885249587171835,4.885249587171835,4.885249587171835,4.885249587171835,4.885249587171835,4.885249587171835,4.885249587171835,4.885249587171835,4.885249587171835,4.885249587171835,4.885249587171835,4.885249587171835,4.885249587171835,4.885249587171835,4.885249587171835,4.885249587171835,4.885249587171835,4.885249587171835,4.885249587171835,4.885249587171835,4.885249587171835,4.885249587171835,4.885249587171835,4.885249587171835,4.885249587171835,4.885249587171835,4.885249587171835,4.885249587171835,4.885249587171835,4.885249587171835,4.885249587171835,4.885249587171835,4.885249587171835,4.885249587171835,4.885249587171835,4.885249587171835,4.885249587171835,4.885249587171835,4.885249587171835,4.885249587171835,4.885249587171835,4.885249587171835,4.885249587171835,4.885249587171835,4.885249587171835,4.885249587171835,4.885249587171835,4.885249587171835,4.885249587171835,4.885249587171835,4.885249587171835,4.885249587171835,4.885249587171835,4.885249587171835,4.885249587171835,4.885249587171835,4.885249587171835,4.885249587171835,4.885249587171835,4.885249587171835,4.885249587171835,4.885249587171835,4.885249587171835,4.885249587171835,4.885249587171835,4.885249587171835,4.885249587171835,4.885249587171835,4.885249587171835,4.885249587171835,4.885249587171835,4.885249587171835,4.885249587171835,4.885249587171835,4.885249587171835,4.885249587171835,4.885249587171835,4.885249587171835,4.885249587171835,4.885249587171835,4.885249587171835,4.885249587171835,4.885249587171835,4.885249587171835,4.885249587171835,4.885249587171835,4.885249587171835,4.885249587171835,4.885249587171835,4.885249587171835,4.885249587171835,4.885249587171835,4.885249587171835,4.885249587171835,4.885249587171835,4.885249587171835,4.885249587171835,4.885249587171835,4.885249587171835,4.885249587171835,4.885249587171835,4.885249587171835,4.885249587171835,4.885249587171835,4.885249587171835,4.885249587171835,4.885249587171835,4.885249587171835,4.885249587171835,4.885249587171835,4.885249587171835,4.885249587171835,4.885249587171835,4.885249587171835,4.885249587171835,4.885249587171835,4.885249587171835,4.885249587171835,4.885249587171835,4.885249587171835,4.885249587171835,4.885249587171835,4.885249587171835,4.885249587171835,4.885249587171835,4.885249587171835,4.885249587171835,4.885249587171835,4.885249587171835,4.885249587171835,4.885249587171835,4.885249587171835,4.885249587171835,4.885249587171835,4.885249587171835,4.885249587171835,4.885249587171835,4.885249587171835,4.885249587171835,4.885249587171835,4.885249587171835,4.885249587171835,4.885249587171835,4.885249587171835,4.885249587171835,4.885249587171835,4.885249587171835,4.885249587171835,4.885249587171835,4.885249587171835,4.885249587171835,4.885249587171835,4.885249587171835,4.885249587171835,4.885249587171835,4.885249587171835,4.885249587171835,4.885249587171835,4.885249587171835,4.885249587171835,4.885249587171835,4.885249587171835,4.885249587171835,4.885249587171835,4.885249587171835,4.885249587171835,4.885249587171835,4.885249587171835,4.885249587171835,4.885249587171835,4.885249587171835,4.885249587171835,4.885249587171835,4.885249587171835,4.885249587171835,4.885249587171835,4.885249587171835,4.885249587171835,4.885249587171835,4.885249587171835,4.885249587171835,4.885249587171835,4.885249587171835,4.885249587171835,4.885249587171835,4.885249587171835,4.885249587171835,4.885249587171835,4.885249587171835,4.885249587171835,4.885249587171835,4.885249587171835,4.885249587171835,4.885249587171835,4.885249587171835,4.885249587171835,4.885249587171835,4.885249587171835,4.885249587171835,4.885249587171835,4.885249587171835,4.885249587171835,4.885249587171835,4.885249587171835,4.885249587171835,4.885249587171835,4.885249587171835,4.885249587171835,4.885249587171835,4.885249587171835,4.885249587171835,4.885249587171835,4.885249587171835,4.885249587171835,4.885249587171835,4.885249587171835,4.885249587171835,4.885249587171835,4.885249587171835,4.885249587171835,4.885249587171835,4.885249587171835,4.885249587171835,4.885249587171835,4.885249587171835,4.885249587171835,4.885249587171835,4.885249587171835,4.885249587171835,4.885249587171835,4.885249587171835,4.885249587171835,4.885249587171835,4.885249587171835,4.885249587171835,4.885249587171835,4.885249587171835,4.885249587171835,4.885249587171835,4.885249587171835,4.885249587171835,4.885249587171835,4.885249587171835,4.885249587171835,4.885249587171835,4.885249587171835,4.885249587171835,4.885249587171835,4.885249587171835,4.885249587171835,4.885249587171835,4.885249587171835,4.885249587171835,4.885249587171835,4.885249587171835,4.885249587171835,4.885249587171835,4.885249587171835,4.885249587171835,4.885249587171835,4.885249587171835,4.885249587171835,4.885249587171835,4.885249587171835,4.885249587171835,4.885249587171835,4.885249587171835,4.885249587171835,4.885249587171835,4.885249587171835,4.885249587171835,4.885249587171835,4.885249587171835,4.885249587171835,4.885249587171835,4.885249587171835,4.885249587171835,4.885249587171835,4.885249587171835,4.885249587171835,4.885249587171835,4.885249587171835,4.885249587171835,4.885249587171835,4.885249587171835,4.885249587171835,4.885249587171835,4.885249587171835,4.885249587171835,4.885249587171835,4.885249587171835,4.885249587171835,4.885249587171835,4.885249587171835,4.885249587171835,4.885249587171835,4.885249587171835,4.885249587171835,4.885249587171835,4.885249587171835,4.885249587171835,4.885249587171835,4.885249587171835,4.885249587171835,4.885249587171835,4.885249587171835,4.885249587171835,4.885249587171835,4.885249587171835,4.885249587171835,4.885249587171835,4.885249587171835,4.885249587171835,4.885249587171835,4.885249587171835,4.885249587171835,4.885249587171835,4.885249587171835,4.885249587171835,4.885249587171835,4.885249587171835,4.885249587171835,4.885249587171835,4.885249587171835,4.885249587171835,4.885249587171835,4.885249587171835,4.885249587171835,4.885249587171835,4.885249587171835,4.885249587171835,4.885249587171835,4.885249587171835,4.885249587171835,4.885249587171835,4.885249587171835,4.885249587171835,4.885249587171835,4.885249587171835,4.885249587171835,4.885249587171835,4.885249587171835,4.885249587171835,4.885249587171835,4.885249587171835,4.885249587171835,4.885249587171835,4.885249587171835,4.885249587171835,4.885249587171835,4.885249587171835,4.885249587171835,4.885249587171835,4.885249587171835,4.885249587171835,4.885249587171835,4.885249587171835,4.885249587171835,4.885249587171835,4.885249587171835,4.885249587171835,4.885249587171835,4.885249587171835,4.885249587171835,4.885249587171835,4.885249587171835,4.885249587171835,4.885249587171835,4.885249587171835,4.885249587171835,4.885249587171835,4.885249587171835,4.885249587171835,4.885249587171835,4.885249587171835,4.885249587171835,4.885249587171835,4.885249587171835,4.885249587171835,4.885249587171835,4.885249587171835,4.885249587171835,4.885249587171835,4.885249587171835,4.885249587171835,4.885249587171835,4.885249587171835,4.885249587171835,4.885249587171835,4.885249587171835,4.885249587171835,4.885249587171835,4.885249587171835,4.885249587171835,4.885249587171835,4.885249587171835,4.885249587171835,4.885249587171835,4.885249587171835,4.885249587171835,4.885249587171835,4.885249587171835,4.885249587171835,4.885249587171835,4.885249587171835,4.885249587171835,4.885249587171835,4.885249587171835,4.885249587171835,4.885249587171835,4.885249587171835,4.885249587171835,4.885249587171835,4.885249587171835,4.885249587171835,4.885249587171835,4.885249587171835,4.885249587171835,4.885249587171835,4.885249587171835,4.885249587171835,4.885249587171835,4.885249587171835,4.885249587171835,4.885249587171835,4.885249587171835,4.885249587171835,4.885249587171835,4.885249587171835,4.885249587171835,4.885249587171835,4.885249587171835,4.885249587171835,4.885249587171835,4.885249587171835,4.885249587171835,4.885249587171835,4.885249587171835,4.885249587171835,4.885249587171835,4.885249587171835,4.885249587171835,4.885249587171835,4.885249587171835,4.885249587171835,4.885249587171835,4.885249587171835,4.885249587171835,4.885249587171835,4.885249587171835,4.885249587171835,4.885249587171835,4.885249587171835,4.885249587171835,4.885249587171835,4.885249587171835,4.885249587171835,4.885249587171835,4.885249587171835,4.885249587171835,4.885249587171835,4.885249587171835,4.885249587171835,4.885249587171835,4.885249587171835,4.885249587171835,4.885249587171835,4.885249587171835,4.885249587171835,4.885249587171835,4.885249587171835,4.885249587171835,4.885249587171835,4.885249587171835,4.885249587171835,4.885249587171835,4.885249587171835,4.885249587171835,4.885249587171835,4.885249587171835,4.885249587171835,4.885249587171835,4.885249587171835,4.885249587171835,4.885249587171835,4.885249587171835,4.885249587171835,4.885249587171835,4.885249587171835,4.885249587171835,4.885249587171835,4.885249587171835,4.885249587171835,4.885249587171835,4.885249587171835,4.885249587171835,4.885249587171835,4.885249587171835,4.885249587171835,4.885249587171835,4.885249587171835,4.885249587171835,4.885249587171835,4.885249587171835,4.885249587171835,4.885249587171835,4.885249587171835,4.885249587171835,4.885249587171835,4.885249587171835,4.885249587171835,4.885249587171835,4.885249587171835,4.885249587171835,4.885249587171835,4.885249587171835,4.885249587171835,4.885249587171835,4.885249587171835,4.885249587171835,4.885249587171835,4.885249587171835,4.885249587171835,4.885249587171835,4.885249587171835,4.885249587171835,4.885249587171835,4.885249587171835,4.885249587171835,4.885249587171835,4.885249587171835,4.885249587171835,4.885249587171835,4.885249587171835,4.885249587171835,4.885249587171835,4.885249587171835,4.885249587171835,4.885249587171835,4.885249587171835,4.885249587171835,4.885249587171835,4.885249587171835,4.885249587171835,4.885249587171835,4.885249587171835,4.885249587171835,4.885249587171835,4.885249587171835,4.885249587171835,4.885249587171835,4.885249587171835,4.885249587171835,4.885249587171835,4.885249587171835,4.885249587171835,4.885249587171835,4.885249587171835,4.885249587171835,4.885249587171835,4.885249587171835,4.885249587171835,4.885249587171835,4.885249587171835,4.885249587171835,4.885249587171835,4.885249587171835,4.885249587171835,4.885249587171835,4.885249587171835,4.885249587171835,4.885249587171835,4.885249587171835,4.885249587171835,4.885249587171835,4.885249587171835,4.885249587171835,4.885249587171835,4.885249587171835,4.885249587171835,4.885249587171835,4.885249587171835,4.885249587171835,4.885249587171835,4.885249587171835,4.885249587171835,4.885249587171835,4.885249587171835,4.885249587171835,4.885249587171835,4.885249587171835,4.885249587171835,4.885249587171835,4.885249587171835,4.885249587171835,4.885249587171835,4.885249587171835,4.885249587171835,4.885249587171835,4.885249587171835,4.885249587171835,4.885249587171835,4.885249587171835,4.885249587171835,4.885249587171835,4.885249587171835,4.885249587171835,4.885249587171835,4.885249587171835,4.885249587171835,4.885249587171835,4.885249587171835,4.885249587171835,4.885249587171835,4.885249587171835,4.885249587171835,4.885249587171835,4.885249587171835,4.885249587171835,4.885249587171835,4.885249587171835,4.885249587171835,4.885249587171835,4.885249587171835,4.885249587171835,4.885249587171835,4.885249587171835,4.885249587171835,4.885249587171835,4.885249587171835,4.885249587171835,4.885249587171835,4.885249587171835,4.885249587171835,4.885249587171835,4.885249587171835,4.885249587171835,4.885249587171835,4.885249587171835,4.885249587171835,4.885249587171835,4.885249587171835,4.885249587171835,4.885249587171835,4.885249587171835,4.885249587171835,4.885249587171835,4.885249587171835,4.885249587171835,4.885249587171835,4.885249587171835,4.885249587171835,4.885249587171835,4.885249587171835,4.885249587171835,4.885249587171835,4.885249587171835,4.885249587171835,4.885249587171835,4.885249587171835,4.885249587171835,4.885249587171835,4.885249587171835,4.885249587171835,4.885249587171835,4.885249587171835,4.885249587171835,4.885249587171835,4.885249587171835,4.885249587171835,4.885249587171835,4.885249587171835,4.885249587171835,4.885249587171835,4.885249587171835,4.885249587171835,4.885249587171835,4.885249587171835,4.885249587171835,4.885249587171835,4.885249587171835,4.885249587171835,4.885249587171835,4.885249587171835,4.885249587171835,4.885249587171835,4.885249587171835,4.885249587171835,4.885249587171835,4.885249587171835,4.885249587171835,4.885249587171835,4.885249587171835,4.885249587171835,4.885249587171835,4.885249587171835,4.885249587171835,4.885249587171835,4.885249587171835,4.885249587171835,4.885249587171835,4.885249587171835,4.885249587171835,4.885249587171835,4.885249587171835,4.885249587171835,4.885249587171835,4.885249587171835,4.885249587171835,4.885249587171835,4.885249587171835,4.885249587171835,4.885249587171835,4.885249587171835,4.885249587171835,4.885249587171835,4.885249587171835,4.885249587171835,4.885249587171835,4.885249587171835,4.885249587171835,4.885249587171835,4.885249587171835,4.885249587171835,4.885249587171835,4.885249587171835,4.885249587171835,4.885249587171835,4.885249587171835,4.885249587171835,4.885249587171835,4.885249587171835,4.885249587171835,4.885249587171835,4.885249587171835,4.885249587171835,4.885249587171835,4.885249587171835,4.885249587171835,4.885249587171835,4.885249587171835,4.885249587171835,4.885249587171835,4.885249587171835,4.885249587171835,4.885249587171835,4.885249587171835,4.885249587171835,4.885249587171835,4.885249587171835,4.885249587171835,4.885249587171835,4.885249587171835,4.885249587171835,4.885249587171835,4.885249587171835,4.885249587171835,4.885249587171835,4.885249587171835,4.885249587171835,4.885249587171835,4.885249587171835,4.885249587171835,4.885249587171835,4.885249587171835,4.885249587171835,4.885249587171835,4.885249587171835,4.885249587171835,4.885249587171835,4.885249587171835,4.885249587171835,4.885249587171835,4.885249587171835,4.885249587171835,4.885249587171835,4.885249587171835,4.885249587171835,4.885249587171835,4.885249587171835,4.885249587171835,4.885249587171835,4.885249587171835,4.885249587171835,4.885249587171835,4.885249587171835,4.885249587171835,4.885249587171835,4.885249587171835,4.885249587171835,4.885249587171835,4.885249587171835,4.885249587171835,4.885249587171835,4.885249587171835,4.885249587171835,4.885249587171835,4.885249587171835,4.885249587171835,4.885249587171835,4.885249587171835,4.885249587171835,4.885249587171835,4.885249587171835,4.885249587171835,4.885249587171835,4.885249587171835,4.885249587171835,4.885249587171835,4.885249587171835,4.885249587171835,4.885249587171835,4.885249587171835,4.885249587171835,4.885249587171835,4.885249587171835,4.885249587171835,4.885249587171835,4.885249587171835,4.885249587171835,4.885249587171835,4.885249587171835,4.885249587171835,4.885249587171835,4.885249587171835,4.885249587171835,4.885249587171835,4.885249587171835,4.885249587171835,4.885249587171835,4.885249587171835,4.885249587171835,4.885249587171835,4.885249587171835,4.885249587171835,4.885249587171835,4.885249587171835,4.885249587171835,4.885249587171835,4.885249587171835,4.885249587171835,4.885249587171835,4.885249587171835,4.885249587171835,4.885249587171835,4.885249587171835,4.885249587171835,4.885249587171835,4.885249587171835,4.885249587171835,4.885249587171835,4.885249587171835,4.885249587171835,4.885249587171835,4.885249587171835,4.885249587171835,4.885249587171835,4.885249587171835,4.885249587171835,4.885249587171835,4.885249587171835,4.885249587171835,4.885249587171835,4.885249587171835,4.885249587171835,4.885249587171835,4.885249587171835,4.885249587171835,4.885249587171835,4.885249587171835,4.885249587171835,4.885249587171835,4.885249587171835,4.885249587171835,4.885249587171835,4.885249587171835,4.885249587171835,4.885249587171835,4.885249587171835,4.885249587171835,4.885249587171835,4.885249587171835,4.885249587171835,4.885249587171835,4.885249587171835,4.885249587171835,4.885249587171835,4.885249587171835,4.885249587171835,4.885249587171835,4.885249587171835,4.885249587171835,4.885249587171835,4.885249587171835,4.885249587171835,4.885249587171835,4.885249587171835,4.885249587171835,4.885249587171835,4.885249587171835,4.885249587171835,4.885249587171835,4.885249587171835,4.885249587171835,4.885249587171835,4.885249587171835,4.885249587171835,4.885249587171835,4.885249587171835,4.885249587171835,4.885249587171835,4.885249587171835,4.885249587171835,4.885249587171835,4.885249587171835,4.885249587171835,4.885249587171835,4.885249587171835,4.885249587171835,4.885249587171835,4.885249587171835,4.885249587171835,4.885249587171835,4.885249587171835,4.885249587171835,4.885249587171835,4.885249587171835,4.885249587171835,4.885249587171835,4.885249587171835,4.885249587171835,4.885249587171835,4.885249587171835,4.885249587171835,4.885249587171835,4.885249587171835,4.885249587171835,4.885249587171835,4.885249587171835,4.885249587171835,4.885249587171835,4.885249587171835,4.885249587171835,4.885249587171835,4.885249587171835,4.885249587171835,4.885249587171835,4.885249587171835,4.885249587171835,4.885249587171835,4.885249587171835,4.885249587171835,4.885249587171835,4.885249587171835,4.885249587171835,4.885249587171835,4.885249587171835,4.885249587171835,4.885249587171835,4.885249587171835,4.885249587171835,4.885249587171835,4.885249587171835,4.885249587171835,4.885249587171835,4.885249587171835,4.885249587171835,4.885249587171835,4.885249587171835,4.885249587171835,4.885249587171835,4.885249587171835,4.885249587171835,4.885249587171835,4.885249587171835,4.885249587171835,4.885249587171835,4.885249587171835,4.885249587171835,4.885249587171835,4.885249587171835,4.885249587171835,4.885249587171835,4.885249587171835,4.885249587171835,4.885249587171835,4.885249587171835,4.885249587171835,4.885249587171835,4.885249587171835,4.885249587171835,4.885249587171835,4.885249587171835,4.885249587171835,4.885249587171835,4.885249587171835,4.885249587171835,4.885249587171835,4.885249587171835,4.885249587171835,4.885249587171835,4.885249587171835,4.885249587171835,4.885249587171835,4.885249587171835,4.885249587171835,4.885249587171835,4.885249587171835,4.885249587171835,4.885249587171835,4.885249587171835,4.885249587171835,4.885249587171835,4.885249587171835,4.885249587171835,4.885249587171835,4.885249587171835,4.885249587171835,4.885249587171835,4.885249587171835,4.885249587171835,4.885249587171835,4.885249587171835,4.885249587171835,4.885249587171835,4.885249587171835,4.885249587171835,4.885249587171835,4.885249587171835,4.885249587171835,4.885249587171835,4.885249587171835,4.885249587171835,4.885249587171835,4.885249587171835,4.885249587171835,4.885249587171835,4.885249587171835,4.885249587171835,4.885249587171835,4.885249587171835,4.885249587171835,4.885249587171835,4.885249587171835,4.885249587171835,4.885249587171835,4.885249587171835,4.885249587171835,4.885249587171835,4.885249587171835,4.885249587171835,4.885249587171835,4.885249587171835,4.885249587171835,4.885249587171835,4.885249587171835,4.885249587171835,4.885249587171835,4.885249587171835,4.885249587171835,4.885249587171835,4.885249587171835,4.885249587171835,4.885249587171835,4.885249587171835,4.885249587171835,4.885249587171835,4.885249587171835,4.885249587171835,4.885249587171835,4.885249587171835,4.885249587171835,4.885249587171835,4.885249587171835,4.885249587171835,4.885249587171835,4.885249587171835,4.885249587171835,4.885249587171835,4.885249587171835,4.885249587171835,4.885249587171835,4.885249587171835,4.885249587171835,4.885249587171835,4.885249587171835,4.885249587171835,4.885249587171835,4.885249587171835,4.885249587171835,4.885249587171835,4.885249587171835,4.885249587171835,4.885249587171835,4.885249587171835,4.885249587171835,4.885249587171835,4.885249587171835,4.885249587171835,4.885249587171835,4.885249587171835,4.885249587171835,4.885249587171835,4.885249587171835,4.885249587171835,4.885249587171835,4.885249587171835,4.885249587171835,4.885249587171835,4.885249587171835,4.885249587171835,4.885249587171835,4.885249587171835,4.885249587171835,4.885249587171835,4.885249587171835,4.885249587171835,4.885249587171835,4.885249587171835,4.885249587171835,4.885249587171835,4.885249587171835,4.885249587171835,4.885249587171835,4.885249587171835,4.885249587171835,4.885249587171835,4.885249587171835,4.885249587171835,4.885249587171835,4.885249587171835,4.885249587171835,4.885249587171835,4.885249587171835,4.885249587171835,4.885249587171835,4.885249587171835,4.885249587171835,4.885249587171835,4.885249587171835,4.885249587171835,4.885249587171835,4.885249587171835,4.885249587171835,4.885249587171835,4.885249587171835,4.885249587171835,4.885249587171835,4.885249587171835,4.885249587171835,4.885249587171835,4.885249587171835,4.885249587171835,4.885249587171835,4.885249587171835,4.885249587171835,4.885249587171835,4.885249587171835,4.885249587171835,4.885249587171835,4.885249587171835,4.885249587171835,4.885249587171835,4.885249587171835,4.885249587171835,4.885249587171835,4.885249587171835,4.885249587171835,4.885249587171835,4.885249587171835,4.885249587171835,4.885249587171835,4.885249587171835,4.885249587171835,4.885249587171835,4.885249587171835,4.885249587171835,4.885249587171835,4.885249587171835,4.885249587171835,4.885249587171835,4.885249587171835,4.885249587171835,4.885249587171835,4.885249587171835,4.885249587171835,4.885249587171835,4.885249587171835,4.885249587171835,4.885249587171835,4.885249587171835,4.885249587171835,4.885249587171835,4.885249587171835,4.885249587171835,4.885249587171835,4.885249587171835,4.885249587171835,4.885249587171835,4.885249587171835,4.885249587171835,4.885249587171835,4.885249587171835,4.885249587171835,4.885249587171835,4.885249587171835,4.885249587171835,4.885249587171835,4.885249587171835,4.885249587171835,4.885249587171835,4.885249587171835,4.885249587171835,4.885249587171835,4.885249587171835,4.885249587171835,4.885249587171835,4.885249587171835,4.885249587171835,4.885249587171835,4.885249587171835,4.885249587171835,4.885249587171835,4.885249587171835,4.885249587171835,4.885249587171835,4.885249587171835,4.885249587171835,4.885249587171835,4.885249587171835,4.885249587171835,4.885249587171835,4.885249587171835,4.885249587171835,4.885249587171835,4.885249587171835,4.885249587171835,4.885249587171835,4.885249587171835,4.885249587171835,4.885249587171835,4.885249587171835,4.885249587171835,4.885249587171835,4.885249587171835,4.885249587171835,4.885249587171835,4.885249587171835,4.885249587171835,4.885249587171835,4.885249587171835,4.885249587171835,4.885249587171835,4.885249587171835,4.885249587171835,4.885249587171835,4.885249587171835,4.885249587171835,4.885249587171835,4.885249587171835,4.885249587171835,4.885249587171835,4.885249587171835,4.885249587171835,4.885249587171835,4.885249587171835,4.885249587171835,4.885249587171835,4.885249587171835,4.885249587171835,4.885249587171835,4.885249587171835,4.885249587171835,4.885249587171835,4.885249587171835,4.885249587171835,4.885249587171835,4.885249587171835,4.885249587171835,4.885249587171835,4.885249587171835,4.885249587171835,4.885249587171835,4.885249587171835,4.885249587171835,4.885249587171835,4.885249587171835,4.885249587171835,4.885249587171835,4.885249587171835,4.885249587171835,4.885249587171835,4.885249587171835,4.885249587171835,4.885249587171835,4.885249587171835,4.885249587171835,4.885249587171835,4.885249587171835,4.885249587171835,4.885249587171835,4.885249587171835,4.885249587171835,4.885249587171835,4.885249587171835,4.885249587171835,4.885249587171835,4.885249587171835,4.885249587171835,4.885249587171835,4.885249587171835,4.885249587171835,4.885249587171835,4.885249587171835,4.885249587171835,4.885249587171835,4.885249587171835,4.885249587171835,4.885249587171835,4.885249587171835,4.885249587171835,4.885249587171835,4.885249587171835,4.885249587171835,4.885249587171835,4.885249587171835,4.885249587171835,4.885249587171835,4.885249587171835,4.885249587171835,4.885249587171835,4.885249587171835,4.885249587171835,4.885249587171835,4.885249587171835,4.885249587171835,4.885249587171835,4.885249587171835,4.885249587171835,4.885249587171835,4.885249587171835,4.885249587171835,4.885249587171835,4.885249587171835,4.885249587171835,4.885249587171835,4.885249587171835,4.885249587171835,4.885249587171835,4.885249587171835,4.885249587171835,4.885249587171835,4.885249587171835,4.885249587171835,4.885249587171835,4.885249587171835,4.885249587171835,4.885249587171835,4.885249587171835,4.885249587171835,4.885249587171835,4.885249587171835,4.885249587171835,4.885249587171835,4.885249587171835,4.885249587171835,4.885249587171835,4.885249587171835,4.885249587171835,4.885249587171835,4.885249587171835,4.885249587171835,4.885249587171835,4.885249587171835,4.885249587171835,4.885249587171835,4.885249587171835,4.885249587171835,4.885249587171835,4.885249587171835,4.885249587171835,4.885249587171835,4.885249587171835,4.885249587171835,4.885249587171835,4.885249587171835,4.885249587171835,4.885249587171835,4.885249587171835,4.885249587171835,4.885249587171835,4.885249587171835,4.885249587171835,4.885249587171835,4.885249587171835,4.885249587171835,4.885249587171835,4.885249587171835,4.885249587171835,4.885249587171835,4.885249587171835,4.885249587171835,4.885249587171835,4.885249587171835,4.885249587171835,4.885249587171835,4.885249587171835,4.885249587171835,4.885249587171835,4.885249587171835,4.885249587171835,4.885249587171835,4.885249587171835,4.885249587171835,4.885249587171835,4.885249587171835,4.885249587171835,4.885249587171835,4.885249587171835,4.885249587171835,4.885249587171835,4.885249587171835,4.885249587171835,4.885249587171835,4.885249587171835,4.885249587171835,4.885249587171835,4.885249587171835,4.885249587171835,4.885249587171835,4.885249587171835,4.885249587171835,4.885249587171835,4.885249587171835,4.885249587171835,4.885249587171835,4.885249587171835,4.885249587171835,4.885249587171835,4.885249587171835,4.885249587171835,4.885249587171835,4.885249587171835,4.885249587171835,4.885249587171835,4.885249587171835,4.885249587171835,4.885249587171835,4.885249587171835,4.885249587171835,4.885249587171835,4.885249587171835,4.885249587171835,4.885249587171835,4.885249587171835,4.885249587171835,4.885249587171835,4.885249587171835,4.885249587171835,4.885249587171835,4.885249587171835,4.885249587171835,4.885249587171835,4.885249587171835,4.885249587171835,4.885249587171835,4.885249587171835,4.885249587171835,4.885249587171835,4.885249587171835,4.885249587171835,4.885249587171835,4.885249587171835,4.885249587171835,4.885249587171835,4.885249587171835,4.885249587171835,4.885249587171835,4.885249587171835,4.885249587171835,4.885249587171835,4.885249587171835,4.885249587171835,4.885249587171835,4.885249587171835,4.885249587171835,4.885249587171835,4.885249587171835,4.885249587171835,4.885249587171835,4.885249587171835,4.885249587171835,4.885249587171835,4.885249587171835,4.885249587171835,4.885249587171835,4.885249587171835,4.885249587171835,4.885249587171835,4.885249587171835,4.885249587171835,4.885249587171835,4.885249587171835,4.885249587171835,4.885249587171835,4.885249587171835,4.885249587171835,4.885249587171835,4.885249587171835,4.885249587171835,4.885249587171835,4.885249587171835,4.885249587171835,4.885249587171835,4.885249587171835,4.885249587171835,4.885249587171835,4.885249587171835,4.885249587171835,4.885249587171835,4.885249587171835,4.885249587171835,4.885249587171835,4.885249587171835,4.885249587171835,4.885249587171835,4.885249587171835,4.885249587171835,4.885249587171835,4.885249587171835,4.885249587171835,4.885249587171835,4.885249587171835,4.885249587171835,4.885249587171835,4.885249587171835,4.885249587171835,4.885249587171835,4.885249587171835,4.885249587171835,4.885249587171835,4.885249587171835,4.885249587171835,4.885249587171835,4.885249587171835,4.885249587171835,4.885249587171835,4.885249587171835,4.885249587171835,4.885249587171835,4.885249587171835,4.885249587171835,4.885249587171835,4.885249587171835,4.885249587171835,4.885249587171835,4.885249587171835,4.885249587171835,4.885249587171835,4.885249587171835,4.885249587171835,4.885249587171835,4.885249587171835,4.885249587171835,4.885249587171835,4.885249587171835,4.885249587171835,4.885249587171835,4.885249587171835,4.885249587171835,4.885249587171835,4.885249587171835,4.885249587171835,4.885249587171835,4.885249587171835,4.885249587171835,4.885249587171835,4.885249587171835,4.885249587171835,4.885249587171835,4.885249587171835,4.885249587171835,4.885249587171835,4.885249587171835,4.885249587171835,4.885249587171835,4.885249587171835,4.885249587171835,4.885249587171835,4.885249587171835,4.885249587171835,4.885249587171835,4.885249587171835,4.885249587171835,4.885249587171835,4.885249587171835,4.885249587171835,4.885249587171835,4.885249587171835,4.885249587171835,4.885249587171835,4.885249587171835,4.885249587171835,4.885249587171835,4.885249587171835,4.885249587171835,4.885249587171835,4.885249587171835,4.885249587171835,4.885249587171835,4.885249587171835,4.885249587171835,4.885249587171835,4.885249587171835,4.885249587171835,4.885249587171835,4.885249587171835,4.885249587171835,4.885249587171835,4.885249587171835,4.885249587171835,4.885249587171835,4.885249587171835,4.885249587171835,4.885249587171835,4.885249587171835,4.885249587171835,4.885249587171835,4.885249587171835,4.885249587171835,4.885249587171835,4.885249587171835,4.885249587171835,4.885249587171835,4.885249587171835,4.885249587171835,4.885249587171835,4.885249587171835,4.885249587171835,4.885249587171835,4.885249587171835,4.885249587171835,4.885249587171835,4.885249587171835,4.885249587171835,4.885249587171835,4.885249587171835,4.885249587171835,4.885249587171835,4.885249587171835,4.885249587171835,4.885249587171835,4.885249587171835,4.885249587171835,4.885249587171835,4.885249587171835,4.885249587171835,4.885249587171835,4.885249587171835,4.885249587171835,4.885249587171835,4.885249587171835,4.885249587171835,4.885249587171835,4.885249587171835,4.885249587171835,4.885249587171835,4.885249587171835,4.885249587171835,4.885249587171835,4.885249587171835,4.885249587171835,4.885249587171835,4.885249587171835,4.885249587171835,4.885249587171835,4.885249587171835,4.885249587171835,4.885249587171835,4.885249587171835,4.885249587171835,4.885249587171835,4.885249587171835,4.885249587171835,4.885249587171835,4.885249587171835,4.885249587171835,4.885249587171835,4.885249587171835,4.885249587171835,4.885249587171835,4.885249587171835,4.885249587171835,4.885249587171835,4.885249587171835,4.885249587171835,4.885249587171835,4.885249587171835,4.885249587171835,4.885249587171835,4.885249587171835,4.885249587171835,4.885249587171835,4.885249587171835,4.885249587171835,4.885249587171835,4.885249587171835,4.885249587171835,4.885249587171835,4.885249587171835,4.885249587171835,4.885249587171835,4.885249587171835,4.885249587171835,4.885249587171835,4.885249587171835,4.885249587171835,4.885249587171835,4.885249587171835,4.885249587171835,4.885249587171835,4.885249587171835,4.885249587171835,4.885249587171835,4.885249587171835,4.885249587171835,4.885249587171835,4.885249587171835,4.885249587171835,4.885249587171835,4.885249587171835,4.885249587171835,4.885249587171835,4.885249587171835,4.885249587171835,4.885249587171835,4.885249587171835,4.885249587171835,4.885249587171835,4.885249587171835,4.885249587171835,4.885249587171835,4.885249587171835,4.885249587171835,4.885249587171835,4.885249587171835,4.885249587171835,4.885249587171835,4.885249587171835,4.885249587171835,4.885249587171835,4.885249587171835,4.885249587171835,4.885249587171835,4.885249587171835,4.885249587171835,4.885249587171835,4.885249587171835,4.885249587171835,4.885249587171835,4.885249587171835,4.885249587171835,4.885249587171835,4.885249587171835,4.885249587171835,4.885249587171835,4.885249587171835,4.885249587171835,4.885249587171835,4.885249587171835,4.885249587171835,4.885249587171835,4.885249587171835,4.885249587171835,4.885249587171835,4.885249587171835,4.885249587171835,4.885249587171835,4.885249587171835,4.885249587171835,4.885249587171835,4.885249587171835,4.885249587171835,4.885249587171835,4.885249587171835,4.885249587171835,4.885249587171835,4.885249587171835,4.885249587171835,4.885249587171835,4.885249587171835,4.885249587171835,4.885249587171835,4.885249587171835,4.885249587171835,4.885249587171835,4.885249587171835,4.885249587171835,4.885249587171835,4.885249587171835,4.885249587171835,4.885249587171835,4.885249587171835,4.885249587171835,4.885249587171835,4.885249587171835,4.885249587171835,4.885249587171835,4.885249587171835,4.885249587171835,4.885249587171835,4.885249587171835,4.885249587171835,4.885249587171835,4.885249587171835,4.885249587171835,4.885249587171835,4.885249587171835,4.885249587171835,4.885249587171835,4.885249587171835,4.885249587171835,4.885249587171835,4.885249587171835,4.885249587171835,4.885249587171835,4.885249587171835,4.885249587171835,4.885249587171835,4.885249587171835,4.885249587171835,4.885249587171835,4.885249587171835,4.885249587171835,4.885249587171835,4.885249587171835,4.885249587171835,4.885249587171835,4.885249587171835,4.885249587171835,4.885249587171835,4.885249587171835,4.885249587171835,4.885249587171835,4.885249587171835,4.885249587171835,4.885249587171835,4.885249587171835,4.885249587171835,4.885249587171835,4.885249587171835,4.885249587171835,4.885249587171835,4.885249587171835,4.885249587171835,4.885249587171835,4.885249587171835,4.885249587171835,4.885249587171835,4.885249587171835,4.885249587171835,4.885249587171835,4.885249587171835,4.885249587171835,4.885249587171835,4.885249587171835,4.885249587171835,4.885249587171835,4.885249587171835,4.885249587171835,4.885249587171835,4.885249587171835,4.885249587171835,4.885249587171835,4.885249587171835,4.885249587171835,4.885249587171835,4.885249587171835,4.885249587171835,4.885249587171835,4.885249587171835,4.885249587171835,4.885249587171835,4.885249587171835,4.885249587171835,4.885249587171835,4.885249587171835,4.885249587171835,4.885249587171835,4.885249587171835,4.885249587171835,4.885249587171835,4.885249587171835,4.885249587171835,4.885249587171835,4.885249587171835,4.885249587171835,4.885249587171835,4.885249587171835,4.885249587171835,4.885249587171835,4.885249587171835,4.885249587171835,4.885249587171835,4.885249587171835,4.885249587171835,4.885249587171835,4.885249587171835,4.885249587171835,4.885249587171835,4.885249587171835,4.885249587171835,4.885249587171835,4.885249587171835,4.885249587171835,4.885249587171835,4.885249587171835,4.885249587171835,4.885249587171835,4.885249587171835,4.885249587171835,4.885249587171835,4.885249587171835,4.885249587171835,4.885249587171835,4.885249587171835,4.885249587171835,4.885249587171835,4.885249587171835,4.885249587171835,4.885249587171835,4.885249587171835,4.885249587171835,4.885249587171835,4.885249587171835,4.885249587171835,4.885249587171835,4.885249587171835,4.885249587171835,4.885249587171835,4.885249587171835,4.885249587171835,4.885249587171835,4.885249587171835,4.885249587171835,4.885249587171835,4.885249587171835,4.885249587171835,4.885249587171835,4.885249587171835,4.885249587171835,4.885249587171835,4.885249587171835,4.885249587171835,4.885249587171835,4.885249587171835,4.885249587171835,4.885249587171835,4.885249587171835,4.885249587171835,4.885249587171835,4.885249587171835,4.885249587171835,4.885249587171835,4.885249587171835,4.885249587171835,4.885249587171835,4.885249587171835,4.885249587171835,4.885249587171835,4.885249587171835,4.885249587171835,4.885249587171835,4.885249587171835,4.885249587171835,4.885249587171835,4.885249587171835,4.885249587171835,4.885249587171835,4.885249587171835,4.885249587171835,4.885249587171835,4.885249587171835,4.885249587171835,4.885249587171835,4.885249587171835,4.885249587171835,4.885249587171835,4.885249587171835,4.885249587171835,4.885249587171835,4.885249587171835,4.885249587171835,4.885249587171835,4.885249587171835,4.885249587171835,4.885249587171835,4.885249587171835,4.885249587171835,4.885249587171835,4.885249587171835,4.885249587171835,4.885249587171835,4.885249587171835,4.885249587171835,4.885249587171835,4.885249587171835,4.885249587171835,4.885249587171835,4.885249587171835,4.885249587171835,4.885249587171835,4.885249587171835,4.885249587171835,4.885249587171835,4.885249587171835,4.885249587171835,4.885249587171835,4.885249587171835,4.885249587171835,4.885249587171835,4.885249587171835,4.885249587171835,4.885249587171835,4.885249587171835,4.885249587171835,4.885249587171835,4.885249587171835,4.885249587171835,4.885249587171835,4.885249587171835,4.885249587171835,4.885249587171835,4.885249587171835,4.885249587171835,4.885249587171835,4.885249587171835,4.885249587171835,4.885249587171835,4.885249587171835,4.885249587171835,4.885249587171835,4.885249587171835,4.885249587171835,4.885249587171835,4.885249587171835,4.885249587171835,4.885249587171835,4.885249587171835,4.885249587171835,4.885249587171835,4.885249587171835,4.885249587171835,4.885249587171835,4.885249587171835,4.885249587171835,4.885249587171835,4.885249587171835,4.885249587171835,4.885249587171835,4.885249587171835,4.885249587171835,4.885249587171835,4.885249587171835,4.885249587171835,4.885249587171835,4.885249587171835,4.885249587171835,4.885249587171835,4.885249587171835,4.885249587171835,4.885249587171835,4.885249587171835,4.885249587171835,4.885249587171835,4.885249587171835,4.885249587171835,4.885249587171835,4.885249587171835,4.885249587171835,4.885249587171835,4.885249587171835,4.885249587171835,4.885249587171835,4.885249587171835,4.885249587171835,4.885249587171835,4.885249587171835,4.885249587171835,4.885249587171835,4.885249587171835,4.885249587171835,4.885249587171835,4.885249587171835,4.885249587171835,4.885249587171835,4.885249587171835,4.885249587171835,4.885249587171835,4.885249587171835,4.885249587171835,4.885249587171835,4.885249587171835,4.885249587171835,4.885249587171835,4.885249587171835,4.885249587171835,4.885249587171835,4.885249587171835,4.885249587171835,4.885249587171835,4.885249587171835,4.885249587171835,4.885249587171835,4.885249587171835,4.885249587171835,4.885249587171835,4.885249587171835,4.885249587171835,4.885249587171835,4.885249587171835,4.885249587171835,4.885249587171835,4.885249587171835,4.885249587171835,4.885249587171835,4.885249587171835,4.885249587171835,4.885249587171835,4.885249587171835,4.885249587171835,4.885249587171835,4.885249587171835,4.885249587171835,4.885249587171835,4.885249587171835,4.885249587171835,4.885249587171835,4.885249587171835,4.885249587171835,4.885249587171835,4.885249587171835,4.885249587171835,4.885249587171835,4.885249587171835,4.885249587171835,4.885249587171835,4.885249587171835,4.885249587171835,4.885249587171835,4.885249587171835,4.885249587171835,4.885249587171835,4.885249587171835,4.885249587171835,4.885249587171835,4.885249587171835,4.885249587171835,4.885249587171835,4.885249587171835,4.885249587171835,4.885249587171835,4.885249587171835,4.885249587171835,4.885249587171835,4.885249587171835,4.885249587171835,4.885249587171835,4.885249587171835,4.885249587171835,4.885249587171835,4.885249587171835,4.885249587171835,4.885249587171835,4.885249587171835,4.885249587171835,4.885249587171835,4.885249587171835,4.885249587171835,4.885249587171835,4.885249587171835,4.885249587171835,4.885249587171835,4.885249587171835,4.885249587171835,4.885249587171835,4.885249587171835,4.885249587171835,4.885249587171835,4.885249587171835,4.885249587171835,4.885249587171835,4.885249587171835,4.885249587171835,4.885249587171835,4.885249587171835,4.885249587171835,4.885249587171835,4.885249587171835,4.885249587171835,4.885249587171835,4.885249587171835,4.885249587171835,4.885249587171835,4.885249587171835,4.885249587171835,4.885249587171835,4.885249587171835,4.885249587171835,4.885249587171835,4.885249587171835,4.885249587171835,4.885249587171835,4.885249587171835,4.885249587171835,4.885249587171835,4.885249587171835,4.885249587171835,4.885249587171835,4.885249587171835,4.885249587171835,4.885249587171835,4.885249587171835,4.885249587171835,4.885249587171835,4.885249587171835,4.885249587171835,4.885249587171835,4.885249587171835,4.885249587171835,4.885249587171835,4.885249587171835,4.885249587171835,4.885249587171835,4.885249587171835,4.885249587171835,4.885249587171835,4.885249587171835,4.885249587171835,4.885249587171835,4.885249587171835,4.885249587171835,4.885249587171835,4.885249587171835,4.885249587171835,4.885249587171835,4.885249587171835,4.885249587171835,4.885249587171835,4.885249587171835,4.885249587171835,4.885249587171835,4.885249587171835,4.885249587171835,4.885249587171835,4.885249587171835,4.885249587171835,4.885249587171835,4.885249587171835,4.885249587171835,4.885249587171835,4.885249587171835,4.885249587171835,4.885249587171835,4.885249587171835,4.885249587171835,4.885249587171835,4.885249587171835,4.885249587171835,4.885249587171835,4.885249587171835,4.885249587171835,4.885249587171835,4.885249587171835,4.885249587171835,4.885249587171835,4.885249587171835,4.885249587171835,4.885249587171835,4.885249587171835,4.885249587171835,4.885249587171835,4.885249587171835,4.885249587171835,4.885249587171835,4.885249587171835,4.885249587171835,4.885249587171835,4.885249587171835,4.885249587171835,4.885249587171835,4.885249587171835,4.885249587171835,4.885249587171835,4.885249587171835,4.885249587171835,4.885249587171835,4.885249587171835,4.885249587171835,4.885249587171835,4.885249587171835,4.885249587171835,4.885249587171835,4.885249587171835,4.885249587171835,4.885249587171835,4.885249587171835,4.885249587171835,4.885249587171835,4.885249587171835,4.885249587171835,4.885249587171835,4.885249587171835,4.885249587171835,4.885249587171835,4.885249587171835,4.885249587171835,4.885249587171835,4.885249587171835,4.885249587171835,4.885249587171835,4.885249587171835,4.885249587171835,4.885249587171835,4.885249587171835,4.885249587171835,4.885249587171835,4.885249587171835,4.885249587171835,4.885249587171835,4.885249587171835,4.885249587171835,4.885249587171835,4.885249587171835,4.885249587171835,4.885249587171835,4.885249587171835,4.885249587171835,4.885249587171835,4.885249587171835,4.885249587171835,4.885249587171835,4.885249587171835,4.885249587171835,4.885249587171835,4.885249587171835,4.885249587171835,4.885249587171835,4.885249587171835,4.885249587171835,4.885249587171835,4.885249587171835,4.885249587171835,4.885249587171835,4.885249587171835,4.885249587171835,4.885249587171835,4.885249587171835,4.885249587171835,4.885249587171835,4.885249587171835,4.885249587171835,4.885249587171835,4.885249587171835,4.885249587171835,4.885249587171835,4.885249587171835,4.885249587171835,4.885249587171835,4.885249587171835,4.885249587171835,4.885249587171835,4.885249587171835,4.885249587171835,4.885249587171835,4.885249587171835,4.885249587171835,4.885249587171835,4.885249587171835,4.885249587171835,4.885249587171835,4.885249587171835,4.885249587171835,4.885249587171835,4.885249587171835,4.885249587171835,4.885249587171835,4.885249587171835,4.885249587171835,4.885249587171835,4.885249587171835,4.885249587171835,4.885249587171835,4.885249587171835,4.885249587171835,4.885249587171835,4.885249587171835,4.885249587171835,4.885249587171835,4.885249587171835,4.885249587171835,4.885249587171835,4.885249587171835,4.885249587171835,4.885249587171835,4.885249587171835,4.885249587171835,4.885249587171835,4.885249587171835,4.885249587171835,4.885249587171835,4.885249587171835,4.885249587171835,4.885249587171835,4.885249587171835,4.885249587171835,4.885249587171835,4.885249587171835,4.885249587171835,4.885249587171835,4.885249587171835,4.885249587171835,4.885249587171835,4.885249587171835,4.885249587171835,4.885249587171835,4.885249587171835,4.885249587171835,4.885249587171835,4.885249587171835,4.885249587171835,4.885249587171835,4.885249587171835,4.885249587171835,4.885249587171835,4.885249587171835,4.885249587171835,4.885249587171835,4.885249587171835,4.885249587171835,4.885249587171835,4.885249587171835,4.885249587171835,4.885249587171835,4.885249587171835,4.885249587171835,4.885249587171835,4.885249587171835,4.885249587171835,4.885249587171835,4.885249587171835,4.885249587171835,4.885249587171835,4.885249587171835,4.885249587171835,4.885249587171835,4.885249587171835,4.885249587171835,4.885249587171835,4.885249587171835,4.885249587171835,4.885249587171835,4.885249587171835,4.885249587171835,4.885249587171835,4.885249587171835,4.885249587171835,4.885249587171835,4.885249587171835,4.885249587171835,4.885249587171835,4.885249587171835,4.885249587171835,4.885249587171835,4.885249587171835,4.885249587171835,4.885249587171835,4.885249587171835,4.885249587171835,4.885249587171835,4.885249587171835,4.885249587171835,4.885249587171835,4.885249587171835,4.885249587171835,4.885249587171835,4.885249587171835,4.885249587171835,4.885249587171835,4.885249587171835,4.885249587171835,4.885249587171835,4.885249587171835,4.885249587171835,4.885249587171835,4.885249587171835,4.885249587171835,4.885249587171835,4.885249587171835,4.885249587171835,4.885249587171835,4.885249587171835,4.885249587171835,4.885249587171835,4.885249587171835,4.885249587171835,4.885249587171835,4.885249587171835,4.885249587171835,4.885249587171835,4.885249587171835,4.885249587171835,4.8852495