[{"nsides":6,"instructions":"Let's define a new operation <img src=./images/hexagon_symbol.png style=width:14px;height:14px>. This operation will give us a way of combining two of the numbers 0, 1, 2, 3, 4, 5 to get another one of them back. Consider the hexagon at the right, where I've labeled each point with one of the numbers. To perform <img src=./images/hexagon_symbol.png style=width:14px;height:14px>, you can use the interactive diagram on the right, or perform the operation in your mind. Point the arrow at the first number on the hexagon by clicking, then click (or click and drag) to move the arrow the second number of points clockwise around the hexagon. The number the arrow arrives at is your result. (The operation is called <img src=./images/hexagon_symbol.png style=width:14px;height:14px> because it uses the hexagon, which has 6 sides.) <br /><br />For example, 3 <img src=./images/hexagon_symbol.png style=width:14px;height:14px> 5 =  2, becau se 5 steps clockwise from 3 on the hexagon brings us to 2. So 3 <img src=./images/hexagon_symbol.png style=width:14px;height:14px> 5 = 2.<br /><br />Similarly, 1 <img src=./images/hexagon_symbol.png style=width:14px;height:14px> 4 = 5, because 4 steps clockwise from 1 brings us to 5. <br /><br />Click Continue when you're ready to move on.","orientation_history":[0,[1.0934509444212246,1.0934509444212246,1.0934509444212246,1.0934509444212246,1.0934509444212246,1.0934509444212246,1.0934509444212246,1.0934509444212246,1.0934509444212246,1.0934509444212246,1.0934509444212246,1.0934509444212246,1.0934509444212246,1.0934509444212246,1.0934509444212246,1.0934509444212246,1.0934509444212246,1.0471975511965976],[2.1753949168883735,2.1753949168883735,2.1753949168883735,2.1753949168883735,2.1753949168883735,2.1753949168883735,2.1753949168883735,2.1753949168883735,2.0943951023931953],[3.088072385130478,3.088072385130478,3.088072385130478,3.088072385130478,3.088072385130478,3.088072385130478,3.088072385130478,3.088072385130478,3.088072385130478,3.088072385130478,3.088072385130478,3.088072385130478,3.088072385130478,3.141592653589793],[4.201439403888079,4.194901239410582,4.194901239410582,4.194901239410582,4.194901239410582,4.194901239410582,4.194901239410582,4.194901239410582,4.194901239410582,4.1887902047863905],[5.137593999364308,5.137593999364308,5.137593999364308,5.137593999364308,5.137593999364308,5.137593999364308,5.137593999364308,5.137593999364308,5.137593999364308,5.137593999364308,5.137593999364308,5.144796755955227,5.144796755955227,5.144796755955227,5.235987755982988],[6.1387437288049425,6.1387437288049425,6.1387437288049425,6.1387437288049425,6.1387437288049425,6.1387437288049425,6.1387437288049425,6.156593179899614,6.156593179899614,6.283185307179586]],"rt":82798,"trial_type":"polygon-arrow-instructions","trial_index":0,"trial_index_global":1,"time_elapsed":87992,"internal_chunk_id":"0-0"},{"nsides":6,"instructions":"Do you see how  <img sr c=./images/hexagon_symbol.png style=width:14px;height:14px> works? By labeling the points of the hexagon with the numbers from 0 to 5, we ensure that when we combine two numbers under <img src=./images/hexagon_symbol.png style=width:14px;height:14px>, we only produce numbers between 0 and 5.<br /><br />Click Continue when you are ready to move on.","orientation_history":[0],"rt":8351,"trial_type":"polygon-arrow-instructions","trial_index":0,"trial_index_global":2,"time_elapsed":96346,"internal_chunk_id":"0-0"},{"nsides":6,"question":"Now try one on your own! What is 4 <img src=./images/hexagon_symbol.png style=width:14px;height:14px> 5? <br /><br /> (Remember, to perform <img src=./images/hexagon_symbol.png style=width:14px;height:14px>, you can use the interactive diagram on the right, or perform the operation in your mind. Point the arrow at the first number on the hexagon, then move the arrow the second number of points clockwise around  the hex agon. The number the arrow arrives at is your result.)","response_type":"free","response_choices":[],"correct_response":"3","response":"3","orientation_history":[[0],[4.128753161307529,4.128753161307529,4.128753161307529,4.128753161307529,4.128753161307529,4.128753161307529,4.128753161307529,4.128753161307529,4.128753161307529,4.1887902047863905],[5.262242163061274,5.262242163061274,5.262242163061274,5.262242163061274,5.262242163061274,5.262242163061274,5.262242163061274,5.262242163061274,5.262242163061274,5.262242163061274,5.262242163061274,5.235987755982988],[0.09232933473159899,0.09232933473159899,0.09232933473159899,0.09232933473159899,0.09232933473159899,0.09232933473159899,0.09232933473159899,0.09232933473159899,0],[0.933725997519213,0.933725997519213,0.933725997519213,0.933725997519213,0.933725997519213,0.933725997519213,0.933725997519213,1.0471975511965976],[1.9962459641649388,1.9962459641649388,1.9962459641649388,1.9962459641649388,1.9962459641649388,1.9962459641649388,1.9962459641649388,2.0943951023931953],[3.252249874763689,3.252249874763689,3.252249874763689,3.252249874763689,3.252249874763689,3.252249874763689,3.252249874763689,3.252249874763689,3.252249874763689,3.252249874763689,3.141592653589793]],"response_history":["3"],"rt":18741,"trial_type":"polygon-arrow-question","trial_index":0,"trial_index_global":3,"time_elapsed":115089,"internal_chunk_id":"0-0.3-0"},{"nsides":6,"feedback":"Correct! 4 <img src=./images/hexagon_symbol.png style=width:14px;height:14px> 5 = 3 because 5 steps clockwise on the hexagon from 4 brings us to 3","orientation_history":[0],"rt":6974,"trial_type":"polygon-arrow-feedback","trial_index":0,"trial_index_global":4,"time_elapsed":122064,"internal_chunk_id":"0-0.3-0"},{"nsides":6,"question":"What is 3 <img src=./images/hexagon_symbol.png style=width:14px;height:14px> 2? <br /><br /> (Remember, to perform <img src=./images/hexagon_symbol.png style=width:14px;height:14px>, you can use the in teractiv e diagram on the right, or perform the operation in your mind. Point the arrow at the first number on the hexagon, then move the arrow the second number of points clockwise around the hexagon. The number the arrow arrives at is your result.)","response_type":"free","response_choices":[],"correct_response":"5","response":"5","orientation_history":[[0],[3.085049216644976,3.085049216644976,3.085049216644976,3.085049216644976,3.085049216644976,3.085049216644976,3.085049216644976,3.085049216644976,3.085049216644976,3.141592653589793],[4.162003032707899,4.162003032707899,4.162003032707899,4.162003032707899,4.162003032707899,4.162003032707899,4.162003032707899,4.162003032707899,4.162003032707899,4.1887902047863905],[5.229084119146966,5.229084119146966,5.229084119146966,5.229084119146966,5.229084119146966,5.229084119146966,5.229084119146966,5.229084119146966,5.229084119146966,5.235987755982988]],"response_history":["5"],"rt":12015,"trial_type":"polygon-arrow-question","trial_index":0,"trial_index_global":5,"time_elapsed":134079,"internal_chunk_id":"0-0.3-0"},{"nsides":6,"feedback":"Correct! 3 <img src=./images/hexagon_symbol.png style=width:14px;height:14px> 2 = 5 because 2 steps clockwise on the hexagon from 3 brings us to 5","orientation_history":[0],"rt":1600,"trial_type":"polygon-arrow-feedback","trial_index":0,"trial_index_global":6,"time_elapsed":135680,"internal_chunk_id":"0-0.3-0"},{"nsides":6,"question":"What is 1 <img src=./images/hexagon_symbol.png style=width:14px;height:14px> 5? <br /><br /> (Remember, to perform <img src=./images/hexagon_symbol.png style=width:14px;height:14px>, you can use the interactive diagram on the right, or perform the operation in your mind. Point the arrow at the first number on the hexagon, then move the arrow the second number of points clockwise around the hexagon. The number the arrow arrives at is your result.)","response_type":"free","response_choices":[],"correct_response":"0","response":"0 ","orientation_history":[[0],[1.0232340908548991,1.0232340908548991,1.0232340908548991,1.0232340908548991,1.0232340908548991,1.0232340908548991,1.0232340908548991,1.0232340908548991,1.0232340908548991,1.0471975511965976],[2.1112158270654806,2.1112158270654806,2.1112158270654806,2.1112158270654806,2.1112158270654806,2.1112158270654806,2.1112158270654806,2.0943951023931953],[3.0727361642887487,3.0727361642887487,3.0727361642887487,3.0727361642887487,3.0727361642887487,3.0727361642887487,3.0727361642887487,3.0727361642887487,3.0727361642887487,3.141592653589793],[3.807561890968903,3.807561890968903,3.807561890968903,3.807561890968903,3.807561890968903,3.807561890968903,3.807561890968903,3.807561890968903,4.1887902047863905],[5.2194874847770265,5.236308328069889,5.236308328069889,5.236308328069889,5.236308328069889,5.236308328069889,5.236308328069889,5.236308328069889,5.235987755982988],[6.1361069517911835,6.1361069517911835,6.1361069517911835,6.1361069517911835,6.1361069517911835,6.1361069517911835,6.1361069517911835,6.1361069517911835,6.1361069517911835,6.283185307179586]],"response_history":["0"],"rt":8671,"trial_type":"polygon-arrow-question","trial_index":0,"trial_index_global":7,"time_elapsed":144351,"internal_chunk_id":"0-0.3-0"},{"nsides":6,"feedback":"Correct! 1 <img src=./images/hexagon_symbol.png style=width:14px;height:14px> 5 = 0 because 5 steps clockwise on the hexagon from 1 brings us to 0","orientation_history":[0],"rt":1384,"trial_type":"polygon-arrow-feedback","trial_index":0,"trial_index_global":8,"time_elapsed":145736,"internal_chunk_id":"0-0.3-0"},{"nsides":6,"question":"What is 1 <img src=./images/hexagon_symbol.png style=width:14px;height:14px> 1? <br /><br /> (Remember, to perform <img src=./images/hexagon_symbol.png style=width:14px;height:14px>, you can use the interactive diagram on the right, or perform the operation in your mind. Point the arrow at the first number on the hexagon, then move the arrow the second  number o f points clockwise around the hexagon. The number the arrow arrives at is your result.)","response_type":"free","response_choices":[],"correct_response":"2","response":"2","orientation_history":[[0],[1.049361887023153,1.049361887023153,1.049361887023153,1.049361887023153,1.049361887023153,1.049361887023153,1.049361887023153,1.049361887023153,1.049361887023153,1.0471975511965976]],"response_history":["2"],"rt":4518,"trial_type":"polygon-arrow-question","trial_index":0,"trial_index_global":9,"time_elapsed":150255,"internal_chunk_id":"0-0.3-0"},{"nsides":6,"feedback":"Correct! 1 <img src=./images/hexagon_symbol.png style=width:14px;height:14px> 1 = 2 because 1 step clockwise on the hexagon from 1 brings us to 2","orientation_history":[0],"rt":2028,"trial_type":"polygon-arrow-feedback","trial_index":0,"trial_index_global":10,"time_elapsed":152285,"internal_chunk_id":"0-0.3-0"},{"nsides":6,"question":"What is 3 <img src=./images/hexagon_symbol.png style=width:14px;h eight:14 px> 0? <br /><br /> (Remember, to perform <img src=./images/hexagon_symbol.png style=width:14px;height:14px>, you can use the interactive diagram on the right, or perform the operation in your mind. Point the arrow at the first number on the hexagon, then move the arrow the second number of points clockwise around the hexagon. The number the arrow arrives at is your result.)","response_type":"free","response_choices":[],"correct_response":"3","response":"3","orientation_history":[[0]],"response_history":["3"],"rt":5467,"trial_type":"polygon-arrow-question","trial_index":0,"trial_index_global":11,"time_elapsed":157753,"internal_chunk_id":"0-0.3-0"},{"nsides":6,"feedback":"Correct! 3 <img src=./images/hexagon_symbol.png style=width:14px;height:14px> 0 = 3 because 0 steps clockwise on the hexagon from 3 brings us to 3","orientation_history":[0],"rt":1156,"trial_type":"polygon-arrow-feedback","trial_index":0,"trial_index_global":12,"time_elapsed":158911,"internal_chunk_id":"0-0.3-0"},{"nsides":6,"question":"What is 4 <img src=./images/hexagon_symbol.png style=width:14px;height:14px> 4? <br /><br /> (Remember, to perform <img src=./images/hexagon_symbol.png style=width:14px;height:14px>, you can use the interactive diagram on the right, or perform the operation in your mind. Point the arrow at the first number on the hexagon, then move the arrow the second number of points clockwise around the hexagon. The number the arrow arrives at is your result.)","response_type":"free","response_choices":[],"correct_response":"2","response":"2","orientation_history":[[0],[5.22361969266248,5.22361969266248,5.22361969266248,5.22361969266248,5.22361969266248,5.22361969266248,5.22361969266248,5.22361969266248,5.22361969266248,5.235987755982988],[6.1745240913389985,6.1745240913389985,6.1745240913389985,6.1745240913389985,6.1745240913389985,6.1745240913389985,6.1745240913389985,6.283185307179586],[0.8760580505981934,0.8760580505981934,0.8760580505981934,0.8760580505981934,0.8760580505981934,0.8760580505981934,0.8760580505981934,0.8760580505981934,1.0471975511965976],[2.0763773816691016,2.0899424410414196,2.0899424410414196,2.0899424410414196,2.0899424410414196,2.0899424410414196,2.0899424410414196,2.0943951023931953]],"response_history":["2"],"rt":8503,"trial_type":"polygon-arrow-question","trial_index":0,"trial_index_global":13,"time_elapsed":167415,"internal_chunk_id":"0-0.3-0"},{"nsides":6,"feedback":"Correct! 4 <img src=./images/hexagon_symbol.png style=width:14px;height:14px> 4 = 2 because 4 steps clockwise on the hexagon from 4 brings us to 2","orientation_history":[0],"rt":1551,"trial_type":"polygon-arrow-feedback","trial_index":0,"trial_index_global":14,"time_elapsed":168968,"internal_chunk_id":"0-0.3-0"},{"nsides":6,"question":"What is 1 <img src=./images/hexagon_symbol.png style=width:14px;height:14px> 3? <br /><br /> (Remember, to perform <img src=./images/hexagon_symbol.png style=width :14px;he ight:14px>, you can use the interactive diagram on the right, or perform the operation in your mind. Point the arrow at the first number on the hexagon, then move the arrow the second number of points clockwise around the hexagon. The number the arrow arrives at is your result.)","response_type":"free","response_choices":[],"correct_response":"4","response":"4","orientation_history":[[0],[1.2793395323170293,1.2793395323170293,1.2793395323170293,1.2793395323170293,1.2793395323170293,1.2793395323170293,1.2793395323170293,1.2793395323170293,1.2793395323170293,1.0471975511965976]],"response_history":["4\n","4"],"rt":10935,"trial_type":"polygon-arrow-question","trial_index":0,"trial_index_global":15,"time_elapsed":179904,"internal_chunk_id":"0-0.3-0"},{"nsides":6,"feedback":"Correct! 1 <img src=./images/hexagon_symbol.png style=width:14px;height:14px> 3 = 4 because 3 steps clockwise on the hexagon from 1 brings us to 4","orientation_history":[0],"rt":1279,"trial_type":" polygon- arrow-feedback","trial_index":0,"trial_index_global":16,"time_elapsed":181184,"internal_chunk_id":"0-0.3-0"},{"nsides":6,"question":"What is 4 <img src=./images/hexagon_symbol.png style=width:14px;height:14px> 3? <br /><br /> (Remember, to perform <img src=./images/hexagon_symbol.png style=width:14px;height:14px>, you can use the interactive diagram on the right, or perform the operation in your mind. Point the arrow at the first number on the hexagon, then move the arrow the second number of points clockwise around the hexagon. The number the arrow arrives at is your result.)","response_type":"free","response_choices":[],"correct_response":"1","response":"1","orientation_history":[[0]],"response_history":["1"],"rt":6507,"trial_type":"polygon-arrow-question","trial_index":0,"trial_index_global":17,"time_elapsed":187693,"internal_chunk_id":"0-0.3-0"},{"nsides":6,"feedback":"Correct! 4 <img src=./images/hexagon_symbol.png style=width:14px;height:14px> 3  = 1 bec ause 3 steps clockwise on the hexagon from 4 brings us to 1","orientation_history":[0],"rt":1588,"trial_type":"polygon-arrow-feedback","trial_index":0,"trial_index_global":18,"time_elapsed":189283,"internal_chunk_id":"0-0.3-0"},{"nsides":6,"question":"What is 0 <img src=./images/hexagon_symbol.png style=width:14px;height:14px> 5? <br /><br /> (Remember, to perform <img src=./images/hexagon_symbol.png style=width:14px;height:14px>, you can use the interactive diagram on the right, or perform the operation in your mind. Point the arrow at the first number on the hexagon, then move the arrow the second number of points clockwise around the hexagon. The number the arrow arrives at is your result.)","response_type":"free","response_choices":[],"correct_response":"5","response":"5","orientation_history":[[0]],"response_history":["5"],"rt":7572,"trial_type":"polygon-arrow-question","trial_index":0,"trial_index_global":19,"time_elapsed":196855,"internal_chunk_id":"0- 0.3-0"},{"nsides":6,"feedback":"Correct! 0 <img src=./images/hexagon_symbol.png style=width:14px;height:14px> 5 = 5 because 5 steps clockwise on the hexagon from 0 brings us to 5","orientation_history":[0],"rt":1583,"trial_type":"polygon-arrow-feedback","trial_index":0,"trial_index_global":20,"time_elapsed":198440,"internal_chunk_id":"0-0.3-0"},{"nsides":6,"question":"What is 2 <img src=./images/hexagon_symbol.png style=width:14px;height:14px> 5? <br /><br /> (Remember, to perform <img src=./images/hexagon_symbol.png style=width:14px;height:14px>, you can use the interactive diagram on the right, or perform the operation in your mind. Point the arrow at the first number on the hexagon, then move the arrow the second number of points clockwise around the hexagon. The number the arrow arrives at is your result.)","response_type":"free","response_choices":[],"correct_response":"1","response":"1","orientation_history":[[0]],"response_history":["1"],"rt":6880,"trial_type":"polygon-arrow-question","trial_index":0,"trial_index_global":21,"time_elapsed":205320,"internal_chunk_id":"0-0.3-0"},{"nsides":6,"feedback":"Correct! 2 <img src=./images/hexagon_symbol.png style=width:14px;height:14px> 5 = 1 because 5 steps clockwise on the hexagon from 2 brings us to 1","orientation_history":[0],"rt":1647,"trial_type":"polygon-arrow-feedback","trial_index":0,"trial_index_global":22,"time_elapsed":206969,"internal_chunk_id":"0-0.3-0"},{"nsides":6,"instructions":"Now we're going to discuss a couple special properties of this new operation, <img src=./images/hexagon_symbol.png style=width:14px;height:14px> that we've learned. First, notice that the number 0 behaves in a special way under <img src=./images/hexagon_symbol.png style=width:14px;height:14px>. Whenever we combine 0 with anything else, we get that same thing back. We'll say that 0 is the <i>identity</i> under <img src=./images/hexagon_symbol.png style=width:14px;height :14px> , because when you combine it with something it gives you that identical thing back.","orientation_history":[0],"rt":9685,"trial_type":"polygon-arrow-instructions","trial_index":0,"trial_index_global":23,"time_elapsed":216656,"internal_chunk_id":"0-0"},{"nsides":6,"instructions":"Now that we know 0 is the identity under <img src=./images/hexagon_symbol.png style=width:14px;height:14px>, we're going to make a new definition. We'll say that the <i>inverse</i> of a number is the element that you combine with it to produce the identity under our operation. For example, 5 <img src=./images/hexagon_symbol.png style=width:14px;height:14px> 1 = 0, so we say 1 is the inverse of 5 under <img src=./images/hexagon_symbol.png style=width:14px;height:14px>, (remember 0 is the identity under <img src=./images/hexagon_symbol.png style=width:14px;height:14px>). Similarly, 3 is its own inverse under <img src=./images/hexagon_symbol.png style=width:14px;he ight:14p x>, because 3 <img src=./images/hexagon_symbol.png style=width:14px;height:14px> 3 = 0.","orientation_history":[0],"rt":20430,"trial_type":"polygon-arrow-instructions","trial_index":0,"trial_index_global":24,"time_elapsed":237088,"internal_chunk_id":"0-0"},{"nsides":6,"question":"Now you try! What is the inverse of 4 under <img src=./images/hexagon_symbol.png style=width:14px;height:14px>? <br /><br /> (Remember, the inverse of an element is the thing which you combine with it to produce the identity.)","response_type":"free","response_choices":[],"correct_response":"2","response":"5","orientation_history":[[0]],"response_history":["5"],"rt":7493,"trial_type":"polygon-arrow-question","trial_index":0,"trial_index_global":25,"time_elapsed":244584,"internal_chunk_id":"0-0.7-0"},{"nsides":6,"feedback":"Sorry, that was incorrect. The inverse of 4 under <img src=./images/hexagon_symbol.png style=width:14px;height:14px> is 2 because 4 <img src=./images/h exagon_s ymbol.png style=width:14px;height:14px> 2 = 0, and 0 is the identity under <img src=./images/hexagon_symbol.png style=width:14px;height:14px>.","orientation_history":[0],"rt":20064,"trial_type":"polygon-arrow-feedback","trial_index":0,"trial_index_global":26,"time_elapsed":264650,"internal_chunk_id":"0-0.7-0"},{"nsides":6,"question":"What is the inverse of 1 under <img src=./images/hexagon_symbol.png style=width:14px;height:14px>? <br /><br /> (Remember, the inverse of an element is the thing which you combine with it to produce the identity.)","response_type":"free","response_choices":[],"correct_response":"5","response":"5","orientation_history":[[0]],"response_history":["5"],"rt":20683,"trial_type":"polygon-arrow-question","trial_index":0,"trial_index_global":27,"time_elapsed":285336,"internal_chunk_id":"0-0.7-0"},{"nsides":6,"feedback":"Correct! The inverse of 1 under <img src=./images/hexagon_symbol.png style=width:14px;height:14px> is 5 be cause 1  <img src=./images/hexagon_symbol.png style=width:14px;height:14px> 5 = 0, and 0 is the identity under <img src=./images/hexagon_symbol.png style=width:14px;height:14px>.","orientation_history":[0],"rt":3174,"trial_type":"polygon-arrow-feedback","trial_index":0,"trial_index_global":28,"time_elapsed":288512,"internal_chunk_id":"0-0.7-0"},{"nsides":6,"question":"What is the inverse of 3 under <img src=./images/hexagon_symbol.png style=width:14px;height:14px>? <br /><br /> (Remember, the inverse of an element is the thing which you combine with it to produce the identity.)","response_type":"free","response_choices":[],"correct_response":"3","response":"1","orientation_history":[[0]],"response_history":["1"],"rt":8478,"trial_type":"polygon-arrow-question","trial_index":0,"trial_index_global":29,"time_elapsed":296992,"internal_chunk_id":"0-0.7-0"},{"nsides":6,"feedback":"Sorry, that was incorrect. The inverse of 3 under <img src=./images/hexagon_symbol.pn g styl e=width:14px;height:14px> is 3 because 3 <img src=./images/hexagon_symbol.png style=width:14px;height:14px> 3 = 0, and 0 is the identity under <img src=./images/hexagon_symbol.png style=width:14px;height:14px>.","orientation_history":[0],"rt":2263,"trial_type":"polygon-arrow-feedback","trial_index":0,"trial_index_global":30,"time_elapsed":299257,"internal_chunk_id":"0-0.7-0"},{"nsides":6,"question":"What is the inverse of 2 under <img src=./images/hexagon_symbol.png style=width:14px;height:14px>? <br /><br /> (Remember, the inverse of an element is the thing which you combine with it to produce the identity.)","response_type":"free","response_choices":[],"correct_response":"4","response":"1","orientation_history":[[0]],"response_history":["1"],"rt":13342,"trial_type":"polygon-arrow-question","trial_index":0,"trial_index_global":31,"time_elapsed":312600,"internal_chunk_id":"0-0.7-0"},{"nsides":6,"feedback":"Sorry, that was incorrect. The inverse of  2 under  <img src=./images/hexagon_symbol.png style=width:14px;height:14px> is 4 because 2 <img src=./images/hexagon_symbol.png style=width:14px;height:14px> 4 = 0, and 0 is the identity under <img src=./images/hexagon_symbol.png style=width:14px;height:14px>.","orientation_history":[0],"rt":10800,"trial_type":"polygon-arrow-feedback","trial_index":0,"trial_index_global":32,"time_elapsed":323402,"internal_chunk_id":"0-0.7-0"},{"nsides":6,"question":"What is the inverse of 0 under <img src=./images/hexagon_symbol.png style=width:14px;height:14px>? <br /><br /> (Remember, the inverse of an element is the thing which you combine with it to produce the identity.)","response_type":"free","response_choices":[],"correct_response":"0","response":"6","orientation_history":[[0]],"response_history":["6"],"rt":8523,"trial_type":"polygon-arrow-question","trial_index":0,"trial_index_global":33,"time_elapsed":331928,"internal_chunk_id":"0-0.7-0"},{"nsides":6,"feedback":"Sor ry, that was incorrect. The inverse of 0 under <img src=./images/hexagon_symbol.png style=width:14px;height:14px> is 0 because 0 <img src=./images/hexagon_symbol.png style=width:14px;height:14px> 0 = 0, and 0 is the identity under <img src=./images/hexagon_symbol.png style=width:14px;height:14px>.","orientation_history":[0],"rt":2232,"trial_type":"polygon-arrow-feedback","trial_index":0,"trial_index_global":34,"time_elapsed":334162,"internal_chunk_id":"0-0.7-0"},{"instructions":"It is also possible to successively apply <img src=./images/hexagon_symbol.png style=width:14px;height:14px>, and the operation can simply be performed starting with the left-most pair. For example, 2 <img src=./images/hexagon_symbol.png style=width:14px;height:14px> 3 <img src=./images/hexagon_symbol.png style=width:14px;height:14px> 4 = 5 <img src=./images/hexagon_symbol.png style=width:14px;height:14px> 4 = 3.","rt":6775,"trial_type":"instruc tions","trial_index":0,"trial_index_global":35,"time_elapsed":340938,"internal_chunk_id":"0-0"},{"nsides":6,"instructions":"We have one last definition to learn today. Let's start with an example. Under our operation <img src=./images/hexagon_symbol.png style=width:14px;height:14px> we can make every other number using just 1: 2 = 1 <img src=./images/hexagon_symbol.png style=width:14px;height:14px> 1, 3 = 1 <img src=./images/hexagon_symbol.png style=width:14px;height:14px> 1 <img src=./images/hexagon_symbol.png style=width:14px;height:14px> 1, 4 = 1 <img src=./images/hexagon_symbol.png style=width:14px;height:14px> 1 <img src=./images/hexagon_symbol.png style=width:14px;height:14px> 1 <img src=./images/hexagon_symbol.png style=width:14px;height:14px> 1, 5 = 1 <img src=./images/hexagon_symbol.png style=width:14px;height:14px> 1 <img src=./images/hexagon_symbol.png style=width:14px;height:14px> 1 <img src=./imag es/hexag on_symbol.png style=width:14px;height:14px> 1 <img src=./images/hexagon_symbol.png style=width:14px;height:14px> 1, and 0 = 1 <img src=./images/hexagon_symbol.png style=width:14px;height:14px> 1 <img src=./images/hexagon_symbol.png style=width:14px;height:14px> 1 <img src=./images/hexagon_symbol.png style=width:14px;height:14px> 1 <img src=./images/hexagon_symbol.png style=width:14px;height:14px> 1 <img src=./images/hexagon_symbol.png style=width:14px;height:14px> 1. Because 1 can make every other element under <img src=./images/hexagon_symbol.png style=width:14px;height:14px>, we say that 1 is a <i>generator</i> under <img src=./images/hexagon_symbol.png style=width:14px;height:14px>. <br /><br /> However, 2 is not a generator under <img src=./images/hexagon_symbol.png style=width:14px;height:14px>, because 4 = 2 <img src=./images/hexagon_symbol.png style=width:14px;height:14px> 2, and 0 =  2 <img  src=./images/hexagon_symbol.png style=width:14px;height:14px> 2 <img src=./images/hexagon_symbol.png style=width:14px;height:14px> 2, but there is no way to make 1, 3, or 5 using just 2.","orientation_history":[0],"rt":14863,"trial_type":"polygon-arrow-instructions","trial_index":0,"trial_index_global":36,"time_elapsed":355802,"internal_chunk_id":"0-0"},{"nsides":6,"question":"Now you try! Is 3 a generator under <img src=./images/hexagon_symbol.png style=width:14px;height:14px>? <br /><br /> (Remember, a generator is an element which can make every other element.)","response_type":"multi","response_choices":["Yes","No"],"correct_response":"No","response":"No","orientation_history":[[0]],"response_history":["No"],"rt":8964,"trial_type":"polygon-arrow-question","trial_index":0,"trial_index_global":37,"time_elapsed":364769,"internal_chunk_id":"0-0.10-0"},{"nsides":6,"feedback":"Correct! 3 is not a generator under <img src=./images/hexagon_symbol.png  style= width:14px;height:14px>, because 3 = 3, 0 = 3 <img src=./images/hexagon_symbol.png style=width:14px;height:14px> 3, but there is no way to make 1, 2, 4, or 5 using just 3.","orientation_history":[0],"rt":1462,"trial_type":"polygon-arrow-feedback","trial_index":0,"trial_index_global":38,"time_elapsed":366232,"internal_chunk_id":"0-0.10-0"},{"nsides":6,"question":"Is 5 a generator under <img src=./images/hexagon_symbol.png style=width:14px;height:14px>? <br /><br /> (Remember, a generator is an element which can make every other element.)","response_type":"multi","response_choices":["Yes","No"],"correct_response":"Yes","response":"No","orientation_history":[[0]],"response_history":["No"],"rt":4071,"trial_type":"polygon-arrow-question","trial_index":0,"trial_index_global":39,"time_elapsed":370304,"internal_chunk_id":"0-0.10-0"},{"nsides":6,"feedback":"Sorry, that's incorrect. 5 is a generator under <img src=./images/hexagon_symbol.png style=width:14px;he ight:14p x>, because 5 = 5, 4 = 5 <img src=./images/hexagon_symbol.png style=width:14px;height:14px> 5, 3 = 5 <img src=./images/hexagon_symbol.png style=width:14px;height:14px> 5 <img src=./images/hexagon_symbol.png style=width:14px;height:14px> 5, 2 = 5 <img src=./images/hexagon_symbol.png style=width:14px;height:14px> 5 <img src=./images/hexagon_symbol.png style=width:14px;height:14px> 5 <img src=./images/hexagon_symbol.png style=width:14px;height:14px> 5, 1 = 5 <img src=./images/hexagon_symbol.png style=width:14px;height:14px> 5 <img src=./images/hexagon_symbol.png style=width:14px;height:14px> 5 <img src=./images/hexagon_symbol.png style=width:14px;height:14px> 5 <img src=./images/hexagon_symbol.png style=width:14px;height:14px> 5, and 0 = 5 <img src=./images/hexagon_symbol.png style=width:14px;height:14px> 5 <img src=./images/hexagon_symbol.png style=width:14px;height:14px> 5 <img s rc=./i mages/hexagon_symbol.png style=width:14px;height:14px> 5 <img src=./images/hexagon_symbol.png style=width:14px;height:14px> 5 <img src=./images/hexagon_symbol.png style=width:14px;height:14px> 5, so you can make all of the numbers under <img src=./images/hexagon_symbol.png style=width:14px;height:14px> using 5","orientation_history":[0],"rt":1342,"trial_type":"polygon-arrow-feedback","trial_index":0,"trial_index_global":40,"time_elapsed":371648,"internal_chunk_id":"0-0.10-0"},{"nsides":6,"question":"Is 4 a generator under <img src=./images/hexagon_symbol.png style=width:14px;height:14px>? <br /><br /> (Remember, a generator is an element which can make every other element.)","response_type":"multi","response_choices":["Yes","No"],"correct_response":"No","response":"No","orientation_history":[[0]],"response_history":["No"],"rt":4359,"trial_type":"polygon-arrow-question","trial_index":0,"trial_index_global":41,"time_elapsed":376009,"internal_chunk_id":"0-0.10-0"},{"nsides":6,"feedback":"Correct! 4 is not a generator under <img src=./images/hexagon_symbol.png style=width:14px;height:14px>, because 4 = 4, 2 = 4 <img src=./images/hexagon_symbol.png style=width:14px;height:14px> 4, and 0 = 4 <img src=./images/hexagon_symbol.png style=width:14px;height:14px> 4 <img src=./images/hexagon_symbol.png style=width:14px;height:14px> 4, but there is no way to make 1, 3, or 5 using just 4.","orientation_history":[0],"rt":1247,"trial_type":"polygon-arrow-feedback","trial_index":0,"trial_index_global":42,"time_elapsed":377257,"internal_chunk_id":"0-0.10-0"},{"nsides":6,"question":"Is 0 a generator under <img src=./images/hexagon_symbol.png style=width:14px;height:14px>? <br /><br /> (Remember, a generator is an element which can make every other element.)","response_type":"multi","response_choices":["Yes","No"],"correct_response":"No","response":"Yes","orientation_history":[[0]],"response_history":["Y es"],"rt":4012,"trial_type":"polygon-arrow-question","trial_index":0,"trial_index_global":43,"time_elapsed":381271,"internal_chunk_id":"0-0.10-0"},{"nsides":6,"feedback":"Sorry, that's incorrect. 0 is not a generator under <img src=./images/hexagon_symbol.png style=width:14px;height:14px>, because 0 = 0, but there is no way to make 1, 2, 3, 4, or 5 using just 0.","orientation_history":[0],"rt":1056,"trial_type":"polygon-arrow-feedback","trial_index":0,"trial_index_global":44,"time_elapsed":382328,"internal_chunk_id":"0-0.10-0"},{"nsides":9,"instructions":"Now we are going to ask you some questions about a new operation, <img src=./images/nonagon_symbol.png style=width:14px;height:14px>, on the numbers 0, 1, 2, 3, 4, 5, 6, 7, 8. It works exactly like <img src=./images/hexagon_symbol.png style=width:14px;height:14px>, except now you use the nonagon shown at the right. <br /><br />Do you see how <img src=./images/nonagon_symbol.png style=width:14px ;height: 14px> works just like <img src=./images/hexagon_symbol.png style=width:14px;height:14px>? By labeling the points of the nonagon with the numbers from 0 to 8, we ensure that when we combine two numbers under <img src=./images/nonagon_symbol.png style=width:14px;height:14px>, we only produce numbers between 0 and 8. <br /><br />We'll give you one practice question with feedback to make sure you understand the new operation. After that, try to complete the remaining questions as accurately as possible.","orientation_history":[0],"rt":17537,"trial_type":"polygon-arrow-instructions","trial_index":0,"trial_index_global":45,"time_elapsed":399866,"internal_chunk_id":"0-0"},{"nsides":9,"question":"Practice: What is 5 <img src=./images/nonagon_symbol.png style=width:14px;height:14px> 5?","response_type":"free","response_choices":[],"correct_response":"1","response":"5","orientation_history":[[0]],"response_history":["5"],"rt":11003,"trial_type":"polygon-arrow -questio n","trial_index":0,"trial_index_global":46,"time_elapsed":410872,"internal_chunk_id":"0-0.12-0"},{"nsides":9,"feedback":"Sorry, that was incorrect. 5 <img src=./images/nonagon_symbol.png style=width:14px;height:14px> 5 = 1 because 5 steps clockwise on the nonagon from 5 brings us to 1","orientation_history":[0],"rt":6334,"trial_type":"polygon-arrow-feedback","trial_index":0,"trial_index_global":47,"time_elapsed":417208,"internal_chunk_id":"0-0.12-0"},{"nsides":9,"question":"What is 3 <img src=./images/nonagon_symbol.png style=width:14px;height:14px> 3?","response_type":"free","response_choices":[],"correct_response":"6","response":"6","orientation_history":[[0]],"response_history":["6"],"rt":6974,"trial_type":"polygon-arrow-question","trial_index":0,"trial_index_global":48,"time_elapsed":424183,"internal_chunk_id":"0-0.12-0"},{"nsides":9,"question":"What is 7 <img src=./images/nonagon_symbol.png style=width:14px;height:14px> 4?","response_type":"free","response_choices":[],"correct_response":"2","response":"2","orientation_history":[[0]],"response_history":["2"],"rt":5846,"trial_type":"polygon-arrow-question","trial_index":0,"trial_index_global":49,"time_elapsed":430031,"internal_chunk_id":"0-0.12-0"},{"nsides":9,"question":"What is 1 <img src=./images/nonagon_symbol.png style=width:14px;height:14px> 8?","response_type":"free","response_choices":[],"correct_response":"0","response":"0","orientation_history":[[0]],"response_history":[""],"rt":11719,"trial_type":"polygon-arrow-question","trial_index":0,"trial_index_global":50,"time_elapsed":441751,"internal_chunk_id":"0-0.12-0"},{"nsides":9,"question":"What is 5 <img src=./images/nonagon_symbol.png style=width:14px;height:14px> 4?","response_type":"free","response_choices":[],"correct_response":"0","response":"0","orientation_history":[[0]],"response_history":["0"],"rt":9375,"trial_type":"polygon-arrow-question","trial_index":0,"trial_index_global":51,"time_elapsed":451127,"internal_chunk_id":"0-0.12-0"},{"nsides":9,"question":"What is 6 <img src=./images/nonagon_symbol.png style=width:14px;height:14px> 6?","response_type":"free","response_choices":[],"correct_response":"3","response":"3","orientation_history":[[0],[1.4036945268637908,1.4036945268637908,1.4036945268637908,1.4036945268637908,1.4036945268637908,1.4036945268637908,1.4036945268637908,1.3962634015954636]],"response_history":["3"],"rt":10435,"trial_type":"polygon-arrow-question","trial_index":0,"trial_index_global":52,"time_elapsed":461564,"internal_chunk_id":"0-0.12-0"},{"nsides":9,"question":"What is 4 <img src=./images/nonagon_symbol.png style=width:14px;height:14px> 1? Please explain in words how you got your answer.","response_type":"free","response_choices":[],"correct_response":"","response":"5. Because 1 step clockwise from 5 equals 5.","orientation_history":[[0]],"response_history":["5. BEc","5. BE","5. Because 1 is ","5. Because 1 is","5. Because 1 i","5.  Because  1 ","5. Because 1","5. Because 1 step clockwise from 5 equals 56","5. Because 1 step clockwise from 5 equals 5."],"rt":32581,"trial_type":"polygon-arrow-question","trial_index":0,"trial_index_global":53,"time_elapsed":494147,"internal_chunk_id":"0-0.12-0"},{"nsides":9,"question":"What is 8 <img src=./images/nonagon_symbol.png style=width:14px;height:14px> 4? Please explain in words how you got your answer.","response_type":"free","response_choices":[],"correct_response":"","response":"3. Because 4 steps clockwise from is is 3. ","orientation_history":[[0]],"response_history":["3. ","3.","3","3. bec","3. be","3. b","3. Because 4 steps clockwise from is is 3. "],"rt":29686,"trial_type":"polygon-arrow-question","trial_index":0,"trial_index_global":54,"time_elapsed":523834,"internal_chunk_id":"0-0.12-0"},{"nsides":9,"question":"What is the identity under <img src=./images/nonagon_symbol.png style=width:14px;height:14px>? Please explain in words how you got your a nswer.","response_type":"free","response_choices":[],"correct_response":"0","response":"1, because it can combine to make all numbers","orientation_history":[[0]],"response_history":["No","N","2","2","1, becc","1, because it can combine to make all numbers"],"rt":36415,"trial_type":"polygon-arrow-question","trial_index":0,"trial_index_global":55,"time_elapsed":560250,"internal_chunk_id":"0-0.12-0"},{"nsides":9,"question":"What is the inverse of 5 under <img src=./images/nonagon_symbol.png style=width:14px;height:14px>?","response_type":"free","response_choices":[],"correct_response":"4","response":"4","orientation_history":[[0]],"response_history":["4"],"rt":8591,"trial_type":"polygon-arrow-question","trial_index":0,"trial_index_global":56,"time_elapsed":568842,"internal_chunk_id":"0-0.12-0"},{"nsides":9,"question":"What is the inverse of 2 under <img src=./images/nonagon_symbol.png style=width:14px;height:14px>?","response_type":"free","response_choices":[],"correct_response":"7","response":"1","orientation_history":[[0]],"response_history":["1"],"rt":5725,"trial_type":"polygon-arrow-question","trial_index":0,"trial_index_global":57,"time_elapsed":574568,"internal_chunk_id":"0-0.12-0"},{"nsides":9,"question":"What is the inverse of 0 under <img src=./images/nonagon_symbol.png style=width:14px;height:14px>?","response_type":"free","response_choices":[],"correct_response":"0","response":"8","orientation_history":[[0]],"response_history":["8"],"rt":2777,"trial_type":"polygon-arrow-question","trial_index":0,"trial_index_global":58,"time_elapsed":577347,"internal_chunk_id":"0-0.12-0"},{"nsides":9,"question":"What is the inverse of 3 under <img src=./images/nonagon_symbol.png style=width:14px;height:14px>? Please explain in words how you got your answer.","response_type":"free","response_choices":[],"correct_response":"","response":"2, I'm not sure","orientation_history":[[0]],"response_history":["2, ne","2, n","2, I'm nost ","2, I'm  nost"," 2, I'm nos","2, I'm not sure"],"rt":23014,"trial_type":"polygon-arrow-question","trial_index":0,"trial_index_global":59,"time_elapsed":600362,"internal_chunk_id":"0-0.12-0"},{"nsides":9,"question":"Is 2 a generator under <img src=./images/nonagon_symbol.png style=width:14px;height:14px>? Please explain in words how you got your answer.","response_type":"free","response_choices":[],"correct_response":"","response":"8, Still not sure. ","orientation_history":[[0]],"response_history":["8, Still not sure. I think I got o","8, Still not sure. I think I got all of th","8, Still not sure. I t","8, Still not sure. I ","8, Still not sure. I","8, Still not sure. "],"rt":16511,"trial_type":"polygon-arrow-question","trial_index":0,"trial_index_global":60,"time_elapsed":616875,"internal_chunk_id":"0-0.12-0"},{"nsides":9,"question":"Is 3 a generator under <img src=./images/nonagon_symbol.png style=width:14px;height:14px>? Please explain in words how you got your answer.","response_type":"free","response_choices":[],"correct_response":"","response":"1. Again, not sure. ","orientation_history":[[0]],"response_history":["1. Again, not sure. "],"rt":9374,"trial_type":"polygon-arrow-question","trial_index":0,"trial_index_global":61,"time_elapsed":626250,"internal_chunk_id":"0-0.12-0"},{"nsides":9,"question":"Is 5 a generator under <img src=./images/nonagon_symbol.png style=width:14px;height:14px>? Please explain in words how you got your answer.","response_type":"free","response_choices":[],"correct_response":"","response":"No. Because it can't make all numbers","orientation_history":[[0]],"response_history":["7, ","No. Because it can't make all m","No. Because it can't make all numeb","No. Because it can't make all nume","No. Because it can't make all numbers"],"rt":15606,"trial_type":"polygon-arrow-question","trial_index":0,"trial_index_global":62,"time_elapsed":641858,"internal_chunk_id":"0-0.12-0"},{"nsides":9,"question":"Is 6 a generator unde r <img s rc=./images/nonagon_symbol.png style=width:14px;height:14px>? Please explain in words how you got your answer.","response_type":"free","response_choices":[],"correct_response":"","response":"Sure. I still don't know","orientation_history":[[0]],"response_history":["Sure. I still don't know"],"rt":7782,"trial_type":"polygon-arrow-question","trial_index":0,"trial_index_global":63,"time_elapsed":649642,"internal_chunk_id":"0-0.12-0"},{"nsides":"n","instructions":"Now we'd like to ask you some questions about <img src=./images/ngon_symbol.png style=width:14px;height:14px>, where n could be any positive counting number. For example, n could be 3, and the polygon a triangle, or n could be any other counting number you can think of. If you need to write the operation, you can use (n), and your answers can include n to stand in for the arbitrary value if necessary. (You can use the polygon at the right to think, but it doesn't necessarily correspond to the real p olygon,  which is why we've left most of it dashed.)","orientation_history":[0],"rt":33322,"trial_type":"polygon-arrow-instructions","trial_index":0,"trial_index_global":64,"time_elapsed":682965,"internal_chunk_id":"0-0"},{"nsides":"n","question":"What is the formula for the inverse of 1 under <img src=./images/ngon_symbol.png style=width:14px;height:14px>?","response_type":"free","response_choices":[],"correct_response":"n-1","response":"1 - 1 = n","orientation_history":[[0]],"response_history":["n","1 - 1 ","n 0","n 0","n ","n","1 -1 ","1 -1","1 - 0 ","1 - 0","1 - 1 = n"],"rt":49972,"trial_type":"polygon-arrow-question","trial_index":0,"trial_index_global":65,"time_elapsed":732939,"internal_chunk_id":"0-0.14-0"},{"nsides":"n","question":"What is the formula for the inverse of an element x under <img src=./images/ngon_symbol.png style=width:14px;height:14px>? Please explain in words why your answer is correct.","response_type":"free","response_choices":[],"correct_response":"n-x","response":"x - n = the original starting point, and again, I have no idea. ","orientation_history":[[0]],"response_history":["x 0 ","x 0","x - n = the original starting point;. ","x - n = the original starting point;.","x - n = the original starting point;","x - n = the original starting point, nd","x - n = the original starting point, n","x - n = the original starting point, and I ","x - n = the original starting point, and I","x - n = the original starting point, and again, I have no idea. "],"rt":49886,"trial_type":"polygon-arrow-question","trial_index":0,"trial_index_global":66,"time_elapsed":782826,"internal_chunk_id":"0-0.14-0"},{"nsides":"n","question":"Is there a pattern to which elements are generators? How can you know if an element x is a generator under <img src=./images/ngon_symbol.png style=width:14px;height:14px> without seeing whether it can make all the elements?.","response_type":"free","response_choices":[],"correct_response":"","response":" Unsure.","orientation_history":[[0]],"response_history":["No","N","Yes. Prime versus ","Yes. Pr","Yes. P","Yes. ","No","N","Unsure."],"rt":25413,"trial_type":"polygon-arrow-question","trial_index":0,"trial_index_global":67,"time_elapsed":808242,"internal_chunk_id":"0-0.14-0"},{"nsides":"n","question":"True or false: If x is an odd number, it must be a generator under <img src=./images/ngon_symbol.png style=width:14px;height:14px>.","response_type":"multi","response_choices":["True","False"],"correct_response":"False","response":"False","orientation_history":[[0]],"response_history":["False"],"rt":5348,"trial_type":"polygon-arrow-question","trial_index":0,"trial_index_global":68,"time_elapsed":813593,"internal_chunk_id":"0-0.14-0"},{"nsides":"n","question":"True or false: If x is an even number, it must not be a generator under <img src=./images/ngon_symbol.png style=width:14px;height:14px>.","response_type":"multi","response_choices":["True","False"],"correct_response":"Fals e","response":"False","orientation_history":[[0]],"response_history":["False"],"rt":4766,"trial_type":"polygon-arrow-question","trial_index":0,"trial_index_global":69,"time_elapsed":818361,"internal_chunk_id":"0-0.14-0"},{"nsides":"n","question":"True or false: If x is not a generator under <img src=./images/ngon_symbol.png style=width:14px;height:14px>, x must be a divisor of n, that is, x must divide n evenly, with no remainder.","response_type":"multi","response_choices":["True","False"],"correct_response":"False","response":"True","orientation_history":[[0]],"response_history":["True"],"rt":4198,"trial_type":"polygon-arrow-question","trial_index":0,"trial_index_global":70,"time_elapsed":822560,"internal_chunk_id":"0-0.14-0"},{"nsides":"n","question":"True or false: If x is not a generator under <img src=./images/ngon_symbol.png style=width:14px;height:14px>, x must be a multiple of a divisor of n. Please explain in words why your answer is correct.","response_type":"free","response_choices":[],"correct_response":"True","response":"True. Because, I have no idea.","orientation_history":[[0]],"response_history":["I h","I ","I","True,.","True,","True. BNe","True. BN","True. Becvause ","True. Because, I ja","True. Because, I j","True. Because, I have no idea."],"rt":25735,"trial_type":"polygon-arrow-question","trial_index":0,"trial_index_global":71,"time_elapsed":848297,"internal_chunk_id":"0-0.14-0"},{"nsides":"n","question":"If an element x is a generator under <img src=./images/ngon_symbol.png style=width:14px;height:14px>, is its inverse a generator under <img src=./images/ngon_symbol.png style=width:14px;height:14px> always, sometimes, or never?","response_type":"multi","response_choices":["Always","Sometimes","Never"],"correct_response":"Always","response":"Never","orientation_history":[[0]],"response_history":["Never"],"rt":8246,"trial_type":"polygon-arrow-question","trial_index":0,"trial_index_global":72,"time_elapsed":856544,"internal_chunk_id":"0-0.14-0"},{"nsides":"n","question":"If an element x is a generator under <img src=./images/ngon_symbol.png style=width:14px;height:14px>, is x <img src=./images/ngon_symbol.png style=width:14px;height:14px> x a generator under <img src=./images/ngon_symbol.png style=width:14px;height:14px> always, sometimes, or never? Please explain in words why your answer is correct.","response_type":"free","response_choices":[],"correct_response":"Sometimes","response":"Sometimes. Because I'm a genius","orientation_history":[[0]],"response_history":["Sometimes. Because I'm a sg","Sometimes. Because I'm a s","Sometimes. Because I'm a genius,.","Sometimes. Because I'm a genius,","Sometimes. Because I'm a genius"],"rt":50321,"trial_type":"polygon-arrow-question","trial_index":0,"trial_index_global":73,"time_elapsed":906867,"internal_chunk_id":"0-0.14-0"},{"nsides":"n","question":"If an element x is not a generator under <img src=./images/n gon_symb ol.png style=width:14px;height:14px>, is x <img src=./images/ngon_symbol.png style=width:14px;height:14px> x a generator under <img src=./images/ngon_symbol.png style=width:14px;height:14px> always, sometimes, or never?","response_type":"multi","response_choices":["Always","Sometimes","Never"],"correct_response":"Never","response":"Sometimes","orientation_history":[[0]],"response_history":["Sometimes"],"rt":7278,"trial_type":"polygon-arrow-question","trial_index":0,"trial_index_global":74,"time_elapsed":914147,"internal_chunk_id":"0-0.14-0"},{"instructions":"We would like to ask you some questions about your background. Please press Continue to continue.","rt":1925,"trial_type":"instructions","trial_index":0,"trial_index_global":75,"time_elapsed":916073,"internal_chunk_id":"0-0.15-0"},{"question":"What is your age?","response_type":"free","response_choices":[],"correct_response":"","response":"32","response_history":["32"],"rt":6385,"trial_type":"qu estion","trial_index":0,"trial_index_global":76,"time_elapsed":922458,"internal_chunk_id":"0-0.15-0"},{"question":"What is your level of education?","response_type":"multi","response_choices":["Did not graduate high school","High school diploma","Some college, no degree","Associates Degree","Bachelors Degree","Some graduate school, no degree","Masters Degree","Doctorate, M.D., etc."],"correct_response":"","response":"High school diploma","response_history":["High school diploma"],"rt":3110,"trial_type":"question","trial_index":0,"trial_index_global":77,"time_elapsed":925570,"internal_chunk_id":"0-0.15-0"},{"question":"What is the most advanced math class you've completed? If you have multiple classes and you're not sure which one is most advanced, please list them.","response_type":"free","response_choices":[],"correct_response":"","response":"Algebra ","response_history":["Algebrea","Algebre","Algebram ","Algebram","Algebra, Geomertr","Algebra, Geomert","Algebra, Geomer","Algebra,  Geome"," Algebra, Geometryu","Algebra, Geometry","Algebra, Geometr","Algebra, Geomet","Algebra, Geo","Algebra, Ge","Algebra, G","Algebra, ","Algebra,","Algebra ","Algebra, ","Algebra,","Algebra "],"rt":27759,"trial_type":"question","trial_index":0,"trial_index_global":78,"time_elapsed":953330,"internal_chunk_id":"0-0.15-0"},{"question":"How familiar are you with the concept of modular arithmetic?","response_type":"multi","response_choices":["1 - never heard of it","2 - heard of it but didn't know what it was","3 - seen it used or explained","4 - used it but not often or recently","5 - used it, remember and understand it"],"correct_response":"1","response":"2 - heard of it but didn't know what it was","response_history":["3 - seen it used or explained","2 - heard of it but didn't know what it was"],"rt":8556,"trial_type":"question","trial_index":0,"trial_index_global":79,"time_elapsed":961889,"internal_chunk_id":"0-0.15-0"},{"question":"How familiar are you with the concept of a mathe matical  group?","response_type":"multi","response_choices":["1 - never heard of it","2 - heard of it but didn't know what it was","3 - seen it used or explained","4 - used it but not often or recently","5 - used it, remember and understand it"],"correct_response":"1","response":"3 - seen it used or explained","response_history":["3 - seen it used or explained"],"rt":4014,"trial_type":"question","trial_index":0,"trial_index_global":80,"time_elapsed":965905,"internal_chunk_id":"0-0.15-0"},{"question":"Do you feel you learned something from this HIT?","response_type":"multi","response_choices":["1 - not at all","2 - somewhat","3 - definitely"],"correct_response":"1","response":"3 - definitely","response_history":["3 - definitely"],"rt":3454,"trial_type":"question","trial_index":0,"trial_index_global":81,"time_elapsed":969361,"internal_chunk_id":"0-0.15-0"},{"question":"Do you feel you understood the concepts in this HIT?","response_type":"multi","response_choices":["1 - not at all","2  - somewh at","3 - definitely"],"correct_response":"1","response":"1 - not at all","response_history":["1 - not at all"],"rt":2990,"trial_type":"question","trial_index":0,"trial_index_global":82,"time_elapsed":972352,"internal_chunk_id":"0-0.15-0"},{"question":"Did you enjoy this HIT?","response_type":"multi","response_choices":["1 - not at all","2 - somewhat","3 - definitely"],"correct_response":"1","response":"2 - somewhat","response_history":["2 - somewhat"],"rt":2551,"trial_type":"question","trial_index":0,"trial_index_global":83,"time_elapsed":974904,"internal_chunk_id":"0-0.15-0"},{"question":"What is your gender?","response_type":"multi","response_choices":["Female","Male","Other"],"correct_response":"","response":"Male","response_history":["Male"],"rt":2775,"trial_type":"question","trial_index":0,"trial_index_global":84,"time_elapsed":977681,"internal_chunk_id":"0-0.15-0"},{"question":"What is/are your native language(s)? (The languages spoken in your household when you were a  child.) ","response_type":"free","response_choices":[],"correct_response":"","response":"English","response_history":["English"],"rt":5014,"trial_type":"question","trial_index":0,"trial_index_global":85,"time_elapsed":982696,"internal_chunk_id":"0-0.15-0"},{"question":"Did you use pen and paper at any point on this HIT?","response_type":"free","response_choices":[],"correct_response":"","response":"No","response_history":["No"],"rt":3577,"trial_type":"question","trial_index":0,"trial_index_global":86,"time_elapsed":986274,"internal_chunk_id":"0-0.15-0"},{"question":"Do you have any comments on this HIT?","response_type":"free","response_choices":[],"correct_response":"","response":"Sure. You lost me at the end","response_history":["Wu","W","Sure. You lost me at the end"],"rt":10807,"trial_type":"question","trial_index":0,"trial_index_global":87,"time_elapsed":997082,"internal_chunk_id":"0-0.15-0"}]