[{"instructions":"Let's define a new operation +<sub>6</sub>. This operation will give us a way of combining two of the numbers 0, 1, 2, 3, 4, 5 to get another one of them back. To perform +<sub>6</sub>, you start with the first number, and then add the second one to it. If the sum is smaller than 6, that's your result. If the sum is 6 or bigger, you subtract 6 to get your result. (That's why the operation is called +<sub>6</sub>.) <br /><br />For example, 3 +<sub>6</sub> 5 = 2, because 3 + 5 = 8, and 8 is bigger than 6, so we subtract 6, and 8 - 6 = 2. So 3 +<sub>6</sub> 5 = 2.<br /><br />Similarly, 1 +<sub>6</sub> 4 = 5, because 1 + 4 = 5, and 5 is less than 6 so we leave it alone.<br /><br />Click Continue when you're ready to move on.","rt":146857,"trial_type":"instructions","trial_index":0,"trial_index_global":1,"time_elapsed":155930,"internal_chunk_id":"0-0"},{"instructions":"Do you see how +<sub>6</sub> works? By subtracting 6 every time we get above 5, we ensure t hat when  we combine two numbers using +<sub>6</sub>, we only produce numbers between 0 and 5.<br /><br />Click Continue when you're ready to move on.","rt":5699,"trial_type":"instructions","trial_index":0,"trial_index_global":2,"time_elapsed":161636,"internal_chunk_id":"0-0"},{"question":"Now try one on your own! What is 4 +<sub>6</sub> 5? <br /><br /> (Remember, to perform +<sub>6</sub>, you start with the first number, and then add the second one to it. If the sum is smaller than 6, that's your result. If the sum is 6 or bigger, you subtract 6 to get your result.)","response_type":"free","response_choices":[],"correct_response":"3","response":"3","response_history":["3"],"rt":13099,"trial_type":"question","trial_index":0,"trial_index_global":3,"time_elapsed":174735,"internal_chunk_id":"0-0.3-0"},{"feedback":"Correct! 4 +<sub>6</sub> 5 = 3 because 4 + 5 = 9 and 9 - 6 = 3.","rt":1073,"trial_type":"feedback","trial_index":0,"trial_index_global":4,"time_elapsed":175818,"internal_chunk_id":"0-0.3-0"},{"question":"What is 3 +<sub>6</sub> 2? <br /><br /> (Remember, to perform +<sub>6</sub>, you start with the first number, and then add the second one to it. If the sum is smaller than 6, that's your result. If the sum is 6 or bigger, you subtract 6 to get your result.)","response_type":"free","response_choices":[],"correct_response":"5","response":"5","response_history":["5"],"rt":2883,"trial_type":"question","trial_index":0,"trial_index_global":5,"time_elapsed":178701,"internal_chunk_id":"0-0.3-0"},{"feedback":"Correct! 3 +<sub>6</sub> 2 = 5 because 3 + 2 = 5 and 5 is less than 6.","rt":984,"trial_type":"feedback","trial_index":0,"trial_index_global":6,"time_elapsed":179685,"internal_chunk_id":"0-0.3-0"},{"question":"What is 1 +<sub>6</sub> 5? <br /><br /> (Remember, to perform +<sub>6</sub>, you start with the first number, and then add the second one to it. If the sum is smaller than 6, that's your result. If the sum is 6 or bigger, you subtract 6 to get your  result. )","response_type":"free","response_choices":[],"correct_response":"0","response":"0","response_history":["0"],"rt":3427,"trial_type":"question","trial_index":0,"trial_index_global":7,"time_elapsed":183112,"internal_chunk_id":"0-0.3-0"},{"feedback":"Correct! 1 +<sub>6</sub> 5 = 0 because 1 + 5 = 6 and 6 - 6 = 0.","rt":723,"trial_type":"feedback","trial_index":0,"trial_index_global":8,"time_elapsed":183835,"internal_chunk_id":"0-0.3-0"},{"question":"What is 1 +<sub>6</sub> 1? <br /><br /> (Remember, to perform +<sub>6</sub>, you start with the first number, and then add the second one to it. If the sum is smaller than 6, that's your result. If the sum is 6 or bigger, you subtract 6 to get your result.)","response_type":"free","response_choices":[],"correct_response":"2","response":"2","response_history":["2"],"rt":2842,"trial_type":"question","trial_index":0,"trial_index_global":9,"time_elapsed":186677,"internal_chunk_id":"0-0.3-0"},{"feedback":"Correct! 1 +<sub>6</sub> 1 = 2  because  1 + 1 = 2 and 2 is less than 6.","rt":781,"trial_type":"feedback","trial_index":0,"trial_index_global":10,"time_elapsed":187459,"internal_chunk_id":"0-0.3-0"},{"question":"What is 3 +<sub>6</sub> 0? <br /><br /> (Remember, to perform +<sub>6</sub>, you start with the first number, and then add the second one to it. If the sum is smaller than 6, that's your result. If the sum is 6 or bigger, you subtract 6 to get your result.)","response_type":"free","response_choices":[],"correct_response":"3","response":"3","response_history":["3"],"rt":4126,"trial_type":"question","trial_index":0,"trial_index_global":11,"time_elapsed":191585,"internal_chunk_id":"0-0.3-0"},{"feedback":"Correct! 3 +<sub>6</sub> 0 = 3 because 3 + 0 = 3 and 3 is less than 6.","rt":736,"trial_type":"feedback","trial_index":0,"trial_index_global":12,"time_elapsed":192321,"internal_chunk_id":"0-0.3-0"},{"question":"What is 4 +<sub>6</sub> 4? <br /><br /> (Remember, to perform +<sub>6</sub>, you start with the fi rst numb er, and then add the second one to it. If the sum is smaller than 6, that's your result. If the sum is 6 or bigger, you subtract 6 to get your result.)","response_type":"free","response_choices":[],"correct_response":"2","response":"2","response_history":["2"],"rt":3628,"trial_type":"question","trial_index":0,"trial_index_global":13,"time_elapsed":195949,"internal_chunk_id":"0-0.3-0"},{"feedback":"Correct! 4 +<sub>6</sub> 4 = 2 because 4 + 4 = 8 and 8 - 6 = 2.","rt":930,"trial_type":"feedback","trial_index":0,"trial_index_global":14,"time_elapsed":196879,"internal_chunk_id":"0-0.3-0"},{"question":"What is 1 +<sub>6</sub> 3? <br /><br /> (Remember, to perform +<sub>6</sub>, you start with the first number, and then add the second one to it. If the sum is smaller than 6, that's your result. If the sum is 6 or bigger, you subtract 6 to get your result.)","response_type":"free","response_choices":[],"correct_response":"4","response":"4","response_history":["14","1","4"],"rt":3717,"trial_type":"question","trial_index":0,"trial_index_global":15,"time_elapsed":200596,"internal_chunk_id":"0-0.3-0"},{"feedback":"Correct! 1 +<sub>6</sub> 3 = 4 because 1 + 3 = 4 and 4 is less than 6.","rt":750,"trial_type":"feedback","trial_index":0,"trial_index_global":16,"time_elapsed":201346,"internal_chunk_id":"0-0.3-0"},{"question":"What is 4 +<sub>6</sub> 3? <br /><br /> (Remember, to perform +<sub>6</sub>, you start with the first number, and then add the second one to it. If the sum is smaller than 6, that's your result. If the sum is 6 or bigger, you subtract 6 to get your result.)","response_type":"free","response_choices":[],"correct_response":"1","response":"1","response_history":["1"],"rt":2890,"trial_type":"question","trial_index":0,"trial_index_global":17,"time_elapsed":204236,"internal_chunk_id":"0-0.3-0"},{"feedback":"Correct! 4 +<sub>6</sub> 3 = 1 because 4 + 3 = 7 and 7 - 6 = 1.","rt":773,"trial_type":"feedback","trial_index":0,"trial_index_global":18,"time_elapsed":205009,"internal_chunk_id":"0-0.3-0"},{"question":"What is 0 +<sub>6</sub> 5? <br /><br /> (Remember, to perform +<sub>6</sub>, you start with the first number, and then add the second one to it. If the sum is smaller than 6, that's your result. If the sum is 6 or bigger, you subtract 6 to get your result.)","response_type":"free","response_choices":[],"correct_response":"5","response":"5","response_history":["5"],"rt":3210,"trial_type":"question","trial_index":0,"trial_index_global":19,"time_elapsed":208219,"internal_chunk_id":"0-0.3-0"},{"feedback":"Correct! 0 +<sub>6</sub> 5 = 5 because 0 + 5 = 5 and 5 is less than 6.","rt":717,"trial_type":"feedback","trial_index":0,"trial_index_global":20,"time_elapsed":208936,"internal_chunk_id":"0-0.3-0"},{"question":"What is 2 +<sub>6</sub> 5? <br /><br /> (Remember, to perform +<sub>6</sub>, you start with the first number, and then add the second one to it. If the sum is smaller than 6, that's your result. If the sum is 6 or bigger,  you subt ract 6 to get your result.)","response_type":"free","response_choices":[],"correct_response":"1","response":"1","response_history":["1"],"rt":2548,"trial_type":"question","trial_index":0,"trial_index_global":21,"time_elapsed":211484,"internal_chunk_id":"0-0.3-0"},{"feedback":"Correct! 2 +<sub>6</sub> 5 = 1 because 2 + 5 = 7 and 7 - 6 = 1.","rt":668,"trial_type":"feedback","trial_index":0,"trial_index_global":22,"time_elapsed":212153,"internal_chunk_id":"0-0.3-0"},{"instructions":"Now we're going to discuss a couple special properties of this new operation, +<sub>6</sub> that we've learned. First, notice that the number 0 behaves in a special way under +<sub>6</sub>. Whenever we combine 0 with anything else, we get that same thing back. We'll say that 0 is the <i>identity</i> under +<sub>6</sub>, because when you combine it with something it gives you that identical thing back.","rt":13240,"trial_type":"instructions","trial_index":0,"trial_index_global":23,"time_elapsed":225403,"internal_chunk_id":"0-0"},{"instructions":"Now that we know 0 is the identity under +<sub>6</sub>, we're going to make a new definition. We'll say that the <i>inverse</i> of a number is the element that you combine with it to produce the identity. For example, 5 +<sub>6</sub> 1 = 0, so we say 1 is the inverse of 5 under +<sub>6</sub>, (remember 0 is the identity under +<sub>6</sub>). Similarly, 3 is its own inverse under +<sub>6</sub>, because 3 +<sub>6</sub> 3 = 0.","rt":19192,"trial_type":"instructions","trial_index":0,"trial_index_global":24,"time_elapsed":244605,"internal_chunk_id":"0-0"},{"question":"Now you try! What is the inverse of 4 under +<sub>6</sub>? <br /><br /> (Remember, the inverse of an element is the thing which you combine with it to produce the identity.)","response_type":"free","response_choices":[],"correct_response":"2","response":"2","response_history":["2"],"rt":5001,"trial_type":"question","trial_index":0,"trial_index_global":25,"time_elapsed":249606,"internal_chunk_id":"0-0.7-0"},{"feedback":"Correct! The inverse of 4 under +<sub>6</sub> is 2 because 4 +<sub>6</sub> 2 = 0, and 0 is the identity under +<sub>6</sub>.","rt":826,"trial_type":"feedback","trial_index":0,"trial_index_global":26,"time_elapsed":250432,"internal_chunk_id":"0-0.7-0"},{"question":"What is the inverse of 1 under +<sub>6</sub>? <br /><br /> (Remember, the inverse of an element is the thing which you combine with it to produce the identity.)","response_type":"free","response_choices":[],"correct_response":"5","response":"5","response_history":["5"],"rt":2499,"trial_type":"question","trial_index":0,"trial_index_global":27,"time_elapsed":252931,"internal_chunk_id":"0-0.7-0"},{"feedback":"Correct! The inverse of 1 under +<sub>6</sub> is 5 because 1 +<sub>6</sub> 5 = 0, and 0 is the identity under +<sub>6</sub>.","rt":624,"trial_type":"feedback","trial_index":0,"trial_index_global":28,"time_elapsed":253556,"internal_chunk_id":"0-0.7-0"},{"question":"What is the in verse of  3 under +<sub>6</sub>? <br /><br /> (Remember, the inverse of an element is the thing which you combine with it to produce the identity.)","response_type":"free","response_choices":[],"correct_response":"3","response":"3","response_history":["3"],"rt":2773,"trial_type":"question","trial_index":0,"trial_index_global":29,"time_elapsed":256329,"internal_chunk_id":"0-0.7-0"},{"feedback":"Correct! The inverse of 3 under +<sub>6</sub> is 3 because 3 +<sub>6</sub> 3 = 0, and 0 is the identity under +<sub>6</sub>.","rt":600,"trial_type":"feedback","trial_index":0,"trial_index_global":30,"time_elapsed":256939,"internal_chunk_id":"0-0.7-0"},{"question":"What is the inverse of 2 under +<sub>6</sub>? <br /><br /> (Remember, the inverse of an element is the thing which you combine with it to produce the identity.)","response_type":"free","response_choices":[],"correct_response":"4","response":"4","response_history":["4"],"rt":1992,"trial_type":"question","trial_index":0,"trial_index_global":31,"time_elapsed":258941,"internal_chunk_id":"0-0.7-0"},{"feedback":"Correct! The inverse of 2 under +<sub>6</sub> is 4 because 2 +<sub>6</sub> 4 = 0, and 0 is the identity under +<sub>6</sub>.","rt":804,"trial_type":"feedback","trial_index":0,"trial_index_global":32,"time_elapsed":259746,"internal_chunk_id":"0-0.7-0"},{"question":"What is the inverse of 0 under +<sub>6</sub>? <br /><br /> (Remember, the inverse of an element is the thing which you combine with it to produce the identity.)","response_type":"free","response_choices":[],"correct_response":"0","response":"6","response_history":["6"],"rt":5699,"trial_type":"question","trial_index":0,"trial_index_global":33,"time_elapsed":265446,"internal_chunk_id":"0-0.7-0"},{"feedback":"Sorry, that was incorrect. The inverse of 0 under +<sub>6</sub> is 0 because 0 +<sub>6</sub> 0 = 0, and 0 is the identity under +<sub>6</sub>.","rt":11018,"trial_type":"feedback","trial_index":0,"trial_index_global":34,"time_elapsed":276465,"internal_chunk_id":"0-0.7-0"},{"instructions":"It is also possible to successively apply +<sub>6</sub>, and the operation can simply be performed starting with the left-most pair. For example, 2 +<sub>6</sub> 3 +<sub>6</sub> 4 = 5 +<sub>6</sub> 4 = 3.","rt":26170,"trial_type":"instructions","trial_index":0,"trial_index_global":35,"time_elapsed":302635,"internal_chunk_id":"0-0"},{"instructions":"We have one last definition to learn today, using the successive operations we just learned. Let's start with an example. Under our operation +<sub>6</sub> we can make every other number using just 1: 2 = 1 +<sub>6</sub> 1, 3 = 1 +<sub>6</sub> 1 +<sub>6</sub> 1, 4 = 1 +<sub>6</sub> 1 +<sub>6</sub> 1 +<sub>6</sub> 1, 5 = 1 +<sub>6</sub> 1 +<sub>6</sub> 1 +<sub>6</sub> 1 +<sub>6</sub> 1, and 0 = 1 +<sub>6</sub> 1 +<sub>6</sub> 1 +<sub>6</sub> 1 +<sub>6</sub> 1 +<sub>6</sub> 1. Because 1 can make every other element under +<sub>6</sub>, we say that 1 is a <i>generator</i> under +<sub>6</sub>. <br /><b r /> How ever, 2 is not a generator under +<sub>6</sub>, because 4 = 2 +<sub>6</sub> 2, and 0 = 2 +<sub>6</sub> 2 +<sub>6</sub> 2, but there is no way to make 1, 3, or 5 using just 2.","rt":154407,"trial_type":"instructions","trial_index":0,"trial_index_global":36,"time_elapsed":457043,"internal_chunk_id":"0-0"},{"question":"Now you try! Is 3 a generator under +<sub>6</sub>? <br /><br /> (Remember, a generator is an element which can make every other element.)","response_type":"multi","response_choices":["Yes","No"],"correct_response":"No","response":"Yes","response_history":["Yes"],"rt":11113,"trial_type":"question","trial_index":0,"trial_index_global":37,"time_elapsed":468157,"internal_chunk_id":"0-0.10-0"},{"feedback":"Sorry, that's incorrect. 3 is not a generator under +<sub>6</sub>, because 3 = 3, 0 = 3 +<sub>6</sub> 3, but there is no way to make 1, 2, 4, or 5 using just 3.","rt":9766,"trial_type":"feedback","trial_index":0,"trial_index_global":38,"time_elapsed":477925,"internal_chunk_id":"0-0.10-0"},{"question":"Is 5 a generator under +<sub>6</sub>? <br /><br /> (Remember, a generator is an element which can make every other element.)","response_type":"multi","response_choices":["Yes","No"],"correct_response":"Yes","response":"Yes","response_history":["Yes"],"rt":7650,"trial_type":"question","trial_index":0,"trial_index_global":39,"time_elapsed":485585,"internal_chunk_id":"0-0.10-0"},{"feedback":"Correct! 5 is a generator under +<sub>6</sub>, because 5 = 5, 4 = 5 +<sub>6</sub> 5, 3 = 5 +<sub>6</sub> 5 +<sub>6</sub> 5, 2 = 5 +<sub>6</sub> 5 +<sub>6</sub> 5 +<sub>6</sub> 5, 1 = 5 +<sub>6</sub> 5 +<sub>6</sub> 5 +<sub>6</sub> 5 +<sub>6</sub> 5, and 0 = 5 +<sub>6</sub> 5 +<sub>6</sub> 5 +<sub>6</sub> 5 +<sub>6</sub> 5 +<sub>6</sub> 5, so you can make all of the numbers under +<sub>6</sub> using 5","rt":8657,"trial_type":"feedback","trial_index":0,"trial_index_global":40,"time_elapsed":494242,"internal_chunk_id":"0-0.10-0"},{"question":"Is 4 a generator under  +<sub>6 </sub>? <br /><br /> (Remember, a generator is an element which can make every other element.)","response_type":"multi","response_choices":["Yes","No"],"correct_response":"No","response":"No","response_history":["No"],"rt":37938,"trial_type":"question","trial_index":0,"trial_index_global":41,"time_elapsed":532180,"internal_chunk_id":"0-0.10-0"},{"feedback":"Correct! 4 is not a generator under +<sub>6</sub>, because 4 = 4, 2 = 4 +<sub>6</sub> 4, and 0 = 4 +<sub>6</sub> 4 +<sub>6</sub> 4, but there is no way to make 1, 3, or 5 using just 4.","rt":3065,"trial_type":"feedback","trial_index":0,"trial_index_global":42,"time_elapsed":535255,"internal_chunk_id":"0-0.10-0"},{"question":"Is 0 a generator under +<sub>6</sub>? <br /><br /> (Remember, a generator is an element which can make every other element.)","response_type":"multi","response_choices":["Yes","No"],"correct_response":"No","response":"No","response_history":["No"],"rt":4850,"trial_type":"question","trial_index":0,"trial_index_global":43,"time_elapsed":540105,"internal_chunk_id":"0-0.10-0"},{"feedback":"Correct! 0 is not a generator under +<sub>6</sub>, because 0 = 0, but there is no way to make 1, 2, 3, 4, or 5 using just 0.","rt":1386,"trial_type":"feedback","trial_index":0,"trial_index_global":44,"time_elapsed":541491,"internal_chunk_id":"0-0.10-0"},{"instructions":"Now we are going to ask you some questions about a new operation, +<sub>9</sub>, on the numbers 0, 1, 2, 3, 4, 5, 6, 7, 8. It works exactly like +<sub>6</sub>, except now after adding the two numbers you subtract 9 if your result is 9 or greater. <br /><br />Do you see how +<sub>9</sub> works just like +<sub>6</sub>? By subtracting 9 every time we get above 8, we ensure that when we combine two numbers using +<sub>9</sub>, we only produce numbers between 0 and 8.<br /><br />We'll give you one practice question with feedback to make sure you understand the new operation. After that, try to complete the remaining questions as accurat ely as p ossible.","rt":8619,"trial_type":"instructions","trial_index":0,"trial_index_global":45,"time_elapsed":550120,"internal_chunk_id":"0-0"},{"question":"Practice: What is 5 +<sub>9</sub> 5?","response_type":"free","response_choices":[],"correct_response":"1","response":"1","response_history":["1"],"rt":5077,"trial_type":"question","trial_index":0,"trial_index_global":46,"time_elapsed":555197,"internal_chunk_id":"0-0.12-0"},{"feedback":"Correct! 5 +<sub>9</sub> 5 = 1 because 5 + 5 = 10 and 10 - 9 = 1.","rt":900,"trial_type":"feedback","trial_index":0,"trial_index_global":47,"time_elapsed":556107,"internal_chunk_id":"0-0.12-0"},{"question":"What is 3 +<sub>9</sub> 3?","response_type":"free","response_choices":[],"correct_response":"6","response":"6","response_history":["6"],"rt":9747,"trial_type":"question","trial_index":0,"trial_index_global":48,"time_elapsed":565854,"internal_chunk_id":"0-0.12-0"},{"question":"What is 7 +<sub>9</sub> 4?","response_type":"free","response_choices":[],"correct_response":"2","response":"2","response_history":["2"],"rt":3103,"trial_type":"question","trial_index":0,"trial_index_global":49,"time_elapsed":568957,"internal_chunk_id":"0-0.12-0"},{"question":"What is 1 +<sub>9</sub> 8?","response_type":"free","response_choices":[],"correct_response":"0","response":"0","response_history":["0"],"rt":2311,"trial_type":"question","trial_index":0,"trial_index_global":50,"time_elapsed":571268,"internal_chunk_id":"0-0.12-0"},{"question":"What is 5 +<sub>9</sub> 4?","response_type":"free","response_choices":[],"correct_response":"0","response":"0","response_history":["0"],"rt":4750,"trial_type":"question","trial_index":0,"trial_index_global":51,"time_elapsed":576018,"internal_chunk_id":"0-0.12-0"},{"question":"What is 6 +<sub>9</sub> 6?","response_type":"free","response_choices":[],"correct_response":"3","response":"3","response_history":["3"],"rt":2214,"trial_type":"question","trial_index":0,"trial_index_global":52,"time_elapsed":578232,"internal_chunk_id":"0-0.12-0"},{"question":"What is 4 +<sub>9</sub> 1? Please explain in words how you got your answer.","response_type":"free","response_choices":[],"correct_response":"","response":"4+1=5","response_history":["4+1 = 5","4+1 = ","4+1 =","4+1 ","4+1=5 ","4+1=5"],"rt":17267,"trial_type":"question","trial_index":0,"trial_index_global":53,"time_elapsed":595500,"internal_chunk_id":"0-0.12-0"},{"question":"What is 8 +<sub>9</sub> 4? Please explain in words how you got your answer.","response_type":"free","response_choices":[],"correct_response":"","response":"8+4=12, 12 is greater than 9, so I perform 12-9 to get the answer of 3","response_history":["12","1","8_+","8_","8+4=12, 12 is greater than 9, so i s","8+4=12, 12 is greater than 9, so i ","8+4=12, 12 is greater than 9, so i","8+4=12, 12 is greater than 9, so I perform 1","8+4=12, 12 is greater than 9, so I perform (12-9)","8+4=12, 12 is greater than 9, so I perform (12-9","8+4=12, 12 is greater than 9, so I perform ( 12-","8+ 4=12, 12 is greater than 9, so I perform (12","8+4=12, 12 is greater than 9, so I perform (1","8+4=12, 12 is greater than 9, so I perform (","8+4=12, 12 is greater than 9, so I perform 12-9 to get the anse","8+4=12, 12 is greater than 9, so I perform 12-9 to get the answer of 3"],"rt":36297,"trial_type":"question","trial_index":0,"trial_index_global":54,"time_elapsed":631797,"internal_chunk_id":"0-0.12-0"},{"question":"What is the identity under +<sub>9</sub>? Please explain in words how you got your answer.","response_type":"free","response_choices":[],"correct_response":"0","response":"The identity under the +9 operation is 9 I think, because that's the number that will give the result of 0 if you add 0 to it.","response_history":["The u","The identity under +","The identity under the _","The identity under the +9 operation is 9 t","The identity under the +9 operation is 9 I think, because thats the h","The identity under the +9 operation is 9 I think, because thats the ","The ide ntity under the +9 operation is 9 I think, because thats","The identity under the +9 operation is 9 I think, because that's number that a","The identity under the +9 operation is 9 I think, because that's number that ","The identity under the +9 operation is 9 I think, because that's number that when added to z","The identity under the +9 operation is 9 I think, because that's number that when added to 0 gives you a result of zero.","The identity under the +9 operation is 9","The identity under the +9 operation is 0 I think, because the answer of anything you add to 0 will be the number","The identity under the +9 operation is 9 I think, because that's the number htat","The identity under the +9 operation is 9 I think, because that's the number hta","The identity under the +9 operation is 9 I think, because that's the number ht","The identity under the +9 operation is 9 I think, because that's the number h","The identity under the +9 operation is 9 I think, because that's th e number  that will give the result of 0 if you add 0 to it."],"rt":145308,"trial_type":"question","trial_index":0,"trial_index_global":55,"time_elapsed":777105,"internal_chunk_id":"0-0.12-0"},{"question":"What is the inverse of 5 under +<sub>9</sub>?","response_type":"free","response_choices":[],"correct_response":"4","response":"1 I think, because 5 (+9) 5 = 1","response_history":["1 i ","1 i","1 I think?","1 I think, because 5 (+9) 5 = 1 [","1 I think, because 5 (+9) 5 = 1 ","1 I think, because 5 (+9) 5 = 1. ","1 I think, because 5 (+9) 5 = 1.","1 I think, because 5 (+9) 5 = 1"],"rt":61377,"trial_type":"question","trial_index":0,"trial_index_global":56,"time_elapsed":838482,"internal_chunk_id":"0-0.12-0"},{"question":"What is the inverse of 2 under +<sub>9</sub>?","response_type":"free","response_choices":[],"correct_response":"7","response":"The inverse is 11 because 11-9 would equal 2. (I think this is more correct than the method I used in my last response)","response_history":["The in verse is 11 because 11 ","The inverse is 11 because 11-9 would equal 2. ( ","The inverse is 11 because 11-9 would equal 2. (I think this is more correct than the method I used in my last response)"],"rt":82636,"trial_type":"question","trial_index":0,"trial_index_global":57,"time_elapsed":921118,"internal_chunk_id":"0-0.12-0"},{"question":"What is the inverse of 0 under +<sub>9</sub>?","response_type":"free","response_choices":[],"correct_response":"0","response":"9 would be the inverse of 0 since a sum of 9 would get 9 subtracted from it, and equal 0.","response_history":["9 would be the inverse of 0 since a sum of 9 would get 9 subr","9 would be the inverse of 0 since a sum of 9 would get 9 subtracted from","9 would be the inverse of 0 since a sum of 9 would get 9 subtracted from it, and qu","9 would be the inverse of 0 since a sum of 9 would get 9 subtracted from it, and q","9 would be the inverse of 0 since a sum of 9 would get 9 subtracted from it, and eu","9 would be th e invers e of 0 since a sum of 9 would get 9 subtracted from it, and equal 0."],"rt":28562,"trial_type":"question","trial_index":0,"trial_index_global":58,"time_elapsed":949681,"internal_chunk_id":"0-0.12-0"},{"question":"What is the inverse of 3 under +<sub>9</sub>? Please explain in words how you got your answer.","response_type":"free","response_choices":[],"correct_response":"","response":"Inverse of 3 would be 12, since the sum of 12 minus 9 would give you 3.","response_history":["Inverse of 3 would be 12, since the sum of 12 minus 9 would give you 3."],"rt":24518,"trial_type":"question","trial_index":0,"trial_index_global":59,"time_elapsed":974199,"internal_chunk_id":"0-0.12-0"},{"question":"Is 2 a generator under +<sub>9</sub>? Please explain in words how you got your answer.","response_type":"free","response_choices":[],"correct_response":"","response":"No, I don't think so. 2(+9)2=4 Adding an addition '(+9)2' to the left side of the equation each time would give you the foll owing re sults [6, 8, 1, 3, 5, 7, 9, 2, 4...]. Zero is never obtained, so it's not a generator.","response_history":["Yes I think so. 2 (","Yes I think so. 2 ","Yes I think so. 2(_9","Yes I think so. 2(_","Yes I think so. 2(_","Yes I think so. 2(+0","Yes I think so. 2(+9)2 ","Yes I think so. 2(+9)2=4 Adding an addition '(_","Yes I think so. 2(+9)2=4 Adding an addition '(+9)2' to the e","Yes I think so. 2(+9)2=4 Adding an addition '(+9)2' to the ","Yes I think so. 2(+9)2=4 Adding an addition '(+9)2' to the","Yes I think so. 2(+9)2=4 Adding an addition '(+9)2' to th","Yes I think so. 2(+9)2=4 Adding an addition '(+9)2' to t","Yes I think so. 2(+9)2=4 Adding an addition '(+9)2' to ","Yes I think so. 2(+9)2=4 Adding an addition '(+9)2' to","Yes I think so. 2(+9)2=4 Adding an addition '(+9)2' t","Yes I think so. 2(+9)2=4 Adding an addition '(+9)2' to the left side of the equation each time woul d","Yes I think so. 2(+9)2=4 Adding an addition '(+9)2' to the left side of the equation each t ime woul  ","Yes I think so. 2(+9)2=4 Adding an addition '(+9)2' to the left side of the equation each time would give you the results o","Yes I think so. 2(+9)2=4 Adding an addition '(+9)2' to the left side of the equation each time would give you the results ","Yes I think so. 2(+9)2=4 Adding an addition '(+9)2' to the left side of the equation each time would give you the results","Yes I think so. 2(+9)2=4 Adding an addition '(+9)2' to the left side of the equation each time would give you the following results [6, 8, 1, 3, 5, 7 ","Yes I think so. 2(+9)2=4 Adding an addition '(+9)2' to the left side of the equation each time would give you the following results [6, 8, 1, 3, 5, 7, 9]. ","YesIthinkso.2(+9)2=4Addinganaddition'(+9)2'totheleftsideoftheequationeachtimewouldgiveyouthefollowingresults[6,8,1,3,5,7,9].","YesIthinkso.2(+9)2=4Addinganaddition'(+9)2'totheleftsideoftheequationeachtimewouldgiveyouthefollowingresults[6,8,1,3,5,7,9].Zeroisnever","YesIthinkso.2(+9)2=4Addinganaddition'(+9)2'totheleftsideoftheequationeachtimewouldgiveyouthefollowingresults[6,8,1,3,5,7,9,].Zeroisnever","YesIthinkso.2(+9)2=4Addinganaddition'(+9)2'totheleftsideoftheequationeachtimewouldgiveyouthefollowingresults[6,8,1,3,5,7,9,].Zeroisnever","YesIthinkso.2(+9)2=4Addinganaddition'(+9)2'totheleftsideoftheequationeachtimewouldgiveyouthefollowingresults[6,8,1,3,5,7,9,2].Zeroisnever","YesIthinkso.2(+9)2=4Addinganaddition'(+9)2'totheleftsideoftheequationeachtimewouldgiveyouthefollowingresults[6,8,1,3,5,7,9,2,].Zeroisnever","YesIthinkso.2(+9)2=4Addinganaddition'(+9)2'totheleftsideoftheequationeachtimewouldgiveyouthefollowingresults[6,8,1,3,5,7,9,2,].Zeroisnever","YesIthinkso.2(+9)2=4Addinganaddition'(+9)2'totheleftsideoftheequationeachtimewouldgiveyouthefollowingresults[6,8,1,3,5,7,9,2,4].Zeroisnever","YesIthinkso.2(+9)2=4Addinganaddition'(+9)2'totheleftsideoftheequationeachtimewouldgiveyouthefollowingresults[6,8,1,3,5,7,9,2,4,].Zeroisnever","YesIthinkso.2(+9)2=4Addinganaddition'(+9)2'totheleftsideoftheequationeachtimewouldgiveyouthefollowingresults[6,8,1,3,5,7,9,2,4,].Zeroisnever","YesIthinkso.2(+9)2=4Addinganaddition'(+9)2'totheleftsideoftheequationeachtimewouldgiveyouthefollowingresults[6,8,1,3,5,7,9,2,4,].Zeroisnever","YesIthinkso.2(+9)2=4Addinganaddition'(+9)2'totheleftsideoftheequationeachtimewouldgiveyouthefollowingresults[6,8,1,3,5,7,9,2,4].Zeroisnever","YesIthinkso.2(+9)2=4Addinganaddition'(+9)2'totheleftsideoftheequationeachtimewouldgiveyouthefollowingresults[6,8,1,3,5,7,9,2,4.].Zeroisnever","YesIthinkso.2(+9)2=4Addinganaddition'(+9)2'totheleftsideoftheequationeachtimewouldgiveyouthefollowingresults[6,8,1,3,5,7,9,2,4..].Zeroisnever","YesIthinkso.2(+9)2=4Addinganaddition'(+9)2'totheleftsideoftheequationeachtimewouldgiveyouthefollowingresults[6,8,1,3,5,7,9,2,4...].Zeroisneverobtained","N.2(+9)2=4Addinganaddition'(+9)2'totheleftsideoftheequationeachtimewouldgiveyouthefollowingresults[6,8,1,3,5,7,9,2,4...].Zeroisneverobtained","No.2(+9)2=4Addinganaddition'(+9)2'totheleftsideoftheequationeachtimewouldgiveyouthefollowingresults[6,8,1,3,5,7,9,2,4...].Zeroisneverobtained","No,.2(+9)2=4Addinganaddition'(+9)2'totheleftsideoftheequationeachtimewouldgiveyouthefollowingresults[6,8,1,3,5,7,9,2,4...].Zeroisneverobtained","No,.2(+9)2=4Addinganaddition'(+9)2'totheleftsideoftheequationeachtimewouldgiveyouthefollowingresults[6,8,1,3,5,7,9,2,4...].Zeroisneverobtained","No,I.2(+9)2=4Addinganaddition'(+9)2'totheleftsideoftheequationeachtimewouldgiveyouthefollowingresults[6,8,1,3,5,7,9,2,4...].Zeroisneverobtained","No,I.2(+9)2=4Addinganaddition'(+9)2'totheleftsideoftheequationeachtimewouldgiveyouthefollowingresults[6,8,1,3,5,7,9,2,4...].Zeroisneverobtained","No,Ido.2(+9)2=4Addinganaddition'(+9)2'totheleftsideoftheequationeachtimewouldgiveyouthefollowingresults[6,8,1,3,5,7,9,2,4...].Zeroisneverobtained","No,Idon.2(+9)2=4Addinganaddition'(+9)2'totheleftsideoftheequationeachtimewouldgiveyouthefollowingresults[6,8,1,3,5,7,9,2,4...].Zeroisneverobtained","No,Idon'.2(+9)2=4Addinganaddition'(+9)2'totheleftsideoftheequationeachtimewouldgiveyouthefollowingresults[6,8,1,3,5,7,9,2,4...].Zeroisneverobtained","No,Idon't.2(+9)2=4Addinganaddition'(+9)2'totheleftsideoftheequationeachtimewouldgiveyouthefollowingresults[6,8,1,3,5,7,9,2,4...].Zeroisneverobtained","No,Idon't.2(+9)2=4Addinganaddition'(+9)2'totheleftsideoftheequationeachtimewouldgiveyouthefollowingresults[6,8,1,3,5,7,9,2,4...].Zeroisneverobtained","No,Idon'tth.2(+9)2=4Addinganaddition'(+9)2'totheleftsideoftheequationeachtimewouldgiveyouthefollowingresults[6,8,1,3,5,7,9,2,4...].Zeroisneverobtained","No,Idon'tthi.2(+9)2=4Addinganaddition'(+9)2'totheleftsideoftheequationeachtimewouldgiveyouthefollowingresults[6,8,1,3,5,7,9,2,4...].Zeroisneverobtained","No,Idon'tthink.2(+9)2=4Addinganaddition'(+9)2'totheleftsideoftheequationeachtimewouldgiveyouthefollowingresults[6,8,1,3,5,7,9,2,4...].Zeroisneverobtained","No,Idon'tthinks.2(+9)2=4Addinganaddition'(+9)2'totheleftsideoftheequationeachtimewouldgiveyouthefollowingresults[6,8,1,3,5,7,9,2,4...].Zeroisneverobtained","No,Idon'tthinkso.2(+9)2=4Addinganaddition'(+9)2'totheleftsideoftheequationeachtimewouldgiveyouthefollowingresults[6,8,1,3,5,7,9,2,4...].Zeroisneverobtained,soit'snotagenerator."],"rt":214459,"trial_type":"question","trial_index":0,"trial_index_global":60,"time_elapsed":1188658,"internal_chunk_id":"0-0.12-0"},{"question":"Is 3 a generator under +<sub>9</sub>? Please explain in words how you got your answer.","response_type":"free","response_choices":[],"correct_response":"","response":"No, I don't think so. 3(+9)3=6 Adding an additional (+9)3 to the left side of the equation will give you the results [0, 3, 6, 9] but none of the other numbers.","response_history":["No, I don't think so. T","No, I don't think so. 3(_","No, I don't think so. 3(+9)3 ","No, I don't think so. 3(+9)3=6. ","No, I don't think so. 3(+9)3=6.","No,  I don't  think so. 3(+9)3=6 Adding an additional (_","No, I don't think so. 3(+9)3=6 Adding an additional (+9)3 to ea","No, I don't think so. 3(+9)3=6 Adding an additional (+9)3 to e","No, I don't think so. 3(+9)3=6 Adding an additional (+9)3 to the left side of the equation will give you the results [","No, I don't think so. 3(+9)3=6 Adding an additional (+9)3 to the left side of the equation will give you the results ","No, I don't think so. 3(+9)3=6 Adding an additional (+9)3 to the left side of the equation will give you the results:","No, I don't think so. 3(+9)3=6 Adding an additional (+9)3 to the left side of the equation will give you the results [3","No, I don't think so. 3(+9)3=6 Adding an additional (+9)3 to the left side of the equation will give you the results [0,3,6,9] but nev","No,Idon'tthinkso.3(+9)3=6Addinganadditional(+9)3totheleftsideoftheequationwillgiveyoutheresults[0,3,6,9]butne","No,Idon'tthinkso.3(+9)3=6Addinganadditional(+9)3totheleftsideoftheequationwillgiveyoutheresults[0,3,6,9]butno","No,Idon'tthinkso.3(+9)3=6Addinganadditional(+9)3totheleftsideoftheequationwillgiveyoutheresults[0,3,6,9]butnoneoftheothernumbers.","No,Idon'tthinkso.3(+9)3=6Addinganadditional(+9)3totheleftsideoftheequationwillgiveyoutheresults[0,3,6,9]butnoneoftheothernumbers.","No,Idon'tthinkso.3(+9)3=6Addinganadditional(+9)3totheleftsideoftheequationwillgiveyoutheresults[0,3,6,9]butnoneoftheothernumbers.","No,Idon'tthinkso.3(+9)3=6Addinganadditional(+9)3totheleftsideoftheequationwillgiveyoutheresults[0,3,6,9]butnoneoftheothernumbers."],"rt":99917,"trial_type":"question","trial_index":0,"trial_index_global":61,"time_elapsed":1288575,"internal_chunk_id":"0-0.12-0"},{"question":"Is 5 a generator under +<sub>9</sub>? Please explain in words how you got your answer.","response_type":"free","response_choices":[],"correct_response":"","response":"I don't think so. Using the 5(+9)5 formula, and adding on an addition (+9)5 each time, I am only able to get [0, 1, 2, 3, 5, 6, 7, 8] before the pattern of results starts to repeat itself.","response_history":["I don't think so. U","I don't think so. U","I don't think so. Using the 5(_","I don't think so. Using the 5(+9)5 fro","I don't think so. Using the 5(+9)5 fr","I don't think so. Using the 5(+9)5 fro","I don't think so. Using the 5(+9)5 fr","I don't think so. Using the 5(+9)5 formula, and adding on an addition _","I don't think so. Using the 5(+9)5 formula, and adding on an addition (_","I don't think so. Using the 5(+9)5 formula, and adding on an addition (+9)5 each time,","I don't think so. Using the 5(+9)5 formula, and adding on an addition (+9)5 each time, I am aon","I don't think so. Using the 5(+9)5 formula, and adding on an addition (+9)5 each time, I am ao","I don't think so. Using the 5(+9)5 formula, and adding on an addition (+9)5  each ti me, I am a","I don't think so. Using the 5(+9)5 formula, and adding on an addition (+9)5 each time, I am only able to get [0, 1, 2, 3,5, 6, 7, 8]","Idon'tthinkso.Usingthe5(+9)5formula,andaddingonanaddition(+9)5eachtime,Iamonlyabletoget[0,1,2,3,5,6,7,8]beforethepatternofresultssta","Idon'tthinkso.Usingthe5(+9)5formula,andaddingonanaddition(+9)5eachtime,Iamonlyabletoget[0,1,2,3,5,6,7,8]beforethepatternofresultsst","Idon'tthinkso.Usingthe5(+9)5formula,andaddingonanaddition(+9)5eachtime,Iamonlyabletoget[0,1,2,3,5,6,7,8]beforethepatternofresultsstartstorepeat.","Idon'tthinkso.Usingthe5(+9)5formula,andaddingonanaddition(+9)5eachtime,Iamonlyabletoget[0,1,2,3,5,6,7,8]beforethepatternofresultsstartstorepeat.","Idon'tthinkso.Usingthe5(+9)5formula,andaddingonanaddition(+9)5eachtime,Iamonlyabletoget[0,1,2,3,5,6,7,8]beforethepatternofresultsstartstorepeati.","Idon'tthinkso.Usingthe5(+9)5formula,andaddingonanaddition(+9)5eachtime,Iamonlyabletoget[0,1,2,3,5,6,7,8]beforethepatternofresultsstartstorepeatit.","Idon'tthinkso.Usingthe5(+9)5formula,andaddingonanaddition(+9)5eachtime,Iamonlyabletoget[0,1,2,3,5,6,7,8]beforethepatternofresultsstartstorepeatits.","Idon'tthinkso.Usingthe5(+9)5formula,andaddingonanaddition(+9)5eachtime,Iamonlyabletoget[0,1,2,3,5,6,7,8]beforethepatternofresultsstartstorepeatitse.","Idon'tthinkso.Usingthe5(+9)5formula,andaddingonanaddition(+9)5eachtime,Iamonlyabletoget[0,1,2,3,5,6,7,8]beforethepatternofresultsstartstorepeatitsel.","Idon'tthinkso.Usingthe5(+9)5formula,andaddingonanaddition(+9)5eachtime,Iamonlyabletoget[0,1,2,3,5,6,7,8]beforethepatternofresultsstartstorepeatitself."],"rt":226076,"trial_type":"question","trial_index":0,"trial_index_global":62,"time_elapsed":1514651,"internal_chunk_id":"0-0.12-0"},{"question":"Is 6 a generator under +<sub>9</sub>? Please explain in words how you got your answer.","response_type":"free","response_choices":[],"correct_response":"","response":"I was only able to get [0, 3, 6] for results when using a 6(+9)6 formula, adding on an additional (+9)6 each time. So no, 6 is not a generator.","response_history":["I was only able ","I was only able to get [0,3","I was only able to get [0, 3, 6,","I was only able to get [0, 3, 6","I was only able to get [0, 3, 6] for results when using a 6(+9)6(","Iwasonlyabletoget[0,3,6]forresultswhenusinga6(+9)6formula","Iwasonlyabletoget[0,3,6]forresultswhenusinga6(+9)6formula,addingonanadditional(_","Iwasonlyabletoget[0,3,6]forresultswhenusinga6(+9)6formula,addingonanadditional(+9)6eachtime.s","Iwasonlyabletoget[0,3,6]forresultswhenusinga6(+9)6formula,addingonanadditional(+9)6eachtime.Sono,itisnotagene","Iwasonlyabletoget[0,3,6]forresultswhenusinga6(+9)6formula,addingonanadditional(+9)6eachtime.Sono,6i","Iwasonlyabletoget[0,3,6]forresultswhenusinga6(+9)6formula,addingonanadditional(+9)6eachtime.Sono,6isnotagenerator."],"rt":129799,"trial_type":"question","trial_index":0,"trial_index_global":63,"time_elapsed":1644451,"internal_chunk_id":"0-0.12-0"},{"instructions":"Now we'd like to ask you some questions about +<sub>n</sub>, where n could be any postive counting number. For example, n could be 3, or n could be any other counting number you can think of. If you need to write the operation, you can use +_n, and your answers can include n to stand in for the arbitrary value if necessary.","rt":13271,"trial_type":"instructions","trial_index":0,"trial_index_global":64,"time_elapsed":1657722,"internal_chunk_id":"0-0"},{"question":"What  is the formula for the inverse of 1 under +<sub>n</sub>?","response_type":"free","response_choices":[],"correct_response":"n-1","response":"1+n","response_history":["!+","!","!","1+n"],"rt":44984,"trial_type":"question","trial_index":0,"trial_index_global":65,"time_elapsed":1702706,"internal_chunk_id":"0-0.14-0"},{"question":"What is the formula for the inverse of an element x under +<sub>n</sub>? Please explain in words how you got your answer.","response_type":"free","response_choices":[],"correct_response":"n-x","response":"x+n would be the inverse, I think. Since you subtract n from the sum of operation, you want that sum to be x+n, so that you end up with x after subtracting n. If x=2 and n=4 for example, the inverse would be 6. Since 2 is what you would get after subtracting 4 from a sum of 6.","response_history":["x+n would be the inverse I t","x+n would be the inverse I ","x+n would be the inverse I","x+n would be the inverse ","x+n would be the inverse, I think. Sin ce you s ubtract n from the sum of operation, you want that sum to be X","x+n would be the inverse, I think. Since you subtract n from the sum of operation, you want that sum to be x+n, so that you end u ","x+n would be the inverse, I think. Since you subtract n from the sum of operation, you want that sum to be x+n, so that you end up with x after subtracting n. If x was ","x+n would be the inverse, I think. Since you subtract n from the sum of operation, you want that sum to be x+n, so that you end up with x after subtracting n. If x was","x+n would be the inverse, I think. Since you subtract n from the sum of operation, you want that sum to be x+n, so that you end up with x after subtracting n. If x wa","x+n would be the inverse, I think. Since you subtract n from the sum of operation, you want that sum to be x+n, so that you end up with x after subtracting n. If x w","x+n would be the inverse, I think. Since you subtract n from the sum of operation, you want that sum to be x+n, s o that y ou end up with x after subtracting n. If x ","x+n would be the inverse, I think. Since you subtract n from the sum of operation, you want that sum to be x+n, so that you end up with x after subtracting n. If x=4 and ","x+n would be the inverse, I think. Since you subtract n from the sum of operation, you want that sum to be x+n, so that you end up with x after subtracting n. If x=4 and","x+n would be the inverse, I think. Since you subtract n from the sum of operation, you want that sum to be x+n, so that you end up with x after subtracting n. If x=4 an","x+n would be the inverse, I think. Since you subtract n from the sum of operation, you want that sum to be x+n, so that you end up with x after subtracting n. If x=4 a","x+n would be the inverse, I think. Since you subtract n from the sum of operation, you want that sum to be x+n, so that you end up with x after subtracting n. If x=4 ","x+n would be the inverse, I think. Since you subtract n from the sum of operation, you w ant that  sum to be x+n, so that you end up with x after subtracting n. If x=4","x+n would be the inverse, I think. Since you subtract n from the sum of operation, you want that sum to be x+n, so that you end up with x after subtracting n. If x=2 and n=-","x+n would be the inverse, I think. Since you subtract n from the sum of operation, you want that sum to be x+n, so that you end up with x after subtracting n. If x=2 and n=4,","x+n would be the inverse, I think. Since you subtract n from the sum of operation, you want that sum to be x+n, so that you end up with x after subtracting n. If x=2 and n=4 for example, the inverse would be 6.","x+n would be the inverse, I think. Since you subtract n from the sum of operation, you want that sum to be x+n, so that you end up with x after subtracting n. If x=2 and n=4 for example, the inverse would be 6-","x+n would be the inverse, I think. Since you subtract n from the sum of operation, you want that sum to be x+n, so that you end up with x  after su btracting n. If x=2 and n=4 for example, the inverse would be 6 ","x+n would be the inverse, I think. Since you subtract n from the sum of operation, you want that sum to be x+n, so that you end up with x after subtracting n. If x=2 and n=4 for example, the inverse would be 6. Since 6","x+n would be the inverse, I think. Since you subtract n from the sum of operation, you want that sum to be x+n, so that you end up with x after subtracting n. If x=2 and n=4 for example, the inverse would be 6. Since a sum of 6","x+n would be the inverse, I think. Since you subtract n from the sum of operation, you want that sum to be x+n, so that you end up with x after subtracting n. If x=2 and n=4 for example, the inverse would be 6. Since a sum","x+n would be the inverse, I think. Since you subtract n from the sum of operation, you want that sum to be x+n, so that you end up with x after subtracting n. If x=2 and n=4 for example, the inverse would be 6. Since a su","x+n would be the inver se, I th ink. Since you subtract n from the sum of operation, you want that sum to be x+n, so that you end up with x after subtracting n. If x=2 and n=4 for example, the inverse would be 6. Since a s","x+n would be the inverse, I think. Since you subtract n from the sum of operation, you want that sum to be x+n, so that you end up with x after subtracting n. If x=2 and n=4 for example, the inverse would be 6. Since a ","x+n would be the inverse, I think. Since you subtract n from the sum of operation, you want that sum to be x+n, so that you end up with x after subtracting n. If x=2 and n=4 for example, the inverse would be 6. Since a","x+n would be the inverse, I think. Since you subtract n from the sum of operation, you want that sum to be x+n, so that you end up with x after subtracting n. If x=2 and n=4 for example, the inverse would be 6. Since 2 is what you would get after subtracting 4 from a sum of 6."],"rt":104597,"trial_type":"question","trial_index":0,"trial_index_global":66,"time_elapsed":1807303,"internal_chunk_id":"0-0.14-0"},{"question":"Is there a pattern to which elements are generators? How can you know if an element x is a generator under +<sub>n</sub> without seeing whether it can make all the elements?.","response_type":"free","response_choices":[],"correct_response":"","response":"There probably is, but I didn't notice any. I wrote the formulas out by hand, adding an additional +_n segment each time and kept track of the results.","response_history":["i C","i ","i","I c","I ","I","THer","THe","TH","There probably is, but I didn't notice any. I did the ","There probably is, but I didn't notice any. I wrote the foru","There probably is, but I didn't notice any. I wrote the formulas out my","There probably is, but I didn't notice any. I wrote the formulas out m","There probably is, but I didn't notice any. I wrote the formulas out by hadn ","There probably is, but I didn't notice any. I wrote the formulas out by hadn","There probably is, but  I didn't  notice any. I wrote the formulas out by had","There probably is, but I didn't notice any. I wrote the formulas out by haan","There probably is, but I didn't notice any. I wrote the formulas out by haa","There probably is, but I didn't notice any. I wrote the formulas out by hand, adding an additional _","There probably is, but I didn't notice any. I wrote the formulas out by hand, adding an additional +)","There probably is, but I didn't notice any. I wrote the formulas out by hand, adding an additional +_n each time ","There probably is, but I didn't notice any. I wrote the formulas out by hand, adding an additional +_n each time","There probably is, but I didn't notice any. I wrote the formulas out by hand, adding an additional +_n each tim","There probably is, but I didn't notice any. I wrote the formulas out by hand, adding an additional +_n e","There probably is, but I didn't notice any. I wrote the formulas out by hand, adding an additional +_n ","There probably is, b ut I did n't notice any. I wrote the formulas out by hand, adding an additional +_n segment each time and kept track of results.","There probably is, but I didn't notice any. I wrote the formulas out by hand, adding an additional +_n segment each time and kept track of ","There probably is, but I didn't notice any. I wrote the formulas out by hand, adding an additional +_n segment each time and kept track of the results."],"rt":63765,"trial_type":"question","trial_index":0,"trial_index_global":67,"time_elapsed":1871068,"internal_chunk_id":"0-0.14-0"},{"question":"True or false: If x is an odd number, it must be a generator under +<sub>n</sub>.","response_type":"multi","response_choices":["True","False"],"correct_response":"False","response":"False","response_history":["False"],"rt":19674,"trial_type":"question","trial_index":0,"trial_index_global":68,"time_elapsed":1890742,"internal_chunk_id":"0-0.14-0"},{"question":"True or false: If x is an even number, it must not be a generator u nder +<s ub>n</sub>.","response_type":"multi","response_choices":["True","False"],"correct_response":"False","response":"False","response_history":["False"],"rt":3097,"trial_type":"question","trial_index":0,"trial_index_global":69,"time_elapsed":1893839,"internal_chunk_id":"0-0.14-0"},{"question":"True or false: If x is not a generator under +<sub>n</sub>, x must be a divisor of n, that is, x must divide n evenly, with no remainder.","response_type":"multi","response_choices":["True","False"],"correct_response":"False","response":"False","response_history":["True","False"],"rt":22944,"trial_type":"question","trial_index":0,"trial_index_global":70,"time_elapsed":1916783,"internal_chunk_id":"0-0.14-0"},{"question":"True or false: If x is not a generator under +<sub>n</sub>, x must be a multiple of a divisor of n. Please explain in words why your answer is correct.","response_type":"free","response_choices":[],"correct_response":"True","response":"When I did the problems to determine if  a numbe r was a generator or not I had both odd and even numbers come up as non-generators. The odd number though might have been a generator if I did many more trials, as it's pattern seemed weaker than the even numbers. So this *could* be true perhaps.","response_history":["When I did the ","When I did the problems looking for numbers of ","When I did the problems lo","When I did the problems l","When I did the problems to determine if a number was a generator or not, ","When I did the problems to determine if a number was a generator or not,","When I did the problems to determine if a number was a generator or not ","When I did the problems to determine if a number was a generator or not I had both odd and even numbers be ","When I did the problems to determine if a number was a generator or not I had both odd and even numbers be","When I did the problems to determine if a number was a generator or not I had both odd and even numbers b","When I did the problems to determine if a  number w as a generator or not I had both odd and even numbers come up as non-generators. Od","When I did the problems to determine if a number was a generator or not I had both odd and even numbers come up as non-generators. O","When I did the problems to determine if a number was a generator or not I had both odd and even numbers come up as non-generators. The odd number though had ","When I did the problems to determine if a number was a generator or not I had both odd and even numbers come up as non-generators. The odd number though had","When I did the problems to determine if a number was a generator or not I had both odd and even numbers come up as non-generators. The odd number though ha","When I did the problems to determine if a number was a generator or not I had both odd and even numbers come up as non-generators. The odd number though h","When I did the problems to determine if a number was a generator or not I had both odd and even numbers come up as non-generators. The  odd num ber though might have been if i","When I did the problems to determine if a number was a generator or not I had both odd and even numbers come up as non-generators. The odd number though might have been if ","When I did the problems to determine if a number was a generator or not I had both odd and even numbers come up as non-generators. The odd number though might have been if","When I did the problems to determine if a number was a generator or not I had both odd and even numbers come up as non-generators. The odd number though might have been i","When I did the problems to determine if a number was a generator or not I had both odd and even numbers come up as non-generators. The odd number though might have been a generator though ","When I did the problems to determine if a number was a generator or not I had both odd and even numbers come up as non-generators. The odd number though might have been a generator though","When I did the problems to determine if a number was  a gener ator or not I had both odd and even numbers come up as non-generators. The odd number though might have been a generator thoug","When I did the problems to determine if a number was a generator or not I had both odd and even numbers come up as non-generators. The odd number though might have been a generator thou","When I did the problems to determine if a number was a generator or not I had both odd and even numbers come up as non-generators. The odd number though might have been a generator tho","When I did the problems to determine if a number was a generator or not I had both odd and even numbers come up as non-generators. The odd number though might have been a generator th","When I did the problems to determine if a number was a generator or not I had both odd and even numbers come up as non-generators. The odd number though might have been a generator t","When I did the problems to determine if a number was a generator or not I had both odd and even numbers come up as  non-gen erators. The odd number though might have been a generator if I did many more tir","When I did the problems to determine if a number was a generator or not I had both odd and even numbers come up as non-generators. The odd number though might have been a generator if I did many more ti","When I did the problems to determine if a number was a generator or not I had both odd and even numbers come up as non-generators. The odd number though might have been a generator if I did many more trials. ","When I did the problems to determine if a number was a generator or not I had both odd and even numbers come up as non-generators. The odd number though might have been a generator if I did many more trials.","When I did the problems to determine if a number was a generator or not I had both odd and even numbers come up as non-generators. The odd number though might have been a generator if I did many more trials, as it ","When I did the problems to determine if a number was a generat or or no t I had both odd and even numbers come up as non-generators. The odd number though might have been a generator if I did many more trials, as it'[s","When I did the problems to determine if a number was a generator or not I had both odd and even numbers come up as non-generators. The odd number though might have been a generator if I did many more trials, as it'[","When I did the problems to determine if a number was a generator or not I had both odd and even numbers come up as non-generators. The odd number though might have been a generator if I did many more trials, as it's payy","When I did the problems to determine if a number was a generator or not I had both odd and even numbers come up as non-generators. The odd number though might have been a generator if I did many more trials, as it's pay","When I did the problems to determine if a number was a generator or not I had both odd and even numbers come up as non-generators. The odd number though might have been a genera tor if I  did many more trials, as it's pattern seemed weaker than the even numbers. So this *could* be true perhaps."],"rt":108932,"trial_type":"question","trial_index":0,"trial_index_global":71,"time_elapsed":2025715,"internal_chunk_id":"0-0.14-0"},{"question":"If an element x is a generator under +<sub>n</sub>, is its inverse a generator under +<sub>n</sub> always, sometimes, or never?","response_type":"multi","response_choices":["Always","Sometimes","Never"],"correct_response":"Always","response":"Sometimes","response_history":["Sometimes"],"rt":43627,"trial_type":"question","trial_index":0,"trial_index_global":72,"time_elapsed":2069344,"internal_chunk_id":"0-0.14-0"},{"question":"if an element x is a generator under +<sub>n</sub>, is x +<sub>n</sub> x a generator under +<sub>n</sub> always, sometimes, or never? Please explain in words why your answer is correct.","response_type":"free","response_choices":[],"correct_response":"sometimes","response":"Maybe. If I assume I was inco rrect an d 5 was a generator of +_9, the result of 5 +_9 5 is 1. I think 1 would always be a generator for +_n. ","response_history":["Maybe ","Maybe. If I assume I incorrectly ","Maybe. If I assume I ","Maybe. If I assume Iw","Maybe. If I assume I was incorrect and 5 was  a","Maybe. If I assume I was incorrect and 5 was  ","Maybe. If I assume I was incorrect and 5 was a generator of 9","Maybe. If I assume I was incorrect and 5 was a generator of +)_","Maybe. If I assume I was incorrect and 5 was a generator of +)","Maybe. If I assume I was incorrect and 5 was a generator of +)_","Maybe. If I assume I was incorrect and 5 was a generator of +)","Maybe. If I assume I was incorrect and 5 was a generator of +_9, I think ","Maybe. If I assume I was incorrect and 5 was a generator of +_9, I think","Maybe. If I assume I was incorrect and 5 was a generator of +_9, I thin","Maybe. If I assume I was incorrect and 5 was a generator of +_9, I thi","Maybe. If I assume I was incorrect and 5 was a  generato r of +_9, I th","Maybe. If I assume I was incorrect and 5 was a generator of +_9, I t","Maybe. If I assume I was incorrect and 5 was a generator of +_9, I ","Maybe. If I assume I was incorrect and 5 was a generator of +_9, I","Maybe. If I assume I was incorrect and 5 was a generator of +_9, the result of 5 _","Maybe. If I assume I was incorrect and 5 was a generator of +_9, the result of 5 +_9 5 is 1. I think 1 would always be a gne","Maybe. If I assume I was incorrect and 5 was a generator of +_9, the result of 5 +_9 5 is 1. I think 1 would always be a gn","Maybe. If I assume I was incorrect and 5 was a generator of +_9, the result of 5 +_9 5 is 1. I think 1 would always be a generator for +_N","Maybe. If I assume I was incorrect and 5 was a generator of +_9, the result of 5 +_9 5 is 1. I think 1 would always be a generator for +_n. "],"rt":121347,"trial_type":"question","trial_index":0,"trial_index_global":73,"time_elapsed":2190691,"internal_chunk_id":"0-0.14-0"},{"question":"If a n element x is not a generator under +<sub>n</sub>, is x +<sub>n</sub> x a generator under +<sub>n</sub> always, sometimes, or never?","response_type":"multi","response_choices":["Always","Sometimes","Never"],"correct_response":"Never","response":"Never","response_history":["Never"],"rt":63918,"trial_type":"question","trial_index":0,"trial_index_global":74,"time_elapsed":2254611,"internal_chunk_id":"0-0.14-0"},{"instructions":"We would like to ask you some questions about your background. Please press Continue to continue.","rt":1568,"trial_type":"instructions","trial_index":0,"trial_index_global":75,"time_elapsed":2256180,"internal_chunk_id":"0-0.15-0"},{"question":"What is your age?","response_type":"free","response_choices":[],"correct_response":"","response":"29","response_history":["29"],"rt":2000,"trial_type":"question","trial_index":0,"trial_index_global":76,"time_elapsed":2258181,"internal_chunk_id":"0-0.15-0"},{"question":"What is your level of education?","response_type":"multi","response_choices":["Did not graduate high school","High school diploma","Some college, no degree","Associates Degree","Bachelors Degree","Some graduate school, no degree","Masters Degree","Doctorate, M.D., etc."],"correct_response":"","response":"Some college, no degree","response_history":["Some college, no degree"],"rt":2138,"trial_type":"question","trial_index":0,"trial_index_global":77,"time_elapsed":2260320,"internal_chunk_id":"0-0.15-0"},{"question":"What is the most advanced math class you've completed? If you have multiple classes and you're not sure which one is most advanced, please list them.","response_type":"free","response_choices":[],"correct_response":"","response":"Pre-calculus","response_history":["Pre-calculus"],"rt":9040,"trial_type":"question","trial_index":0,"trial_index_global":78,"time_elapsed":2269361,"internal_chunk_id":"0-0.15-0"},{"question":"How familiar are you with the concept of modular arithmetic?","response_type":"multi","response_choices":["1 - never heard of it","2 - heard of it but didn't know what it was","3 - seen it used or explained","4 - used it but not often or recently","5 - used it, remember and understand it"],"correct_response":"1","response":"1 - never heard of it","response_history":["1 - never heard of it"],"rt":7553,"trial_type":"question","trial_index":0,"trial_index_global":79,"time_elapsed":2276915,"internal_chunk_id":"0-0.15-0"},{"question":"How familiar are you with the concept of a mathematical group?","response_type":"multi","response_choices":["1 - never heard of it","2 - heard of it but didn't know what it was","3 - seen it used or explained","4 - used it but not often or recently","5 - used it, remember and understand it"],"correct_response":"1","response":"3 - seen it used or explained","response_history":["2 - heard of it but didn't know what it was","3 - seen it used or explained"],"rt":5654,"trial_type":"question","trial_index":0,"trial_index_global":80,"time_elapsed":2282570,"internal_chunk_id":"0-0.15-0"},{"question":"Do you feel you learned something from this HIT?","response_type":"multi","response_choices":["1 - not at all","2 - somewhat","3 - definitely"],"correct_response":"1","response":"2 - somewhat","response_history":["2 - somewhat"],"rt":2581,"trial_type":"question","trial_index":0,"trial_index_global":81,"time_elapsed":2285152,"internal_chunk_id":"0-0.15-0"},{"question":"Do you feel you understood the concepts in this HIT?","response_type":"multi","response_choices":["1 - not at all","2 - somewhat","3 - definitely"],"correct_response":"1","response":"2 - somewhat","response_history":["2 - somewhat"],"rt":2048,"trial_type":"question","trial_index":0,"trial_index_global":82,"time_elapsed":2287201,"internal_chunk_id":"0-0.15-0"},{"question":"Did you enjoy this HIT?","response_type":"multi","response_choices":["1 - not at all","2 - somewhat","3 - definitely"],"correct_response":"1","response":"3 - definitely","response_history":["3 - definitely"],"rt":1581,"trial_type":"question","trial_index":0,"trial_index_global":83,"time_elapsed":2288783,"internal_chunk_id":"0-0.15-0"},{"question":"What is your gender?","response_type":"multi","response_choices":["Female","Male","Other"],"correct_response":"","response":"Male","response_history":["Male"],"rt":1489,"trial_type":"question","trial_index":0,"trial_index_global":84,"time_elapsed":2290273,"internal_chunk_id":"0-0.15-0"},{"question":"What is/are your native language(s)? (The languages spoken in your household when you were a child.)","response_type":"free","response_choices":[],"correct_response":"","response":"English","response_history":["English"],"rt":3922,"trial_type":"question","trial_index":0,"trial_index_global":85,"time_elapsed":2294196,"internal_chunk_id":"0-0.15-0"},{"question":"Did you use pen and paper at any point on this HIT?","response_type":"free","response_choices":[],"correct_response":"","response":"Yeah, used it to attempt to figure out the generator/inve rse prob lems. I wish I used it to take notes when reading about the operations and how inverses/generators worked.","response_history":["Yeah, used it to fi","Yeah, used it to f","Yeah, used it to attempt to figure out the generator/inverse problems. I wish I used it to take notes when reading about the operations ","Yeah, used it to attempt to figure out the generator/inverse problems. I wish I used it to take notes when reading about the operations and how inverses/generators worked."],"rt":39401,"trial_type":"question","trial_index":0,"trial_index_global":86,"time_elapsed":2333598,"internal_chunk_id":"0-0.15-0"},{"question":"Do you have any comments on this HIT?","response_type":"free","response_choices":[],"correct_response":"","response":"On the first answer where it asked to explain my answer, I hit enter hoping to start a new line and it continued instead, sorry about that! This was an extremely challenging, but very interesting and sort of fun HIT for me. Thank you for the o ppurtuni ty!","response_history":["This was extremely challenge","This was extremely challenging, but very interesting and sort of fun for me. THank","This was extremely challenging, but very interesting and sort of fun for me. THan","This was extremely challenging, but very interesting and sort of fun for me. THa","This was extremely challenging, but very interesting and sort of fun for me. TH","This was extremely challenging, but very interesting and sort of fun for me. Thank you!","OThis was extremely challenging, but very interesting and sort of fun for me. Thank you!","OnThis was extremely challenging, but very interesting and sort of fun for me. Thank you!","On This was extremely challenging, but very interesting and sort of fun for me. Thank you!","On thThis was extremely challenging, but very interesting and sort of fun for me. Thank you!","On the This was extremely challenging, but very interesting and sort of fun for me. Thank you!","On the fThis was extremely challenging,  but very  interesting and sort of fun for me. Thank you!","On the fiThis was extremely challenging, but very interesting and sort of fun for me. Thank you!","On the firThis was extremely challenging, but very interesting and sort of fun for me. Thank you!","On the firstThis was extremely challenging, but very interesting and sort of fun for me. Thank you!","On the first This was extremely challenging, but very interesting and sort of fun for me. Thank you!","On the first anThis was extremely challenging, but very interesting and sort of fun for me. Thank you!","On the first ansThis was extremely challenging, but very interesting and sort of fun for me. Thank you!","On the first answeThis was extremely challenging, but very interesting and sort of fun for me. Thank you!","On the first answerThis was extremely challenging, but very interesting and sort of fun for me. Thank you!","On the first answer This was extremely challenging, but very interesting and sort of fun for me. Thank you! ","On th e first answer wThis was extremely challenging, but very interesting and sort of fun for me. Thank you!","On the first answer whThis was extremely challenging, but very interesting and sort of fun for me. Thank you!","On the first answer wheThis was extremely challenging, but very interesting and sort of fun for me. Thank you!","On the first answer wherThis was extremely challenging, but very interesting and sort of fun for me. Thank you!","On the first answer whereThis was extremely challenging, but very interesting and sort of fun for me. Thank you!","On the first answer where This was extremely challenging, but very interesting and sort of fun for me. Thank you!","On the first answer where itThis was extremely challenging, but very interesting and sort of fun for me. Thank you!","On the first answer where it This was extremely challenging, but very interesting and sort of fun for me. Thank you!","On the first answer where it asThis was extremely challenging, but very inte resting  and sort of fun for me. Thank you!","On the first answer where it askeThis was extremely challenging, but very interesting and sort of fun for me. Thank you!","On the first answer where it asked This was extremely challenging, but very interesting and sort of fun for me. Thank you!","On the first answer where it asked tThis was extremely challenging, but very interesting and sort of fun for me. Thank you!","On the first answer where it asked toThis was extremely challenging, but very interesting and sort of fun for me. Thank you!","On the first answer where it asked to eThis was extremely challenging, but very interesting and sort of fun for me. Thank you!","On the first answer where it asked to exThis was extremely challenging, but very interesting and sort of fun for me. Thank you!","On the first answer where it asked to expThis was extremely challenging, but very interesting and sort of fun for me. Thank you!","On the first answer where it asked to explThis was extremely  challeng ing, but very interesting and sort of fun for me. Thank you!","On the first answer where it asked to explaiThis was extremely challenging, but very interesting and sort of fun for me. Thank you!","On the first answer where it asked to explainThis was extremely challenging, but very interesting and sort of fun for me. Thank you!","On the first answer where it asked to explain mThis was extremely challenging, but very interesting and sort of fun for me. Thank you!","On the first answer where it asked to explain my This was extremely challenging, but very interesting and sort of fun for me. Thank you!","On the first answer where it asked to explain my anThis was extremely challenging, but very interesting and sort of fun for me. Thank you!","On the first answer where it asked to explain my ansThis was extremely challenging, but very interesting and sort of fun for me. Thank you!","On the first answer where it asked to explain my answeThis was extremely challenging, but very int eresting  and sort of fun for me. Thank you!","On the first answer where it asked to explain my answerThis was extremely challenging, but very interesting and sort of fun for me. Thank you!","On the first answer where it asked to explain my answer,This was extremely challenging, but very interesting and sort of fun for me. Thank you!","On the first answer where it asked to explain my answer, This was extremely challenging, but very interesting and sort of fun for me. Thank you!","On the first answer where it asked to explain my answer, IThis was extremely challenging, but very interesting and sort of fun for me. Thank you!","On the first answer where it asked to explain my answer, I This was extremely challenging, but very interesting and sort of fun for me. Thank you!","On the first answer where it asked to explain my answer, I hiThis was extremely challenging, but very interesting and sort of fun for me. Thank you!","On the first answer where it asked to explain my answer, I hitThi s was ex tremely challenging, but very interesting and sort of fun for me. Thank you!","On the first answer where it asked to explain my answer, I hit This was extremely challenging, but very interesting and sort of fun for me. Thank you!","On the first answer where it asked to explain my answer, I hit enThis was extremely challenging, but very interesting and sort of fun for me. Thank you!","On the first answer where it asked to explain my answer, I hit entThis was extremely challenging, but very interesting and sort of fun for me. Thank you!","On the first answer where it asked to explain my answer, I hit enterThis was extremely challenging, but very interesting and sort of fun for me. Thank you!","On the first answer where it asked to explain my answer, I hit enter This was extremely challenging, but very interesting and sort of fun for me. Thank you!","On the first answer where it asked to explain my answer, I hit enter hThis was extremely challenging, but very interesting and so rt of fu n for me. Thank you!","On the first answer where it asked to explain my answer, I hit enter hoThis was extremely challenging, but very interesting and sort of fun for me. Thank you!","On the first answer where it asked to explain my answer, I hit enter hopThis was extremely challenging, but very interesting and sort of fun for me. Thank you!","On the first answer where it asked to explain my answer, I hit enter hopinThis was extremely challenging, but very interesting and sort of fun for me. Thank you!","On the first answer where it asked to explain my answer, I hit enter hopingThis was extremely challenging, but very interesting and sort of fun for me. Thank you!","On the first answer where it asked to explain my answer, I hit enter hoping This was extremely challenging, but very interesting and sort of fun for me. Thank you!","On the first answer where it asked to explain my answer, I hit enter hoping toThis was extremely challenging, but very interesting and sort of fun f or me. T hank you!","On the first answer where it asked to explain my answer, I hit enter hoping to sThis was extremely challenging, but very interesting and sort of fun for me. Thank you!","On the first answer where it asked to explain my answer, I hit enter hoping to stThis was extremely challenging, but very interesting and sort of fun for me. Thank you!","On the first answer where it asked to explain my answer, I hit enter hoping to starThis was extremely challenging, but very interesting and sort of fun for me. Thank you!","On the first answer where it asked to explain my answer, I hit enter hoping to start This was extremely challenging, but very interesting and sort of fun for me. Thank you!","On the first answer where it asked to explain my answer, I hit enter hoping to start a This was extremely challenging, but very interesting and sort of fun for me. Thank you!","On the first answer where it asked to explain my answer, I hit enter hoping to start a neThis was extremely cha llenging , but very interesting and sort of fun for me. Thank you!","On the first answer where it asked to explain my answer, I hit enter hoping to start a newThis was extremely challenging, but very interesting and sort of fun for me. Thank you!","On the first answer where it asked to explain my answer, I hit enter hoping to start a new This was extremely challenging, but very interesting and sort of fun for me. Thank you!","On the first answer where it asked to explain my answer, I hit enter hoping to start a new liThis was extremely challenging, but very interesting and sort of fun for me. Thank you!","On the first answer where it asked to explain my answer, I hit enter hoping to start a new linThis was extremely challenging, but very interesting and sort of fun for me. Thank you!","On the first answer where it asked to explain my answer, I hit enter hoping to start a new lineThis was extremely challenging, but very interesting and sort of fun for me. Thank you!","On the first ans wer wher e it asked to explain my answer, I hit enter hoping to start a new line aThis was extremely challenging, but very interesting and sort of fun for me. Thank you!","On the first answer where it asked to explain my answer, I hit enter hoping to start a new line anThis was extremely challenging, but very interesting and sort of fun for me. Thank you!","On the first answer where it asked to explain my answer, I hit enter hoping to start a new line and This was extremely challenging, but very interesting and sort of fun for me. Thank you!","On the first answer where it asked to explain my answer, I hit enter hoping to start a new line and iThis was extremely challenging, but very interesting and sort of fun for me. Thank you!","On the first answer where it asked to explain my answer, I hit enter hoping to start a new line and itThis was extremely challenging, but very interesting and sort of fun for me. Thank you!","On the first answer where it asked to explain my answer, I hit en ter hopi ng to start a new line and it This was extremely challenging, but very interesting and sort of fun for me. Thank you!","On the first answer where it asked to explain my answer, I hit enter hoping to start a new line and it coThis was extremely challenging, but very interesting and sort of fun for me. Thank you!","On the first answer where it asked to explain my answer, I hit enter hoping to start a new line and it conThis was extremely challenging, but very interesting and sort of fun for me. Thank you!","On the first answer where it asked to explain my answer, I hit enter hoping to start a new line and it contiThis was extremely challenging, but very interesting and sort of fun for me. Thank you!","On the first answer where it asked to explain my answer, I hit enter hoping to start a new line and it continThis was extremely challenging, but very interesting and sort of fun for me. Thank you!","On the first answer where it asked to explain my answer, I hit enter hoping to st art a ne w line and it continuThis was extremely challenging, but very interesting and sort of fun for me. Thank you!","On the first answer where it asked to explain my answer, I hit enter hoping to start a new line and it continueThis was extremely challenging, but very interesting and sort of fun for me. Thank you!","On the first answer where it asked to explain my answer, I hit enter hoping to start a new line and it continued This was extremely challenging, but very interesting and sort of fun for me. Thank you!","On the first answer where it asked to explain my answer, I hit enter hoping to start a new line and it continued iThis was extremely challenging, but very interesting and sort of fun for me. Thank you!","On the first answer where it asked to explain my answer, I hit enter hoping to start a new line and it continued inThis was extremely challenging, but very interesting and sort of fun for me. Thank you!","On the first answer where it asked to explain my answer, I hit en ter hopi ng to start a new line and it continued insThis was extremely challenging, but very interesting and sort of fun for me. Thank you!","On the first answer where it asked to explain my answer, I hit enter hoping to start a new line and it continued insteThis was extremely challenging, but very interesting and sort of fun for me. Thank you!","On the first answer where it asked to explain my answer, I hit enter hoping to start a new line and it continued insteaThis was extremely challenging, but very interesting and sort of fun for me. Thank you!","On the first answer where it asked to explain my answer, I hit enter hoping to start a new line and it continued insteadThis was extremely challenging, but very interesting and sort of fun for me. Thank you!","On the first answer where it asked to explain my answer, I hit enter hoping to start a new line and it continued instead.This was extremely challenging, but very interesting and sort of fun for me. Thank you!","On the first answe r where  it asked to explain my answer, I hit enter hoping to start a new line and it continued instead. This was extremely challenging, but very interesting and sort of fun for me. Thank you!","On the first answer where it asked to explain my answer, I hit enter hoping to start a new line and it continued instead. IThis was extremely challenging, but very interesting and sort of fun for me. Thank you!","On the first answer where it asked to explain my answer, I hit enter hoping to start a new line and it continued instead. I This was extremely challenging, but very interesting and sort of fun for me. Thank you!","On the first answer where it asked to explain my answer, I hit enter hoping to start a new line and it continued instead. I hThis was extremely challenging, but very interesting and sort of fun for me. Thank you!","On the first answer where it asked to explain my answer, I hit enter hoping to start a new line and it continued instead. I hoThis was extremely challenging, but  very in teresting and sort of fun for me. Thank you!","On the first answer where it asked to explain my answer, I hit enter hoping to start a new line and it continued instead. I hopThis was extremely challenging, but very interesting and sort of fun for me. Thank you!","On the first answer where it asked to explain my answer, I hit enter hoping to start a new line and it continued instead. I hopeThis was extremely challenging, but very interesting and sort of fun for me. Thank you!","On the first answer where it asked to explain my answer, I hit enter hoping to start a new line and it continued instead. I hope tThis was extremely challenging, but very interesting and sort of fun for me. Thank you!","On the first answer where it asked to explain my answer, I hit enter hoping to start a new line and it continued instead. I hope thThis was extremely challenging, but very interesting and sort of fun for me. Thank you!","On the first answer where it asked to explain my answer, I hit ent er hopin g to start a new line and it continued instead. I hope thaThis was extremely challenging, but very interesting and sort of fun for me. Thank you!","On the first answer where it asked to explain my answer, I hit enter hoping to start a new line and it continued instead. I hope thatThis was extremely challenging, but very interesting and sort of fun for me. Thank you!","On the first answer where it asked to explain my answer, I hit enter hoping to start a new line and it continued instead. I hope that This was extremely challenging, but very interesting and sort of fun for me. Thank you!","On the first answer where it asked to explain my answer, I hit enter hoping to start a new line and it continued instead. I hope that diThis was extremely challenging, but very interesting and sort of fun for me. Thank you!","On the first answer where it asked to explain my answer, I hit enter hoping to start a new line and it continued instead. I hope that didThis was extremely challenging,  but ver y interesting and sort of fun for me. Thank you!","On the first answer where it asked to explain my answer, I hit enter hoping to start a new line and it continued instead. I hope that didnThis was extremely challenging, but very interesting and sort of fun for me. Thank you!","On the first answer where it asked to explain my answer, I hit enter hoping to start a new line and it continued instead. I hope that didn'tThis was extremely challenging, but very interesting and sort of fun for me. Thank you!","On the first answer where it asked to explain my answer, I hit enter hoping to start a new line and it continued instead. I hope that didn't This was extremely challenging, but very interesting and sort of fun for me. Thank you!","On the first answer where it asked to explain my answer, I hit enter hoping to start a new line and it continued instead. I hope that didn't mThis was extremely challenging, but very interesting and sort of fun for me. Thank you!","On the first answ er where  it asked to explain my answer, I hit enter hoping to start a new line and it continued instead. I This was extremely challenging, but very interesting and sort of fun for me. Thank you!","On the first answer where it asked to explain my answer, I hit enter hoping to start a new line and it continued instead. IThis was extremely challenging, but very interesting and sort of fun for me. Thank you!","On the first answer where it asked to explain my answer, I hit enter hoping to start a new line and it continued instead. This was extremely challenging, but very interesting and sort of fun for me. Thank you!","On the first answer where it asked to explain my answer, I hit enter hoping to start a new line and it continued instead.This was extremely challenging, but very interesting and sort of fun for me. Thank you!","On the first answer where it asked to explain my answer, I hit enter hoping to start a new line and it continued insteadThis was extremely challenging, but very int eresting  and sort of fun for me. Thank you!","On the first answer where it asked to explain my answer, I hit enter hoping to start a new line and it continued instead,This was extremely challenging, but very interesting and sort of fun for me. Thank you!","On the first answer where it asked to explain my answer, I hit enter hoping to start a new line and it continued instead, This was extremely challenging, but very interesting and sort of fun for me. Thank you!","On the first answer where it asked to explain my answer, I hit enter hoping to start a new line and it continued instead, sThis was extremely challenging, but very interesting and sort of fun for me. Thank you!","On the first answer where it asked to explain my answer, I hit enter hoping to start a new line and it continued instead, soThis was extremely challenging, but very interesting and sort of fun for me. Thank you!","On the first answer where it asked to explain my answer, I hit enter hoping to start a new line and i t contin ued instead, sorThis was extremely challenging, but very interesting and sort of fun for me. Thank you!","On the first answer where it asked to explain my answer, I hit enter hoping to start a new line and it continued instead, sorrThis was extremely challenging, but very interesting and sort of fun for me. Thank you!","On the first answer where it asked to explain my answer, I hit enter hoping to start a new line and it continued instead, sorryThis was extremely challenging, but very interesting and sort of fun for me. Thank you!","On the first answer where it asked to explain my answer, I hit enter hoping to start a new line and it continued instead, sorry This was extremely challenging, but very interesting and sort of fun for me. Thank you!","On the first answer where it asked to explain my answer, I hit enter hoping to start a new line and it continued instead, sorry abThis was extremely challenging, but very interesting and sort of fun for me. Thank you!","On the first  answer  where it asked to explain my answer, I hit enter hoping to start a new line and it continued instead, sorry abouThis was extremely challenging, but very interesting and sort of fun for me. Thank you!","On the first answer where it asked to explain my answer, I hit enter hoping to start a new line and it continued instead, sorry about This was extremely challenging, but very interesting and sort of fun for me. Thank you!","On the first answer where it asked to explain my answer, I hit enter hoping to start a new line and it continued instead, sorry about thThis was extremely challenging, but very interesting and sort of fun for me. Thank you!","On the first answer where it asked to explain my answer, I hit enter hoping to start a new line and it continued instead, sorry about thaThis was extremely challenging, but very interesting and sort of fun for me. Thank you!","On the first answer where it asked to explain my answer, I hit enter hoping to start a new line and it continu ed inste ad, sorry about thatThis was extremely challenging, but very interesting and sort of fun for me. Thank you!","On the first answer where it asked to explain my answer, I hit enter hoping to start a new line and it continued instead, sorry about that!This was extremely challenging, but very interesting and sort of fun for me. Thank you!","On the first answer where it asked to explain my answer, I hit enter hoping to start a new line and it continued instead, sorry about that! This was extremely challenging, but very interesting and sort of fun for me. Thank you!","On the first answer where it asked to explain my answer, I hit enter hoping to start a new line and it continued instead, sorry about that! OThis was extremely challenging, but very interesting and sort of fun for me. Thank you!","On the first answer where it asked to explain my answer, I hit enter hoping to start a new line and it continued instead, sorry about that! OthThis was extremely challenging, but very inter esting a nd sort of fun for me. Thank you!","On the first answer where it asked to explain my answer, I hit enter hoping to start a new line and it continued instead, sorry about that! OtheThis was extremely challenging, but very interesting and sort of fun for me. Thank you!","On the first answer where it asked to explain my answer, I hit enter hoping to start a new line and it continued instead, sorry about that! OtherThis was extremely challenging, but very interesting and sort of fun for me. Thank you!","On the first answer where it asked to explain my answer, I hit enter hoping to start a new line and it continued instead, sorry about that! OtheThis was extremely challenging, but very interesting and sort of fun for me. Thank you!","On the first answer where it asked to explain my answer, I hit enter hoping to start a new line and it continued instead, sorry about that! OthThis was extremely challenging, but very interesting and sort of fun for me. Thank you!","On the first answ er where  it asked to explain my answer, I hit enter hoping to start a new line and it continued instead, sorry about that! OtThis was extremely challenging, but very interesting and sort of fun for me. Thank you!","On the first answer where it asked to explain my answer, I hit enter hoping to start a new line and it continued instead, sorry about that! OThis was extremely challenging, but very interesting and sort of fun for me. Thank you!","On the first answer where it asked to explain my answer, I hit enter hoping to start a new line and it continued instead, sorry about that! This was extremely challenging, but very interesting and sort of fun for me. Thank you!","On the first answer where it asked to explain my answer, I hit enter hoping to start a new line and it continued instead, sorry about that! This was anextremely challenging, but very interesting and sort of fun for me. Thank you!","On the first answer where it asked to explain my answer, I hit enter hoping to start a ne w line a nd it continued instead, sorry about that! This was an extremely challenging, but very interesting and sort of fun for me. Thank you!","On the first answer where it asked to explain my answer, I hit enter hoping to start a new line and it continued instead, sorry about that! This was an extremely challenging, but very interesting and sort of fun HIfor me. Thank you!","On the first answer where it asked to explain my answer, I hit enter hoping to start a new line and it continued instead, sorry about that! This was an extremely challenging, but very interesting and sort of fun HITfor me. Thank you!","On the first answer where it asked to explain my answer, I hit enter hoping to start a new line and it continued instead, sorry about that! This was an extremely challenging, but very interesting and sort of fun HIT for me. Thank you!","On the first answer where it asked to explain my answer, I hit enter hoping to start a new line and it continued instead, sorry about that! This  was an e xtremely challenging, but very interesting and sort of fun HIT for me. Thank you !","On the first answer where it asked to explain my answer, I hit enter hoping to start a new line and it continued instead, sorry about that! This was an extremely challenging, but very interesting and sort of fun HIT for me. Thank you fo!","On the first answer where it asked to explain my answer, I hit enter hoping to start a new line and it continued instead, sorry about that! This was an extremely challenging, but very interesting and sort of fun HIT for me. Thank you for !","On the first answer where it asked to explain my answer, I hit enter hoping to start a new line and it continued instead, sorry about that! This was an extremely challenging, but very interesting and sort of fun HIT for me. Thank you for th!","On the first answer where it asked to explain my answer, I hit enter hoping to start a new line and it continued instead, sorry about that! This was an extremely challenging, but  very in teresting and sort of fun HIT for me. Thank you for the!","On the first answer where it asked to explain my answer, I hit enter hoping to start a new line and it continued instead, sorry about that! This was an extremely challenging, but very interesting and sort of fun HIT for me. Thank you for the !","On the first answer where it asked to explain my answer, I hit enter hoping to start a new line and it continued instead, sorry about that! This was an extremely challenging, but very interesting and sort of fun HIT for me. Thank you for the o!","On the first answer where it asked to explain my answer, I hit enter hoping to start a new line and it continued instead, sorry about that! This was an extremely challenging, but very interesting and sort of fun HIT for me. Thank you for the op!","On the first answer where it asked to explain my answer, I hit enter hoping to start a new line and it continued instead, sorry about that! This was an extremely challenging, but very inter esting a nd sort of fun HIT for me. Thank you for the opp!","On the first answer where it asked to explain my answer, I hit enter hoping to start a new line and it continued instead, sorry about that! This was an extremely challenging, but very interesting and sort of fun HIT for me. Thank you for the oppu!","On the first answer where it asked to explain my answer, I hit enter hoping to start a new line and it continued instead, sorry about that! This was an extremely challenging, but very interesting and sort of fun HIT for me. Thank you for the oppur!","On the first answer where it asked to explain my answer, I hit enter hoping to start a new line and it continued instead, sorry about that! This was an extremely challenging, but very interesting and sort of fun HIT for me. Thank you for the oppurt!","On the first answer where it asked to explain my answer, I hit enter hoping to start a new line and it continued instead, sorry about that! This was an extremely challenging, but very  interest ing and sort of fun HIT for me. Thank you for the oppurtu!","On the first answer where it asked to explain my answer, I hit enter hoping to start a new line and it continued instead, sorry about that! This was an extremely challenging, but very interesting and sort of fun HIT for me. Thank you for the oppurtun!","On the first answer where it asked to explain my answer, I hit enter hoping to start a new line and it continued instead, sorry about that! This was an extremely challenging, but very interesting and sort of fun HIT for me. Thank you for the oppurtuni!","On the first answer where it asked to explain my answer, I hit enter hoping to start a new line and it continued instead, sorry about that! This was an extremely challenging, but very interesting and sort of fun HIT for me. Thank you for the oppurtunit!","On the first answer where it asked to explain my answer, I hit enter hoping to start a new line and it continued instead, sorry about that! This was an extremely c hallengi ng, but very interesting and sort of fun HIT for me. Thank you for the oppurtunity!"],"rt":83765,"trial_type":"question","trial_index":0,"trial_index_global":87,"time_elapsed":2417364,"internal_chunk_id":"0-0.15-0"}]