[{"nsides":6,"instructions":"Let's define a new operation <img src=./images/hexagon_symbol.png style=width:14px;height:14px>. This operation will give us a way of combining two of the numbers 0, 1, 2, 3, 4, 5 to get another one of them back. To perform <img src=./images/hexagon_symbol.png style=width:14px;height:14px>, you can either use a method based on the hexagon at right, or a method based on arithmetic.<br /><b>Hexagon method:</b> you can use the interactive diagram on the right, or perform the operation in your mind. Point the arrow at the first number on the hexagon by clicking, then click (or click and drag) to move the arrow the second number of points clockwise around the hexagon. The number the arrow arrives at is your result. (The operation is called <img src=./images/hexagon_symbol.png style=width:14px;height:14px> because it uses the hexagon, which has 6 sides.) <br ><b>Arithmetic method:</b> you start with the first number, and then add  the sec ond one to it. If the sum is smaller than 6, that's your result. If the sum is 6 or bigger, you subtract 6 to get your result. <br /><br />For example, 3 <img src=./images/hexagon_symbol.png style=width:14px;height:14px> 5 = 2, because 5 steps clockwise from 3 on the hexagon brings us to 2. Equivalently, 3 + 5 = 8, and 8 is bigger than 6, so we subtract 6, and 8 - 6 = 2. So 3 <img src=./images/hexagon_symbol.png style=width:14px;height:14px> 5 = 2.<br /><br />Similarly, 1 <img src=./images/hexagon_symbol.png style=width:14px;height:14px> 4 = 5, because 1 + 4 = 5, and 5 is less than 6 so we leave it alone. Equivalently, 4 steps clockwise from 1 on the hexagon brings us to 5. <br /><br />Click Continue when you're ready to move on.","orientation_history":[0],"rt":76430,"trial_type":"polygon-arrow-instructions","trial_index":0,"trial_index_global":1,"time_elapsed":80973,"internal_chunk_id":"0-0"},{"nsides":6,"instructions":"Do you see how the differe nt ways  of performing <img src=./images/hexagon_symbol.png style=width:14px;height:14px> give the same result? By labeling the points of the hexagon with the numbers from 0 to 5, we ensure that when we combine two numbers using the hexagon, we only produce numbers between 0 and 5. When we use the arithmetic strategy, adding the second number to the first mimics counting around the hexagon, and subtracting 6 each time we get above 5 makes sure the results correspond to the numbers on the points of the hexagon. <br /><br />Click Continue when you're ready to move on.","orientation_history":[0],"rt":9959,"trial_type":"polygon-arrow-instructions","trial_index":0,"trial_index_global":2,"time_elapsed":90934,"internal_chunk_id":"0-0"},{"nsides":6,"question":"Now try one on your own! What is 4 <img src=./images/hexagon_symbol.png style=width:14px;height:14px> 5? <br /><br /> (Remember, to perform <img src=./images/hexagon_symbol.png style=width:14px;height:14px>,  you can  either use a method based on the hexagon at right, or a method based on arithmetic.<br /><br /><b>Hexagon method:</b> you can use the interactive diagram on the right, or perform the operation in your mind. Point the arrow at the first number, then move the arrow the second number of points clockwise around the hexagon. The number the arrow arrives at is your result. <br /><br /><b>Arithmetic method:</b> you start with the first number, and then add the second one to it. If the sum is smaller than 6, that's your result. If the sum is 6 or bigger, you subtract 6 to get your result.)","response_type":"free","response_choices":[],"correct_response":"3","response":"3","orientation_history":[[0]],"response_history":["3"],"rt":10997,"trial_type":"polygon-arrow-question","trial_index":0,"trial_index_global":3,"time_elapsed":101933,"internal_chunk_id":"0-0.3-0"},{"nsides":6,"feedback":"Correct! 4 <img src=./images/hexagon_symbol.png style=width:14px;height:14px> 5 = 3 becau se 5 ste ps clockwise on the hexagon from 4 brings us to 3. Equivalently, 4 + 5 = 9 and 9 - 6 = 3.","orientation_history":[0],"rt":4232,"trial_type":"polygon-arrow-feedback","trial_index":0,"trial_index_global":4,"time_elapsed":106168,"internal_chunk_id":"0-0.3-0"},{"nsides":6,"question":"What is 3 <img src=./images/hexagon_symbol.png style=width:14px;height:14px> 2? Try to solve this problem using the hexagon. <br /><br /> (Remember, to perform <img src=./images/hexagon_symbol.png style=width:14px;height:14px> on the hexagon, you can use the interactive diagram on the right, or perform the operation in your mind. Point the arrow at the first number on the hexagon, and then move the arrow the second number of points clockwise around the hexagon.)","response_type":"free","response_choices":[],"correct_response":"5","response":"5","orientation_history":[[0]],"response_history":["5"],"rt":8857,"trial_type":"polygon-arrow-question","trial_index":0,"trial_index_global":5,"time_elapsed":115025,"internal_chunk_id":"0-0.3-0"},{"nsides":6,"feedback":"Correct! 3 <img src=./images/hexagon_symbol.png style=width:14px;height:14px> 2 = 5 because 2 steps clockwise on the hexagon from 3 brings us to 5. Equivalently, 3 + 2 = 5 and 5 is less than 6.","orientation_history":[0],"rt":1710,"trial_type":"polygon-arrow-feedback","trial_index":0,"trial_index_global":6,"time_elapsed":116736,"internal_chunk_id":"0-0.3-0"},{"nsides":6,"question":"What is 1 <img src=./images/hexagon_symbol.png style=width:14px;height:14px> 5? Try to solve this probem using the arithmetic technique. <br /><br /> (Remember, to perform <img src=./images/hexagon_symbol.png style=width:14px;height:14px> by arithmetic, you start with the first number, and then add the second one to it. If the sum is smaller than 6, that's your result. If the sum is 6 or bigger, you subtract 6 to get your result.)","response_type":"free","response_choices":[],"correct_response":"0","response":"0","orientation_history":[[0]],"response_history":["6","0"],"rt":11109,"trial_type":"polygon-arrow-question","trial_index":0,"trial_index_global":7,"time_elapsed":127846,"internal_chunk_id":"0-0.3-0"},{"nsides":6,"feedback":"Correct! 1 <img src=./images/hexagon_symbol.png style=width:14px;height:14px> 5 = 0 because 1 + 5 = 6 and 6 - 6 = 0.  Equivalently, 5 steps clockwise on the hexagon from 1 brings us to 0.","orientation_history":[0],"rt":1654,"trial_type":"polygon-arrow-feedback","trial_index":0,"trial_index_global":8,"time_elapsed":129501,"internal_chunk_id":"0-0.3-0"},{"nsides":6,"question":"What is 1 <img src=./images/hexagon_symbol.png style=width:14px;height:14px> 1? Try to solve this problem using the hexagon. <br /><br /> (Remember, to perform <img src=./images/hexagon_symbol.png style=width:14px;height:14px> on the hexagon, you can use the interactive diagram on the right, or perform the operation in your mind. Point the arrow at the first numb er on th e hexagon, and then move the arrow the second number of points clockwise around the hexagon.)","response_type":"free","response_choices":[],"correct_response":"2","response":"2","orientation_history":[[0]],"response_history":["2"],"rt":4728,"trial_type":"polygon-arrow-question","trial_index":0,"trial_index_global":9,"time_elapsed":134229,"internal_chunk_id":"0-0.3-0"},{"nsides":6,"feedback":"Correct! 1 <img src=./images/hexagon_symbol.png style=width:14px;height:14px> 1 = 2 because 1 step clockwise on the hexagon from 1 brings us to 2. Equivalently, 1 + 1 = 2 and 2 is less than 6.","orientation_history":[0],"rt":1921,"trial_type":"polygon-arrow-feedback","trial_index":0,"trial_index_global":10,"time_elapsed":136151,"internal_chunk_id":"0-0.3-0"},{"nsides":6,"question":"What is 3 <img src=./images/hexagon_symbol.png style=width:14px;height:14px> 0? Try to solve this problem using the arithmetic technique. <br /><br /> (Remember, to perform <img src=./images/ hexagon_ symbol.png style=width:14px;height:14px> using arithmetic, you start with the first number, and then add the second one to it. If the sum is smaller than 6, that's your result. If the sum is 6 or bigger, you subtract 6 to get your result.)","response_type":"free","response_choices":[],"correct_response":"3","response":"3","orientation_history":[[0]],"response_history":["3"],"rt":3742,"trial_type":"polygon-arrow-question","trial_index":0,"trial_index_global":11,"time_elapsed":139893,"internal_chunk_id":"0-0.3-0"},{"nsides":6,"feedback":"Correct! 3 <img src=./images/hexagon_symbol.png style=width:14px;height:14px> 0 = 3 because 3 + 0 = 3 and 3 - 6 = 3.  Equivalently, 0 steps clockwise on the hexagon from 3 brings us to 3.","orientation_history":[0],"rt":1748,"trial_type":"polygon-arrow-feedback","trial_index":0,"trial_index_global":12,"time_elapsed":141643,"internal_chunk_id":"0-0.3-0"},{"nsides":6,"question":"What is 4 <img src=./images/hexagon_symbol.png st yle=wi dth:14px;height:14px> 4? Try to solve this problem using the hexagon. <br /><br /> (Remember, to perform <img src=./images/hexagon_symbol.png style=width:14px;height:14px> on the hexagon, you can use the interactive diagram on the right, or perform the operation in your mind. Point the arrow at the first number on the hexagon, and then move the arrow the second number of points clockwise around the hexagon.)","response_type":"free","response_choices":[],"correct_response":"2","response":"2","orientation_history":[[0]],"response_history":["2"],"rt":4779,"trial_type":"polygon-arrow-question","trial_index":0,"trial_index_global":13,"time_elapsed":146422,"internal_chunk_id":"0-0.3-0"},{"nsides":6,"feedback":"Correct! 4 <img src=./images/hexagon_symbol.png style=width:14px;height:14px> 4 = 2 because 4 steps clockwise on the hexagon from 4 brings us to 2. Equivalently, 4 + 4 = 8 and 8 - 6 = 2.","orientation_history":[0],"rt":836,"trial_type":"polygon-arrow-feedba ck","trial_index":0,"trial_index_global":14,"time_elapsed":147259,"internal_chunk_id":"0-0.3-0"},{"nsides":6,"question":"What is 1 <img src=./images/hexagon_symbol.png style=width:14px;height:14px> 3? Try to solve this problem using the arithmetic technique. <br /><br /> (Remember, to perform <img src=./images/hexagon_symbol.png style=width:14px;height:14px> by arithmetic, you start with the first number, and then add the second one to it. If the sum is smaller than 6, that's your result. If the sum is 6 or bigger, you subtract 6 to get your result.)","response_type":"free","response_choices":[],"correct_response":"4","response":"4","orientation_history":[[0]],"response_history":["4"],"rt":2343,"trial_type":"polygon-arrow-question","trial_index":0,"trial_index_global":15,"time_elapsed":149603,"internal_chunk_id":"0-0.3-0"},{"nsides":6,"feedback":"Correct! 1 <img src=./images/hexagon_symbol.png style=width:14px;height:14px> 3 = 4 because 1 + 3 = 4 and 4 - 6 =  4.  Equi valently, 3 steps clockwise on the hexagon from 1 brings us to 4.","orientation_history":[0],"rt":835,"trial_type":"polygon-arrow-feedback","trial_index":0,"trial_index_global":16,"time_elapsed":150439,"internal_chunk_id":"0-0.3-0"},{"nsides":6,"question":"What is 4 <img src=./images/hexagon_symbol.png style=width:14px;height:14px> 3? <br /><br /> (Remember, to perform <img src=./images/hexagon_symbol.png style=width:14px;height:14px>, you can either use a method based on the hexagon at right, or a method based on arithmetic.<br /><br /><b>Hexagon method:</b> you can use the interactive diagram on the right, or perform the operation in your mind. Point the arrow at the first number, then move the arrow the second number of points clockwise around the hexagon. The number the arrow arrives at is your result. <br /><br /><b>Arithmetic method:</b> you start with the first number, and then add the second one to it. If the sum is smaller than 6, that's your result.  If the  sum is 6 or bigger, you subtract 6 to get your result.)","response_type":"free","response_choices":[],"correct_response":"1","response":"1","orientation_history":[[0]],"response_history":["1"],"rt":4672,"trial_type":"polygon-arrow-question","trial_index":0,"trial_index_global":17,"time_elapsed":155111,"internal_chunk_id":"0-0.3-0"},{"nsides":6,"feedback":"Correct! 4 <img src=./images/hexagon_symbol.png style=width:14px;height:14px> 3 = 1 because 3 steps clockwise on the hexagon from 4 brings us to 1. Equivalently, 4 + 3 = 7 and 7 - 6 = 1.","orientation_history":[0],"rt":922,"trial_type":"polygon-arrow-feedback","trial_index":0,"trial_index_global":18,"time_elapsed":156033,"internal_chunk_id":"0-0.3-0"},{"nsides":6,"question":"What is 0 <img src=./images/hexagon_symbol.png style=width:14px;height:14px> 5? <br /><br /> (Remember, to perform <img src=./images/hexagon_symbol.png style=width:14px;height:14px>, you can either use a method based on the hexag on at ri ght, or a method based on arithmetic.<br /><br /><b>Hexagon method:</b> you can use the interactive diagram on the right, or perform the operation in your mind. Point the arrow at the first number, then move the arrow the second number of points clockwise around the hexagon. The number the arrow arrives at is your result. <br /><br /><b>Arithmetic method:</b> you start with the first number, and then add the second one to it. If the sum is smaller than 6, that's your result. If the sum is 6 or bigger, you subtract 6 to get your result.)","response_type":"free","response_choices":[],"correct_response":"5","response":"5","orientation_history":[[0]],"response_history":["5"],"rt":3023,"trial_type":"polygon-arrow-question","trial_index":0,"trial_index_global":19,"time_elapsed":159057,"internal_chunk_id":"0-0.3-0"},{"nsides":6,"feedback":"Correct! 0 <img src=./images/hexagon_symbol.png style=width:14px;height:14px> 5 = 5 because 5 steps clockwise on the hexagon from 0 brin gs us to  5. Equivalently, 0 + 5 = 5 and 5 is less than 6.","orientation_history":[0],"rt":990,"trial_type":"polygon-arrow-feedback","trial_index":0,"trial_index_global":20,"time_elapsed":160048,"internal_chunk_id":"0-0.3-0"},{"nsides":6,"question":"What is 2 <img src=./images/hexagon_symbol.png style=width:14px;height:14px> 5? <br /><br /> (Remember, to perform <img src=./images/hexagon_symbol.png style=width:14px;height:14px>, you can either use a method based on the hexagon at right, or a method based on arithmetic.<br /><br /><b>Hexagon method:</b> you can use the interactive diagram on the right, or perform the operation in your mind. Point the arrow at the first number, then move the arrow the second number of points clockwise around the hexagon. The number the arrow arrives at is your result. <br /><br /><b>Arithmetic method:</b> you start with the first number, and then add the second one to it. If the sum is smaller than 6, that's your result. If the sum is 6  or bigg er, you subtract 6 to get your result.)","response_type":"free","response_choices":[],"correct_response":"1","response":"1","orientation_history":[[0]],"response_history":["1"],"rt":2836,"trial_type":"polygon-arrow-question","trial_index":0,"trial_index_global":21,"time_elapsed":162885,"internal_chunk_id":"0-0.3-0"},{"nsides":6,"feedback":"Correct! 2 <img src=./images/hexagon_symbol.png style=width:14px;height:14px> 5 = 1 because 5 steps clockwise on the hexagon from 2 brings us to 1. Equivalently, 2 + 5 = 7 and 7 - 6 = 1.","orientation_history":[0],"rt":839,"trial_type":"polygon-arrow-feedback","trial_index":0,"trial_index_global":22,"time_elapsed":163724,"internal_chunk_id":"0-0.3-0"},{"nsides":6,"instructions":"Now we're going to discuss a couple special properties of this new operation, <img src=./images/hexagon_symbol.png style=width:14px;height:14px> that we've learned. First, notice that the number 0 behaves in a special way under <img src=./images/h exagon_s ymbol.png style=width:14px;height:14px>. Whenever we combine 0 with anything else, we get that same thing back. We'll say that 0 is the <i>identity</i> under <img src=./images/hexagon_symbol.png style=width:14px;height:14px>, because when you combine it with something it gives you that identical thing back.","orientation_history":[0],"rt":6446,"trial_type":"polygon-arrow-instructions","trial_index":0,"trial_index_global":23,"time_elapsed":170172,"internal_chunk_id":"0-0"},{"nsides":6,"instructions":"Now that we know 0 is the identity under <img src=./images/hexagon_symbol.png style=width:14px;height:14px>, we're going to make a new definition. We'll say that the <i>inverse</i> of a number is the element that you combine with it to produce the identity. For example, 5 <img src=./images/hexagon_symbol.png style=width:14px;height:14px> 1 = 0, so we say 1 is the inverse of 5 under <img src=./images/hexagon_symbol.png style=width:14px;height:14 px>, ( remember 0 is the identity under <img src=./images/hexagon_symbol.png style=width:14px;height:14px>). Similarly, 3 is its own inverse under <img src=./images/hexagon_symbol.png style=width:14px;height:14px>, because 3 <img src=./images/hexagon_symbol.png style=width:14px;height:14px> 3 = 0.","orientation_history":[0],"rt":35451,"trial_type":"polygon-arrow-instructions","trial_index":0,"trial_index_global":24,"time_elapsed":205624,"internal_chunk_id":"0-0"},{"nsides":6,"question":"Now you try! What is the inverse of 4 under <img src=./images/hexagon_symbol.png style=width:14px;height:14px>? <br /><br /> (Remember, the inverse of an element is the thing which you combine with it to produce the identity.)","response_type":"free","response_choices":[],"correct_response":"2","response":"2","orientation_history":[[0]],"response_history":["2"],"rt":4921,"trial_type":"polygon-arrow-question","trial_index":0,"trial_index_global":25,"time_elapsed":210546,"internal_chunk_id":"0-0.7-0"},{"nsides":6,"feedback":"Correct! The inverse of 4 under <img src=./images/hexagon_symbol.png style=width:14px;height:14px> is 2 because 4 <img src=./images/hexagon_symbol.png style=width:14px;height:14px> 2 = 0, and 0 is the identity under <img src=./images/hexagon_symbol.png style=width:14px;height:14px>.","orientation_history":[0],"rt":897,"trial_type":"polygon-arrow-feedback","trial_index":0,"trial_index_global":26,"time_elapsed":211444,"internal_chunk_id":"0-0.7-0"},{"nsides":6,"question":"What is the inverse of 1 under <img src=./images/hexagon_symbol.png style=width:14px;height:14px>? <br /><br /> (Remember, the inverse of an element is the thing which you combine with it to produce the identity.)","response_type":"free","response_choices":[],"correct_response":"5","response":"5","orientation_history":[[0]],"response_history":["5"],"rt":2147,"trial_type":"polygon-arrow-question","trial_index":0,"trial_index_global":27,"time_elapsed":213592,"internal_chunk_id":"0-0.7-0"},{"nsides":6,"feedback":"Correct! The inverse of 1 under <img src=./images/hexagon_symbol.png style=width:14px;height:14px> is 5 because 1 <img src=./images/hexagon_symbol.png style=width:14px;height:14px> 5 = 0, and 0 is the identity under <img src=./images/hexagon_symbol.png style=width:14px;height:14px>.","orientation_history":[0],"rt":663,"trial_type":"polygon-arrow-feedback","trial_index":0,"trial_index_global":28,"time_elapsed":214256,"internal_chunk_id":"0-0.7-0"},{"nsides":6,"question":"What is the inverse of 3 under <img src=./images/hexagon_symbol.png style=width:14px;height:14px>? <br /><br /> (Remember, the inverse of an element is the thing which you combine with it to produce the identity.)","response_type":"free","response_choices":[],"correct_response":"3","response":"3","orientation_history":[[0]],"response_history":["3"],"rt":1813,"trial_type":"polygon-arrow-question","trial_index":0,"trial_index_global":29,"time_elapsed":216070,"internal_chunk_id":"0-0.7-0"},{"nsides":6,"feedback":"Correct! The inverse of 3 under <img src=./images/hexagon_symbol.png style=width:14px;height:14px> is 3 because 3 <img src=./images/hexagon_symbol.png style=width:14px;height:14px> 3 = 0, and 0 is the identity under <img src=./images/hexagon_symbol.png style=width:14px;height:14px>.","orientation_history":[0],"rt":742,"trial_type":"polygon-arrow-feedback","trial_index":0,"trial_index_global":30,"time_elapsed":216812,"internal_chunk_id":"0-0.7-0"},{"nsides":6,"question":"What is the inverse of 2 under <img src=./images/hexagon_symbol.png style=width:14px;height:14px>? <br /><br /> (Remember, the inverse of an element is the thing which you combine with it to produce the identity.)","response_type":"free","response_choices":[],"correct_response":"4","response":"4","orientation_history":[[0]],"response_history":["4"],"rt":2389,"trial_type":"polygo n-arrow- question","trial_index":0,"trial_index_global":31,"time_elapsed":219202,"internal_chunk_id":"0-0.7-0"},{"nsides":6,"feedback":"Correct! The inverse of 2 under <img src=./images/hexagon_symbol.png style=width:14px;height:14px> is 4 because 2 <img src=./images/hexagon_symbol.png style=width:14px;height:14px> 4 = 0, and 0 is the identity under <img src=./images/hexagon_symbol.png style=width:14px;height:14px>.","orientation_history":[0],"rt":687,"trial_type":"polygon-arrow-feedback","trial_index":0,"trial_index_global":32,"time_elapsed":219890,"internal_chunk_id":"0-0.7-0"},{"nsides":6,"question":"What is the inverse of 0 under <img src=./images/hexagon_symbol.png style=width:14px;height:14px>? <br /><br /> (Remember, the inverse of an element is the thing which you combine with it to produce the identity.)","response_type":"free","response_choices":[],"correct_response":"0","response":"0","orientation_history":[[0]],"response_history":["0"],"rt":3085,"trial_type":"polygon-arrow-question","trial_index":0,"trial_index_global":33,"time_elapsed":222976,"internal_chunk_id":"0-0.7-0"},{"nsides":6,"feedback":"Correct! The inverse of 0 under <img src=./images/hexagon_symbol.png style=width:14px;height:14px> is 0 because 0 <img src=./images/hexagon_symbol.png style=width:14px;height:14px> 0 = 0, and 0 is the identity under <img src=./images/hexagon_symbol.png style=width:14px;height:14px>.","orientation_history":[0],"rt":725,"trial_type":"polygon-arrow-feedback","trial_index":0,"trial_index_global":34,"time_elapsed":223702,"internal_chunk_id":"0-0.7-0"},{"nsides":6,"instructions":"It is also possible to successively apply <img src=./images/hexagon_symbol.png style=width:14px;height:14px>, and the operation can simply be performed starting with the left-most pair. For example, 2 <img src=./images/hexagon_symbol.png style=width:14px;height:14px> 3 <img src=./images/hexagon_symbol.png style= width: 14px;height:14px> 4 = 5 <img src=./images/hexagon_symbol.png style=width:14px;height:14px> 4 = 3.","orientation_history":[0],"rt":14281,"trial_type":"polygon-arrow-instructions","trial_index":0,"trial_index_global":35,"time_elapsed":237984,"internal_chunk_id":"0-0"},{"nsides":6,"instructions":"We have one last definition to learn today, using the successive operations we just learned. Let's start with an example. Under our operation <img src=./images/hexagon_symbol.png style=width:14px;height:14px> we can make every other number using just 1: 2 = 1 <img src=./images/hexagon_symbol.png style=width:14px;height:14px> 1, 3 = 1 <img src=./images/hexagon_symbol.png style=width:14px;height:14px> 1 <img src=./images/hexagon_symbol.png style=width:14px;height:14px> 1, 4 = 1 <img src=./images/hexagon_symbol.png style=width:14px;height:14px> 1 <img src=./images/hexagon_symbol.png style=width:14px;height:14px> 1 <img src=./imag es/hexag on_symbol.png style=width:14px;height:14px> 1, 5 = 1 <img src=./images/hexagon_symbol.png style=width:14px;height:14px> 1 <img src=./images/hexagon_symbol.png style=width:14px;height:14px> 1 <img src=./images/hexagon_symbol.png style=width:14px;height:14px> 1 <img src=./images/hexagon_symbol.png style=width:14px;height:14px> 1, and 0 = 1 <img src=./images/hexagon_symbol.png style=width:14px;height:14px> 1 <img src=./images/hexagon_symbol.png style=width:14px;height:14px> 1 <img src=./images/hexagon_symbol.png style=width:14px;height:14px> 1 <img src=./images/hexagon_symbol.png style=width:14px;height:14px> 1 <img src=./images/hexagon_symbol.png style=width:14px;height:14px> 1. Because 1 can make every other element under <img src=./images/hexagon_symbol.png style=width:14px;height:14px>, we say that 1 is a <i>generator</i> under <img src=./images/hexagon_symbol.png style=width:14px;he ight:14p x>. <br /><br /> However, 2 is not a generator under <img src=./images/hexagon_symbol.png style=width:14px;height:14px>, because 4 = 2 <img src=./images/hexagon_symbol.png style=width:14px;height:14px> 2, and 0 = 2 <img src=./images/hexagon_symbol.png style=width:14px;height:14px> 2 <img src=./images/hexagon_symbol.png style=width:14px;height:14px> 2, but there is no way to make 1, 3, or 5 using just 2.","orientation_history":[0],"rt":105903,"trial_type":"polygon-arrow-instructions","trial_index":0,"trial_index_global":36,"time_elapsed":343888,"internal_chunk_id":"0-0"},{"nsides":6,"question":"Now you try! Is 3 a generator under <img src=./images/hexagon_symbol.png style=width:14px;height:14px>? <br /><br /> (Remember, a generator is an element which can make every other element.)","response_type":"multi","response_choices":["Yes","No"],"correct_response":"No","response":"No","orientation_history":[[0]],"response_history":["No"],"rt":5592,"trial_type":"polygon-arrow-question","trial_index":0,"trial_index_global":37,"time_elapsed":349481,"internal_chunk_id":"0-0.10-0"},{"nsides":6,"feedback":"Correct! 3 is not a generator under <img src=./images/hexagon_symbol.png style=width:14px;height:14px>, because 3 = 3, 0 = 3 <img src=./images/hexagon_symbol.png style=width:14px;height:14px> 3, but there is no way to make 1, 2, 4, or 5 using just 3.","orientation_history":[0],"rt":1733,"trial_type":"polygon-arrow-feedback","trial_index":0,"trial_index_global":38,"time_elapsed":351215,"internal_chunk_id":"0-0.10-0"},{"nsides":6,"question":"Is 5 a generator under <img src=./images/hexagon_symbol.png style=width:14px;height:14px>? <br /><br /> (Remember, a generator is an element which can make every other element.)","response_type":"multi","response_choices":["Yes","No"],"correct_response":"Yes","response":"No","orientation_history":[[0]],"response_history":["No"],"rt":7899,"trial_type":"polygon-arrow -questio n","trial_index":0,"trial_index_global":39,"time_elapsed":359115,"internal_chunk_id":"0-0.10-0"},{"nsides":6,"feedback":"Sorry, that's incorrect. 5 is a generator under <img src=./images/hexagon_symbol.png style=width:14px;height:14px>, because 5 = 5, 4 = 5 <img src=./images/hexagon_symbol.png style=width:14px;height:14px> 5, 3 = 5 <img src=./images/hexagon_symbol.png style=width:14px;height:14px> 5 <img src=./images/hexagon_symbol.png style=width:14px;height:14px> 5, 2 = 5 <img src=./images/hexagon_symbol.png style=width:14px;height:14px> 5 <img src=./images/hexagon_symbol.png style=width:14px;height:14px> 5 <img src=./images/hexagon_symbol.png style=width:14px;height:14px> 5, 1 = 5 <img src=./images/hexagon_symbol.png style=width:14px;height:14px> 5 <img src=./images/hexagon_symbol.png style=width:14px;height:14px> 5 <img src=./images/hexagon_symbol.png style=width:14px;height:14px> 5 <img src= ./imag es/hexagon_symbol.png style=width:14px;height:14px> 5, and 0 = 5 <img src=./images/hexagon_symbol.png style=width:14px;height:14px> 5 <img src=./images/hexagon_symbol.png style=width:14px;height:14px> 5 <img src=./images/hexagon_symbol.png style=width:14px;height:14px> 5 <img src=./images/hexagon_symbol.png style=width:14px;height:14px> 5 <img src=./images/hexagon_symbol.png style=width:14px;height:14px> 5, so you can make all of the numbers under <img src=./images/hexagon_symbol.png style=width:14px;height:14px> using 5","orientation_history":[0],"rt":4991,"trial_type":"polygon-arrow-feedback","trial_index":0,"trial_index_global":40,"time_elapsed":364107,"internal_chunk_id":"0-0.10-0"},{"nsides":6,"question":"Is 4 a generator under <img src=./images/hexagon_symbol.png style=width:14px;height:14px>? <br /><br /> (Remember, a generator is an element which can make every other element.)","response_type":"multi","response_choices":["Yes","No"],"correct_response":"No","response":"No","orientation_history":[[0]],"response_history":["No"],"rt":6585,"trial_type":"polygon-arrow-question","trial_index":0,"trial_index_global":41,"time_elapsed":370694,"internal_chunk_id":"0-0.10-0"},{"nsides":6,"feedback":"Correct! 4 is not a generator under <img src=./images/hexagon_symbol.png style=width:14px;height:14px>, because 4 = 4, 2 = 4 <img src=./images/hexagon_symbol.png style=width:14px;height:14px> 4, and 0 = 4 <img src=./images/hexagon_symbol.png style=width:14px;height:14px> 4 <img src=./images/hexagon_symbol.png style=width:14px;height:14px> 4, but there is no way to make 1, 3, or 5 using just 4.","orientation_history":[0],"rt":1294,"trial_type":"polygon-arrow-feedback","trial_index":0,"trial_index_global":42,"time_elapsed":371989,"internal_chunk_id":"0-0.10-0"},{"nsides":6,"question":"Is 0 a generator under <img src=./images/hexagon_symbol.png style=width:14px;heig ht:14px>? <br /><br /> (Remember, a generator is an element which can make every other element.)","response_type":"multi","response_choices":["Yes","No"],"correct_response":"No","response":"No","orientation_history":[[0]],"response_history":["No"],"rt":3312,"trial_type":"polygon-arrow-question","trial_index":0,"trial_index_global":43,"time_elapsed":375301,"internal_chunk_id":"0-0.10-0"},{"nsides":6,"feedback":"Correct! 0 is not a generator under <img src=./images/hexagon_symbol.png style=width:14px;height:14px>, because 0 = 0, but there is no way to make 1, 2, 3, 4, or 5 using just 0.","orientation_history":[0],"rt":907,"trial_type":"polygon-arrow-feedback","trial_index":0,"trial_index_global":44,"time_elapsed":376209,"internal_chunk_id":"0-0.10-0"},{"nsides":9,"instructions":"Now we are going to ask you some questions about a new operation, <img src=./images/nonagon_symbol.png style=width:14px;height:14px>, on the numbers 0, 1, 2, 3, 4, 5, 6, 7, 8. It works exactl y like < img src=./images/hexagon_symbol.png style=width:14px;height:14px>, except now you use the nonagon shown at the right. Equivalently, after adding the two numbers you subtract 9 if your result is 9 or greater.<br /><br />Do you see how the different ways of performing <img src=./images/nonagon_symbol.png style=width:14px;height:14px> give the same result, just like with <img src=./images/hexagon_symbol.png style=width:14px;height:14px>? By labeling the points of the nonagon with the numbers from 0 to 8, we ensure that when we combine two numbers under <img src=./images/nonagon_symbol.png style=width:14px;height:14px>, we only produce numbers between 0 and 8. When we use the arithmetic strategy, adding the second number to the first mimics counting around the nonagon, and subtracting 9 each time we get above 8 makes sure the results correspond to the numbers on the points of the nonagon.<br /><br />We'll give you one practice question with feedba ck to ma ke sure you understand the new operation. After that, try to complete the remaining questions as accurately as possible.","orientation_history":[0],"rt":58467,"trial_type":"polygon-arrow-instructions","trial_index":0,"trial_index_global":45,"time_elapsed":434677,"internal_chunk_id":"0-0"},{"nsides":9,"question":"Practice: What is 5 <img src=./images/nonagon_symbol.png style=width:14px;height:14px> 5?","response_type":"free","response_choices":[],"correct_response":"1","response":"1","orientation_history":[[0]],"response_history":["1"],"rt":6694,"trial_type":"polygon-arrow-question","trial_index":0,"trial_index_global":46,"time_elapsed":441372,"internal_chunk_id":"0-0.12-0"},{"nsides":9,"feedback":"Correct! 5 <img src=./images/nonagon_symbol.png style=width:14px;height:14px> 5 = 1 because 5 steps clockwise on the nonagon from 5 brings us to 1. Equivalently, 5 + 5 = 10 and 10 - 9 = 1.","orientation_history":[0],"rt":1677,"trial_type":"polygon-arrow-feedback","trial_index":0,"trial_index_global":47,"time_elapsed":443050,"internal_chunk_id":"0-0.12-0"},{"nsides":9,"question":"What is 3 <img src=./images/nonagon_symbol.png style=width:14px;height:14px> 3?","response_type":"free","response_choices":[],"correct_response":"6","response":"6","orientation_history":[[0]],"response_history":["6"],"rt":5969,"trial_type":"polygon-arrow-question","trial_index":0,"trial_index_global":48,"time_elapsed":449020,"internal_chunk_id":"0-0.12-0"},{"nsides":9,"question":"What is 7 <img src=./images/nonagon_symbol.png style=width:14px;height:14px> 4?","response_type":"free","response_choices":[],"correct_response":"2","response":"2","orientation_history":[[0]],"response_history":["2"],"rt":4374,"trial_type":"polygon-arrow-question","trial_index":0,"trial_index_global":49,"time_elapsed":453395,"internal_chunk_id":"0-0.12-0"},{"nsides":9,"question":"What is 1 <img src=./images/nonagon_symbol.png style=width:14px;height:14px> 8?","response_type":"f ree","response_choices":[],"correct_response":"0","response":"0","orientation_history":[[0]],"response_history":["0"],"rt":6220,"trial_type":"polygon-arrow-question","trial_index":0,"trial_index_global":50,"time_elapsed":459615,"internal_chunk_id":"0-0.12-0"},{"nsides":9,"question":"What is 5 <img src=./images/nonagon_symbol.png style=width:14px;height:14px> 4?","response_type":"free","response_choices":[],"correct_response":"0","response":"0","orientation_history":[[0]],"response_history":["0"],"rt":2482,"trial_type":"polygon-arrow-question","trial_index":0,"trial_index_global":51,"time_elapsed":462098,"internal_chunk_id":"0-0.12-0"},{"nsides":9,"question":"What is 6 <img src=./images/nonagon_symbol.png style=width:14px;height:14px> 6?","response_type":"free","response_choices":[],"correct_response":"3","response":"3","orientation_history":[[0]],"response_history":["3"],"rt":2335,"trial_type":"polygon-arrow-question","trial_index":0,"trial_index_global":52,"time_elapsed":464434,"internal_chunk_id":"0-0.12-0"},{"nsides":9,"question":"What is 4 <img src=./images/nonagon_symbol.png style=width:14px;height:14px> 1? Please explain in words how you got your answer.","response_type":"free","response_choices":[],"correct_response":"","response":"5, because 4+1=5 and 5 is less than 9","orientation_history":[[0]],"response_history":["5, because 4+1 ","5, because 4+1=5 and is ","5, because 4+1=5 and is","5, because 4+1=5 and i","5, because 4+1=5 and 5 is less than 9"],"rt":14115,"trial_type":"polygon-arrow-question","trial_index":0,"trial_index_global":53,"time_elapsed":478550,"internal_chunk_id":"0-0.12-0"},{"nsides":9,"question":"What is 8 <img src=./images/nonagon_symbol.png style=width:14px;height:14px> 4? Please explain in words how you got your answer.","response_type":"free","response_choices":[],"correct_response":"","response":"3, because 8+4 is 12, and 12 is more than 9, so 12 - 9 is 3. I double checked the answer using  the nona gon.","orientation_history":[[0]],"response_history":["3, because 8_","3, because 8+3","3, because 8+4 is 12, and 12 is more than 9, so 12 0","3, because 8+4 is 12, and 12 is more than 9, so 12 -9","3, because 8+4 is 12, and 12 is more than 9, so 12 - 9 is 3. I double checked the answer using the hexagon","3, because 8+4 is 12, and 12 is more than 9, so 12 - 9 is 3. I double checked the answer using the hexago","3, because 8+4 is 12, and 12 is more than 9, so 12 - 9 is 3. I double checked the answer using the hexag","3, because 8+4 is 12, and 12 is more than 9, so 12 - 9 is 3. I double checked the answer using the hexa","3, because 8+4 is 12, and 12 is more than 9, so 12 - 9 is 3. I double checked the answer using the hex","3, because 8+4 is 12, and 12 is more than 9, so 12 - 9 is 3. I double checked the answer using the he","3, because 8+4 is 12, and 12 is more than 9, so 12 - 9 is 3. I double checked the answer using the h","3, because 8+4 is 12, and 12 is more than 9, so  12 - 9 i s 3. I double checked the answer using the nonagon."],"rt":32835,"trial_type":"polygon-arrow-question","trial_index":0,"trial_index_global":54,"time_elapsed":511386,"internal_chunk_id":"0-0.12-0"},{"nsides":9,"question":"What is the identity under <img src=./images/nonagon_symbol.png style=width:14px;height:14px>? Please explain in words how you got your answer.","response_type":"free","response_choices":[],"correct_response":"0","response":"0 is the identity, because if you add it to any other number you just get that same number.","orientation_history":[[0]],"response_history":["-","0 is the identity, because if you add it to any other number you just get that same number."],"rt":18735,"trial_type":"polygon-arrow-question","trial_index":0,"trial_index_global":55,"time_elapsed":530122,"internal_chunk_id":"0-0.12-0"},{"nsides":9,"question":"What is the inverse of 5 under <img src=./images/nonagon_symbol.png style=width:14px;height:14px>?","response_type":"fre e","response_choices":[],"correct_response":"4","response":"4","orientation_history":[[0]],"response_history":["4"],"rt":4931,"trial_type":"polygon-arrow-question","trial_index":0,"trial_index_global":56,"time_elapsed":535054,"internal_chunk_id":"0-0.12-0"},{"nsides":9,"question":"What is the inverse of 2 under <img src=./images/nonagon_symbol.png style=width:14px;height:14px>?","response_type":"free","response_choices":[],"correct_response":"7","response":"7","orientation_history":[[0]],"response_history":["7"],"rt":3535,"trial_type":"polygon-arrow-question","trial_index":0,"trial_index_global":57,"time_elapsed":538590,"internal_chunk_id":"0-0.12-0"},{"nsides":9,"question":"What is the inverse of 0 under <img src=./images/nonagon_symbol.png style=width:14px;height:14px>?","response_type":"free","response_choices":[],"correct_response":"0","response":"0","orientation_history":[[0]],"response_history":["0"],"rt":3490,"trial_type":"polygon-arrow-question","trial_index":0,"trial_index_global":58,"time_elapsed":542081,"internal_chunk_id":"0-0.12-0"},{"nsides":9,"question":"What is the inverse of 3 under <img src=./images/nonagon_symbol.png style=width:14px;height:14px>? Please explain in words how you got your answer.","response_type":"free","response_choices":[],"correct_response":"","response":"6, because 3+6=9, and 9 is equal to 9 or more, and 9-9=0. I also noticed that the inverse of any number is the one directly to the left or right of it on the nonagon.","orientation_history":[[0]],"response_history":["6, because if ","6, because if","6, because i","6, because 3+6 ","6, because 3+6=9, and 9 is equal to 9 or more, and 9-9 ","6, because 3+6=9, and 9 is equal to 9 or more, and 9-9=9","6, because 3+6=9, and 9 is equal to 9 or more, and 9-9=0. I also noticed that the inverse of any number is the one directly to the left or right of it on the nonagon."],"rt":45291,"trial_type":"polygon-arrow-question","trial_index":0,"trial_index_global":59,"time_elapsed":587373,"internal_chunk_id":"0-0.12-0"},{"nsides":9,"question":"Is 2 a generator under <img src=./images/nonagon_symbol.png style=width:14px;height:14px>? Please explain in words how you got your answer.","response_type":"free","response_choices":[],"correct_response":"","response":"Yes, because every number on the nonagon can be reached by adding together a string of 2s, even if you have to go around the nonagon more than once.","orientation_history":[[0]],"response_history":["Yes, because every number on the nonagon can be reached by adding together a string of 2s.","Yes, because every number on the nonagon can be reached by adding together a string of 2s, even if you have to go around the nonagon more than once."],"rt":54514,"trial_type":"polygon-arrow-question","trial_index":0,"trial_index_global":60,"time_elapsed":641887,"internal_chunk_id":"0-0.12-0"},{"nsides":9,"question":"Is 3 a generator under <img src=./images/nonagon_symbol.png style=width:1 4px;heig ht:14px>? Please explain in words how you got your answer.","response_type":"free","response_choices":[],"correct_response":"","response":"No, because there is no way to go from the 0/3/6 set of numbers to the 1/4/7 set using just a string of 3s.","orientation_history":[[0]],"response_history":["No, because there is no way to go from the -","No, because there is no way to go from the 0/3/6 set of numbers to the 1/4/7 set using just a string of 3s."],"rt":35589,"trial_type":"polygon-arrow-question","trial_index":0,"trial_index_global":61,"time_elapsed":677477,"internal_chunk_id":"0-0.12-0"},{"nsides":9,"question":"Is 5 a generator under <img src=./images/nonagon_symbol.png style=width:14px;height:14px>? Please explain in words how you got your answer.","response_type":"free","response_choices":[],"correct_response":"","response":"Yes, eventually a long enough string of 5s reaches every number on the nonagon.","orientation_history":[[0]],"response_history":["Yes, eve ntually  a long enough string of 5s reaches every number on the nonagon."],"rt":37678,"trial_type":"polygon-arrow-question","trial_index":0,"trial_index_global":62,"time_elapsed":715155,"internal_chunk_id":"0-0.12-0"},{"nsides":9,"question":"Is 6 a generator under <img src=./images/nonagon_symbol.png style=width:14px;height:14px>? Please explain in words how you got your answer.","response_type":"free","response_choices":[],"correct_response":"","response":"No, because no matter how long a string of 6s you add, they will only result in 0, 3, or 6.","orientation_history":[[0]],"response_history":["No, because no matter how long a string of 6s you add, they will only result in 0, 3, or 6."],"rt":34974,"trial_type":"polygon-arrow-question","trial_index":0,"trial_index_global":63,"time_elapsed":750129,"internal_chunk_id":"0-0.12-0"},{"nsides":"n","instructions":"Now we'd like to ask you some questions about <img src=./images/ngon_symbol.png style=width:14px;height:14px>,  where n  could be any postive counting number. For example, n could be 3, and the polygon a triangle, or n could be any other counting number you can think of, in which case the corresponding polygon would have n sides. Just as before, you can use either the polygon or arithmetic methods. If you need to write the operation, you can use (n), and your answers can include n to stand in for the arbitrary value if necessary. (You can use the polygon at the right to think, but it doesn't necessarily correspond to the real polygon, which is why we've left most of it dashed.)","orientation_history":[0],"rt":21043,"trial_type":"polygon-arrow-instructions","trial_index":0,"trial_index_global":64,"time_elapsed":771174,"internal_chunk_id":"0-0"},{"nsides":"n","question":"What is the formula for the inverse of 1 under <img src=./images/ngon_symbol.png style=width:14px;height:14px>?","response_type":"free","response_choices":[],"correct_response":"n-1","response":"n-1","orientation_history":[[0]],"response_history":["n-1"],"rt":46361,"trial_type":"polygon-arrow-question","trial_index":0,"trial_index_global":65,"time_elapsed":817536,"internal_chunk_id":"0-0.14-0"},{"nsides":"n","question":"What is the formula for the inverse of an element x under <img src=./images/ngon_symbol.png style=width:14px;height:14px>? Please explain in words how you got your answer.","response_type":"free","response_choices":[],"correct_response":"n-x","response":"n-x. The inverse is just the number that when added to another number = 0, and in the case of these shapes, 0 and the total number of nodes in the shape in the same (so for a hexagon, 0=6). So the inverse of a number is just the number of nodes n, minus the number we are trying to find the inverse for (x).","orientation_history":[[0]],"response_history":["n-x. I tried using an example hexagon, figured out the inverse of the first could of n","n-x. I tried using an example hexagon, figured out the inverse of the first cou ld of ","n-x. I tried using an example hexagon, figured out the inverse of the first could of","n-x. I tried using an example hexagon, figured out the inverse of the first could o","n-x. I tried using an example hexagon, figured out the inverse of the first could ","n-x. I tried using an example hexagon, figured out the inverse of the first could","n-x. I tried using an example hexagon, figured out the inverse of the first coul","n-x. I tried using an example hexagon, figured out the inverse of the first couple of numbers, made the forum","n-x. I tried using an example hexagon, figured out the inverse of the first couple of numbers, made the foru","n-x. I tried using an example hexagon, figured out the inverse of the first couple of numbers, made the formula from that, and then made sure the other numbers","n-x. I tried using an example hexagon, figured out the inverse of the first couple of numbers, made the formula from that, and then made sure t","n-x. I tried using an example he xagon, f igured out the inverse of the first couple of numbers, made the formula from that, and then made sure it worke","n-x. I tried using an example hexagon, figured out the inverse of the first couple of numbers, made the formula from that, and then made sure it worked for the rest of the numbers, ","n-x. I tried using an example hexagon, figured out the inverse of the first couple of numbers, made the formula from that, and then made sure it worked for the rest of the numbers,","n-x. I tried using an example hexagon, figured out the inverse of the first couple of numbers, made the formula from that, and then made sure it worked for the rest of the numbers. Then I tried it with a nonagon","n-x. The inverse is just the number that makes on","n-x. The inverse is just the number that m","n-x. The inverse is just the number that when added to another number = 0, and in the case of these c","n-x. The inverse is just the number that when added to another number = 0, and in the case of  these sh apes, 9","n-x. The inverse is just the number that when added to another number = 0, and in the case of these shapes, -","n-x. The inverse is just the number that when added to another number = 0, and in the case of these shapes, =","n-x. The inverse is just the number that when added to another number = 0, and in the case of these shapes, -","n-x. The inverse is just the number that when added to another number = 0, and in the case of these shapes, 0 and the otta","n-x. The inverse is just the number that when added to another number = 0, and in the case of these shapes, 0 and the ott","n-x. The inverse is just the number that when added to another number = 0, and in the case of these shapes, 0 and the ot","n-x. The inverse is just the number that when added to another number = 0, and in the case of these shapes, 0 and the o","n-x. The inverse is just the number that when added to another number = 0, and in the case of these shapes, 0 and the total number of nodes in the sh ape in t he same (so for a hexagon, 0=6). So the inverse of a number is just the number of nodes n, mu","n-x. The inverse is just the number that when added to another number = 0, and in the case of these shapes, 0 and the total number of nodes in the shape in the same (so for a hexagon, 0=6). So the inverse of a number is just the number of nodes n, minus the e","n-x. The inverse is just the number that when added to another number = 0, and in the case of these shapes, 0 and the total number of nodes in the shape in the same (so for a hexagon, 0=6). So the inverse of a number is just the number of nodes n, minus the number we are trying to find the inverse for (x)."],"rt":133267,"trial_type":"polygon-arrow-question","trial_index":0,"trial_index_global":66,"time_elapsed":950804,"internal_chunk_id":"0-0.14-0"},{"nsides":"n","question":"Is there a pattern to which elements are generators? How can you know if an element x is a generator under <img src=./images/ngon_symbol.png style= width: 14px;height:14px> without seeing whether it can make all the elements?.","response_type":"free","response_choices":[],"correct_response":"","response":"A generator will be any number that cannot be divided evenly into n, nor can any numbers that are multiples of that number. So for a nonagon (n=9), a generator will NOT be 3 (evenly divisible into 9), nor 6 (a multiple of 3), nor 0 (which basically substitutes for 9 in this situation), but any other number would be a generator.","orientation_history":[[0]],"response_history":["A gne","A gn","A generator will be any number that can be divided evenly into th","A generator will be any number that can be divided evenly into t","A generator will be any number that can be divided evenly into n, as well as any numbers that are multiples of that numbers.","A generator will be any number that can be divided evenly into n, as well as any numbers that are multiples of that numbers","A generator will be any number that can be divided e venly in to n, as well as any numbers that are multiples of that number. So for a hexagon (n=6), a generator will be 3 (evenly divisible ","A generator will be any number that can be divided evenly into n, as well as any numbers that are multiples of that number. So for a h","A generator will be any number that can be divided evenly into n, as well as any numbers that are multiples of that number. So for a nonagon (n=0","A generator will be any number that can be divided evenly into n, as well as any numbers that are multiples of that number. So for a nonagon (n=","A generator will be any number that can be divided evenly into n, as well as any numbers that are multiples of that number. So for a nonagon (n=9), a generator will be 3 (evenly divisible into 9), as well as 6 (a multiple of 3)","A generator will be any number that cann be divided evenly into n, as well as any numbers that are multiples of that number. So for a nonagon (n=9), a generator will be 3 (evenly divisible into 9) , as wel l as 6 (a multiple of 3)","A generator will be any number that canno be divided evenly into n, as well as any numbers that are multiples of that number. So for a nonagon (n=9), a generator will be 3 (evenly divisible into 9), as well as 6 (a multiple of 3)","A generator will be any number that cannot be divided evenly into n, as well as any numbers that are multiples of that number. So for a nonagon (n=9), a generator will be 3 (evenly divisible into 9), as well as 6 (a multiple of 3)","A generator will be any number that cannot be divided evenly into n, n any numbers that are multiples of that number. So for a nonagon (n=9), a generator will be 3 (evenly divisible into 9), as well as 6 (a multiple of 3)","A generator will be any number that cannot be divided evenly into n, nor any numbers that are multiples of that number. So for a nonagon (n=9), a generator will be 3 (evenly divisible into 9), as well as 6 (a multiple of 3)","A generator will be any number that cannot be d ivided e venly into n, nor  any numbers that are multiples of that number. So for a nonagon (n=9), a generator will be 3 (evenly divisible into 9), as well as 6 (a multiple of 3)","A generator will be any number that cannot be divided evenly into n, nor c any numbers that are multiples of that number. So for a nonagon (n=9), a generator will be 3 (evenly divisible into 9), as well as 6 (a multiple of 3)","A generator will be any number that cannot be divided evenly into n, nor can any numbers that are multiples of that number. So for a nonagon (n=9), a generator will be 3 (evenly divisible into 9), as well as 6 (a multiple of 3)","A generator will be any number that cannot be divided evenly into n, nor can any numbers that are multiples of that number. So for a nonagon (n=9), a generator will  be 3 (evenly divisible into 9), as well as 6 (a multiple of 3)","A generator will be any number that cannot be divided evenly into n, nor can any numbers that are multiples of that number. So f or a non agon (n=9), a generator will N be 3 (evenly divisible into 9), as well as 6 (a multiple of 3)","A generator will be any number that cannot be divided evenly into n, nor can any numbers that are multiples of that number. So for a nonagon (n=9), a generator will NOT be 3 (evenly divisible into 9), as well as 6 (a multiple of 3)","A generator will be any number that cannot be divided evenly into n, nor can any numbers that are multiples of that number. So for a nonagon (n=9), a generator will NOT be 3 (evenly divisible into 9),  6 (a multiple of 3)","A generator will be any number that cannot be divided evenly into n, nor can any numbers that are multiples of that number. So for a nonagon (n=9), a generator will NOT be 3 (evenly divisible into 9), no 6 (a multiple of 3)","A generator will be any number that cannot be divided evenly into n, nor can any numbers that are multiples of that number. So for a nonagon (n=9), a generator will NOT be 3 (evenly divisible into 9), nor 6 (a  multipl e of 3), nor 9, but","A generator will be any number that cannot be divided evenly into n, nor can any numbers that are multiples of that number. So for a nonagon (n=9), a generator will NOT be 3 (evenly divisible into 9), nor 6 (a multiple of 3), nor 9, bu","A generator will be any number that cannot be divided evenly into n, nor can any numbers that are multiples of that number. So for a nonagon (n=9), a generator will NOT be 3 (evenly divisible into 9), nor 6 (a multiple of 3), nor 9, b","A generator will be any number that cannot be divided evenly into n, nor can any numbers that are multiples of that number. So for a nonagon (n=9), a generator will NOT be 3 (evenly divisible into 9), nor 6 (a multiple of 3), nor 9, nor =","A generator will be any number that cannot be divided evenly into n, nor can any numbers that are multiples of that number. So for a nonagon (n=9), a generator will NOT be 3 (evenly divisible into 9), nor 6 (a multiple of 3), nor 9, nor 0 (since -","A  generat or will be any number that cannot be divided evenly into n, nor can any numbers that are multiples of that number. So for a nonagon (n=9), a generator will NOT be 3 (evenly divisible into 9), nor 6 (a multiple of 3), nor 9, nor 0 (since 0 works the same as 9 in thise case)","A generator will be any number that cannot be divided evenly into n, nor can any numbers that are multiples of that number. So for a nonagon (n=9), a generator will NOT be 3 (evenly divisible into 9), nor 6 (a multiple of 3), nor 9, nor 0 (since 0 works the same as 9 in thise case","A generator will be any number that cannot be divided evenly into n, nor can any numbers that are multiples of that number. So for a nonagon (n=9), a generator will NOT be 3 (evenly divisible into 9), nor 6 (a multiple of 3), nor 9,","A generator will be any number that cannot be divided evenly into n, nor can any numbers that are multiples of that number. So for a nonagon (n=9), a generator will NOT be 3 (evenly divisible in to 9), n or 6 (a multiple of 3), nor 9","A generator will be any number that cannot be divided evenly into n, nor can any numbers that are multiples of that number. So for a nonagon (n=9), a generator will NOT be 3 (evenly divisible into 9), nor 6 (a multiple of 3), nor 0 (which works","A generator will be any number that cannot be divided evenly into n, nor can any numbers that are multiples of that number. So for a nonagon (n=9), a generator will NOT be 3 (evenly divisible into 9), nor 6 (a multiple of 3), nor 0 (which work","A generator will be any number that cannot be divided evenly into n, nor can any numbers that are multiples of that number. So for a nonagon (n=9), a generator will NOT be 3 (evenly divisible into 9), nor 6 (a multiple of 3), nor 0 (which wor","A generator will be any number that cannot be divided evenly into n, nor can any numbers that are multiples of that number. So for a nonagon (n=9), a generator will NOT be 3 (evenly divisible into 9), nor 6 (a multiple  of 3), n or 0 (which wo","A generator will be any number that cannot be divided evenly into n, nor can any numbers that are multiples of that number. So for a nonagon (n=9), a generator will NOT be 3 (evenly divisible into 9), nor 6 (a multiple of 3), nor 0 (which w","A generator will be any number that cannot be divided evenly into n, nor can any numbers that are multiples of that number. So for a nonagon (n=9), a generator will NOT be 3 (evenly divisible into 9), nor 6 (a multiple of 3), nor 0 (which ","A generator will be any number that cannot be divided evenly into n, nor can any numbers that are multiples of that number. So for a nonagon (n=9), a generator will NOT be 3 (evenly divisible into 9), nor 6 (a multiple of 3), nor 0 (which","A generator will be any number that cannot be divided evenly into n, nor can any numbers that are multiples of that number. So for a nonagon (n=9), a generator will NOT be 3 (evenly divisible into 9), nor 6 (a multiple of 3), nor 0 (whic","A gene rator wi ll be any number that cannot be divided evenly into n, nor can any numbers that are multiples of that number. So for a nonagon (n=9), a generator will NOT be 3 (evenly divisible into 9), nor 6 (a multiple of 3), nor 0 (whi","A generator will be any number that cannot be divided evenly into n, nor can any numbers that are multiples of that number. So for a nonagon (n=9), a generator will NOT be 3 (evenly divisible into 9), nor 6 (a multiple of 3), nor 0 (wh","A generator will be any number that cannot be divided evenly into n, nor can any numbers that are multiples of that number. So for a nonagon (n=9), a generator will NOT be 3 (evenly divisible into 9), nor 6 (a multiple of 3), nor 0 (which basically substitutes for 9 in this situation) but any ","A generator will be any number that cannot be divided evenly into n, nor can any numbers that are multiples of that number. So for a nonagon (n=9), a generator will NOT be 3 (evenly divisible into 9), nor 6 (a multiple of 3), nor  0 (whic h basically substitutes for 9 in this situation) but any","A generator will be any number that cannot be divided evenly into n, nor can any numbers that are multiples of that number. So for a nonagon (n=9), a generator will NOT be 3 (evenly divisible into 9), nor 6 (a multiple of 3), nor 0 (which basically substitutes for 9 in this situation) but an","A generator will be any number that cannot be divided evenly into n, nor can any numbers that are multiples of that number. So for a nonagon (n=9), a generator will NOT be 3 (evenly divisible into 9), nor 6 (a multiple of 3), nor 0 (which basically substitutes for 9 in this situation) but a","A generator will be any number that cannot be divided evenly into n, nor can any numbers that are multiples of that number. So for a nonagon (n=9), a generator will NOT be 3 (evenly divisible into 9), nor 6 (a multiple of 3), nor 0 (which basically substitutes for 9 in this situation) but ","A generator will be any number that cannot be di vided ev enly into n, nor can any numbers that are multiples of that number. So for a nonagon (n=9), a generator will NOT be 3 (evenly divisible into 9), nor 6 (a multiple of 3), nor 0 (which basically substitutes for 9 in this situation) but","A generator will be any number that cannot be divided evenly into n, nor can any numbers that are multiples of that number. So for a nonagon (n=9), a generator will NOT be 3 (evenly divisible into 9), nor 6 (a multiple of 3), nor 0 (which basically substitutes for 9 in this situation) bu","A generator will be any number that cannot be divided evenly into n, nor can any numbers that are multiples of that number. So for a nonagon (n=9), a generator will NOT be 3 (evenly divisible into 9), nor 6 (a multiple of 3), nor 0 (which basically substitutes for 9 in this situation) b","A generator will be any number that cannot be divided evenly into n, nor can any numbers that are multiples of that number. So for a nonagon (n=9), a generator will NOT be  3 (evenl y divisible into 9), nor 6 (a multiple of 3), nor 0 (which basically substitutes for 9 in this situation) ","A generator will be any number that cannot be divided evenly into n, nor can any numbers that are multiples of that number. So for a nonagon (n=9), a generator will NOT be 3 (evenly divisible into 9), nor 6 (a multiple of 3), nor 0 (which basically substitutes for 9 in this situation), but any other number would be a generator."],"rt":219319,"trial_type":"polygon-arrow-question","trial_index":0,"trial_index_global":67,"time_elapsed":1170125,"internal_chunk_id":"0-0.14-0"},{"nsides":"n","question":"True or false: If x is an odd number, it must be a generator under <img src=./images/ngon_symbol.png style=width:14px;height:14px>.","response_type":"multi","response_choices":["True","False"],"correct_response":"False","response":"False","orientation_history":[[0]],"response_history":["False"],"rt":5499,"trial_type":"polygon-arrow-question","trial_index":0,"trial_index_global":68,"time_elapsed":1175625,"internal_chunk_id":"0-0.14-0"},{"nsides":"n","question":"True or false: If x is an even number, it must not be a generator under <img src=./images/ngon_symbol.png style=width:14px;height:14px>.","response_type":"multi","response_choices":["True","False"],"correct_response":"False","response":"False","orientation_history":[[0]],"response_history":["False"],"rt":8133,"trial_type":"polygon-arrow-question","trial_index":0,"trial_index_global":69,"time_elapsed":1183759,"internal_chunk_id":"0-0.14-0"},{"nsides":"n","question":"True or false: If x is not a generator under <img src=./images/ngon_symbol.png style=width:14px;height:14px>, x must be a divisor of n, that is, x must divide n evenly, with no remainder.","response_type":"multi","response_choices":["True","False"],"correct_response":"False","response":"True","orientation_history":[[0]],"response_history":["True"],"rt":5928,"trial_type":"polygon-arrow-question","trial_index":0,"trial_index_global":70,"time_elapsed":1189687,"internal_chunk_id":"0-0.14-0"},{"nsides":"n","question":"True or false: If x is not a generator under <img src=./images/ngon_symbol.png style=width:14px;height:14px>, x must be a multiple of a divisor of n. Please explain in words why your answer is correct.","response_type":"free","response_choices":[],"correct_response":"True","response":"True. A multiple of a non-generator will act the same as that original divisor, by restricting the possible numbers to the same set as the original divisor.","orientation_history":[[0]],"response_history":["Because","True. a m","True. a ","True. a","True. ","True. A multiple of a non-generator will cact","True. A multiple of a non-generator will cac","True. A multiple of a non-generator will ca","True. A multiple of a non-generator will c","True. A multiple of a non-generator will act the same as a generator, by restricting the possible numbers the ","True. A multiple of a non-generator will  act the  same as a generator, by restricting the possible numbers the","True. A multiple of a non-generator will act the same as a generator, by restricting the possible numbers th","True. A multiple of a non-generator will act the same as a generator, by restricting the possible numbers to the same set","True. A multiple of a non-generator will act the same as, by restricting the possible numbers to the same set","True. A multiple of a non-generator will act the same as , by restricting the possible numbers to the same set","True. A multiple of a non-generator will act the same as t, by restricting the possible numbers to the same set","True. A multiple of a non-generator will act the same as th, by restricting the possible numbers to the same set","True. A multiple of a non-generator will act the same as that, by restricting the possible numbers to the same set","True. A multiple of a non-generator will act the same as that , by restricting the possible numbers to the same set","Tr ue. A mu ltiple of a non-generator will act the same as that or, by restricting the possible numbers to the same set","True. A multiple of a non-generator will act the same as that orig, by restricting the possible numbers to the same set","True. A multiple of a non-generator will act the same as that origin, by restricting the possible numbers to the same set","True. A multiple of a non-generator will act the same as that origina, by restricting the possible numbers to the same set","True. A multiple of a non-generator will act the same as that original , by restricting the possible numbers to the same set","True. A multiple of a non-generator will act the same as that original d, by restricting the possible numbers to the same set","True. A multiple of a non-generator will act the same as that original di, by restricting the possible numbers to the same set","True. A multiple of a non-generator will act the same as that original div, by restricting the possible numbers to the same  set","Tr ue. A multiple of a non-generator will act the same as that original divi, by restricting the possible numbers to the same set","True. A multiple of a non-generator will act the same as that original divis, by restricting the possible numbers to the same set","True. A multiple of a non-generator will act the same as that original divisor, by restricting the possible numbers to the same set as the original divisor."],"rt":49465,"trial_type":"polygon-arrow-question","trial_index":0,"trial_index_global":71,"time_elapsed":1239154,"internal_chunk_id":"0-0.14-0"},{"nsides":"n","question":"If an element x is a generator under <img src=./images/ngon_symbol.png style=width:14px;height:14px>, is its inverse a generator under <img src=./images/ngon_symbol.png style=width:14px;height:14px> always, sometimes, or never?","response_type":"multi","response_choices":["Always","Sometimes","Never"],"correct_response":"Always","response":"Always","orientation_history":[[0]],"response_history":["Always"],"rt":38794,"trial_type":"polygon-arrow-question","trial_index":0,"trial_index_global":72,"time_elapsed":1277950,"internal_chunk_id":"0-0.14-0"},{"nsides":"n","question":"if an element x is a generator under <img src=./images/ngon_symbol.png style=width:14px;height:14px>, is x <img src=./images/ngon_symbol.png style=width:14px;height:14px> x a generator under <img src=./images/ngon_symbol.png style=width:14px;height:14px> always, sometimes, or never? Please explain in words why your answer is correct.","response_type":"free","response_choices":[],"correct_response":"sometimes","response":"I'm not sure how to explain it, I just sort of visualized it on various shapes and it worked.","orientation_history":[[0]],"response_history":["I'm not sure how to explain it oether ","I'm not sure how to explain it oether","I'm not sure how to explain it oethe","I'm not sure how to explain it oeth","I'm not sure how to explain it oet","I'm not sure  how to e xplain it oe","I'm not sure how to explain it other than ","I'm not sure how to explain it ","I'm not sure how to explain it, I just sort of visualized it on various shapes and it worked."],"rt":35293,"trial_type":"polygon-arrow-question","trial_index":0,"trial_index_global":73,"time_elapsed":1313244,"internal_chunk_id":"0-0.14-0"},{"nsides":"n","question":"If an element x is not a generator under <img src=./images/ngon_symbol.png style=width:14px;height:14px>, is x <img src=./images/ngon_symbol.png style=width:14px;height:14px> x a generator under <img src=./images/ngon_symbol.png style=width:14px;height:14px> always, sometimes, or never?","response_type":"multi","response_choices":["Always","Sometimes","Never"],"correct_response":"Never","response":"Never","orientation_history":[[0]],"response_history":["Never"],"rt":25263,"trial_type":"polygon-arrow-question","trial_index":0,"trial_index_global":74,"time_elapsed":1338508,"internal_chunk_id":"0-0.14 -0"},{"instructions":"We would like to ask you some questions about your background. Please press Continue to continue.","rt":1109,"trial_type":"instructions","trial_index":0,"trial_index_global":75,"time_elapsed":1339618,"internal_chunk_id":"0-0.15-0"},{"question":"What is your age?","response_type":"free","response_choices":[],"correct_response":"","response":"39","response_history":["39"],"rt":2524,"trial_type":"question","trial_index":0,"trial_index_global":76,"time_elapsed":1342143,"internal_chunk_id":"0-0.15-0"},{"question":"What is your level of education?","response_type":"multi","response_choices":["Did not graduate high school","High school diploma","Some college, no degree","Associates Degree","Bachelors Degree","Some graduate school, no degree","Masters Degree","Doctorate, M.D., etc."],"correct_response":"","response":"Bachelors Degree","response_history":["Bachelors Degree"],"rt":2238,"trial_type":"question","trial_index":0,"trial_index_global":77,"time_elapsed":1344382,"internal_chunk_id":"0-0.15-0"},{"question":"What is the most advanced math class you've completed? If you have multiple classes and you're not sure which one is most advanced, please list them.","response_type":"free","response_choices":[],"correct_response":"","response":"differential equations","response_history":["differ","differntial ","differntial","differntia","differnti","differnt","differn","differential equations"],"rt":11957,"trial_type":"question","trial_index":0,"trial_index_global":78,"time_elapsed":1356340,"internal_chunk_id":"0-0.15-0"},{"question":"How familiar are you with the concept of modular arithmetic?","response_type":"multi","response_choices":["1 - never heard of it","2 - heard of it but didn't know what it was","3 - seen it used or explained","4 - used it but not often or recently","5 - used it, remember and understand it"],"correct_response":"1","response":"1 - never heard of it","response_history":["1 - never heard of it"],"rt":4320,"trial_type":"qu estion","trial_index":0,"trial_index_global":79,"time_elapsed":1360660,"internal_chunk_id":"0-0.15-0"},{"question":"How familiar are you with the concept of a mathematical group?","response_type":"multi","response_choices":["1 - never heard of it","2 - heard of it but didn't know what it was","3 - seen it used or explained","4 - used it but not often or recently","5 - used it, remember and understand it"],"correct_response":"1","response":"5 - used it, remember and understand it","response_history":["5 - used it, remember and understand it"],"rt":3359,"trial_type":"question","trial_index":0,"trial_index_global":80,"time_elapsed":1364019,"internal_chunk_id":"0-0.15-0"},{"question":"Do you feel you learned something from this HIT?","response_type":"multi","response_choices":["1 - not at all","2 - somewhat","3 - definitely"],"correct_response":"1","response":"2 - somewhat","response_history":["2 - somewhat"],"rt":3446,"trial_type":"question","trial_index":0,"trial_index_global":81,"time_elapsed":1367466,"internal_chunk_id":"0-0.15-0"},{"question":"Do you feel you understood the concepts in this HIT?","response_type":"multi","response_choices":["1 - not at all","2 - somewhat","3 - definitely"],"correct_response":"1","response":"3 - definitely","response_history":["3 - definitely"],"rt":2123,"trial_type":"question","trial_index":0,"trial_index_global":82,"time_elapsed":1369590,"internal_chunk_id":"0-0.15-0"},{"question":"Did you enjoy this HIT?","response_type":"multi","response_choices":["1 - not at all","2 - somewhat","3 - definitely"],"correct_response":"1","response":"3 - definitely","response_history":["3 - definitely"],"rt":1506,"trial_type":"question","trial_index":0,"trial_index_global":83,"time_elapsed":1371097,"internal_chunk_id":"0-0.15-0"},{"question":"What is your gender?","response_type":"multi","response_choices":["Female","Male","Other"],"correct_response":"","response":"Female","response_history":["Female"],"rt":1733,"trial_type":"question","trial_index":0,"trial_index_global":84,"time_elapsed":1372832,"internal_chunk_id":"0-0.15-0"},{"question":"What is/are your native language(s)? (The languages spoken in your household when you were a child.)","response_type":"free","response_choices":[],"correct_response":"","response":"English","response_history":["English"],"rt":3453,"trial_type":"question","trial_index":0,"trial_index_global":85,"time_elapsed":1376285,"internal_chunk_id":"0-0.15-0"},{"question":"Did you use pen and paper at any point on this HIT?","response_type":"free","response_choices":[],"correct_response":"","response":"no","response_history":["no"],"rt":2554,"trial_type":"question","trial_index":0,"trial_index_global":86,"time_elapsed":1378840,"internal_chunk_id":"0-0.15-0"},{"question":"Do you have any comments on this HIT?","response_type":"free","response_choices":[],"correct_response":"","response":"This was really fun, thanks!","response_history":["This was really fun, thanks!"],"rt":5524,"trial_type":"quest ion","trial_index":0,"trial_index_global":87,"time_elapsed":1384364,"internal_chunk_id":"0-0.15-0"}]