[{"nsides":6,"instructions":"Let's define a new operation <img src=./images/hexagon_symbol.png style=width:14px;height:14px>. This operation will give us a way of combining two of the numbers 0, 1, 2, 3, 4, 5 to get another one of them back. Consider the hexagon at the right, where I've labeled each point with one of the numbers. To perform <img src=./images/hexagon_symbol.png style=width:14px;height:14px>, you can use the interactive diagram on the right, or perform the operation in your mind. Point the arrow at the first number on the hexagon by clicking, then click (or click and drag) to move the arrow the second number of points clockwise around the hexagon. The number the arrow arrives at is your result. (The operation is called <img src=./images/hexagon_symbol.png style=width:14px;height:14px> because it uses the hexagon, which has 6 sides.) <br /><br />For example, 3 <img src=./images/hexagon_symbol.png style=width:14px;height:14px> 5 =  2, becau se 5 steps clockwise from 3 on the hexagon brings us to 2. So 3 <img src=./images/hexagon_symbol.png style=width:14px;height:14px> 5 = 2.<br /><br />Similarly, 1 <img src=./images/hexagon_symbol.png style=width:14px;height:14px> 4 = 5, because 4 steps clockwise from 1 brings us to 5. <br /><br />Click Continue when you're ready to move on.","orientation_history":[0],"rt":24125,"trial_type":"polygon-arrow-instructions","trial_index":0,"trial_index_global":1,"time_elapsed":29868,"internal_chunk_id":"0-0"},{"nsides":6,"instructions":"Do you see how <img src=./images/hexagon_symbol.png style=width:14px;height:14px> works? By labeling the points of the hexagon with the numbers from 0 to 5, we ensure that when we combine two numbers under <img src=./images/hexagon_symbol.png style=width:14px;height:14px>, we only produce numbers between 0 and 5.<br /><br />Click Continue when you are ready to move on.","orientation_history":[0,[6.271949824921624,6.271949824921624,6.271949824921624,0,0.011235482257962559,0.022468128585825475,0.044913595469789236,0.06731387579270498,0.09065988720074514,0.11444030527006332,0.13863973713415811,0.17268149161800528,0.21109333322274648,0.24781151673870183,0.28473043852271207,0.32549585523647795,0.37394191998374593,0.40024065703397405,0.4475199751571699,0.5012642648715824,0.5383745133462301,0.5813801838048996,0.6175022401470737,0.660009043055932,0.6765859585802032,0.702256931509007,0.7440993450278421,0.7936624380570995,0.818173307801524,0.842247410730286,0.8584387287005676,0.8745917759891814,0.8890256233943199,0.9048270894157867,0.9272952180016122,0.9492697022982747,0.9492697022982747,0.970746113393143,0.970746113393143,0.9917220574271657,0.9917220574271657,0.9917220574271657,0.9917220574271657,0.9917220574271657,0.9917220574271657,0.9917220574271657,1.0007558630951863,1.0007558630951863,1.0007558630951863,1.0007558630951863,1.0007558630951863,1.0007558630951863,1.0007558630951863,1.0007558630951863,1.0007558630951863,1.0007558630951863,1.0007558630951863,1.0007558630951863,1.0007558630951863,1.0007558630951863,1.0007558630951863,1.0007558630951863,1.0007558630951863,1.0007558630951863,1.0379524391755077,1.112224816327389,1.2078705557831637,1.2874883624194424,1.3757760593899753,1.3876855095324125,1.4479610879170015,1.4968572891369563,1.6921483273656603,1.7280243777714654,1.7752175321720431,1.810027926758557,1.8442573138851408,1.899846021635236,1.9322372176884492,1.9534035411526967,1.994663937324676,2.0246403283164067,2.0537652026514577,2.0537652026514577,2.0632820926668214,2.0632820926668214,2.0632820926668214,2.0632820926668214,2.0632820926668214,2.0632820926668214,2.0632820926668214,2.0632820926668214,2.0632820926668214,2.0632820926668214,2.0632820926668214,2.0632820926668214,2.0632820926668214,2.0632820926668214,2.0632820926668214,2.0632820926668214,2.0632820926668214,2.105751400580993,2.1467149264132495,2.2744101095743487,2.330989744865403,2.3900798200964624,2.459276098715045,2.51279636717436,2.5569913974694667,2.6285347441807545,2.7159701852501614,2.7897759741441064,2.8309940532187654,2.88544127102419,2.913096014297931,2.913096014297931,2.926577771842287,2.9528548860696597,2.9528548860696597,2.9656530281372655,2.9656530281372655,2.9782265054815173,2.9782265054815173,2.97997129840678,3.0027076380695803,3.025101192895143,3.0471377181947465,3.058451421701352,3.0688048049858683,3.0791738435938356,3.090091842638568,3.090091842638568,3.090091842638568,3.090091842638568,3.1003788909314727,3.120977017964189,3.13128374044355,3.162208289215397,3.2443225210084625,3.296589395513734,3.391571275050616,3.4536347751523264,3.5051195305642318,3.5608250473436884,3.6401605592280113,3.7243321478397653,3.7400115470683306,3.773837202200029,3.801820826695905,3.8221138782570074,3.835144690722504,3.8552188840514217,3.8750894185290687,3.901022629775685,3.9141710065143407,3.9269908169872414,3.9460967721056823,3.958827190414356,3.958827190414356,3.958827190414356,3.958827190414356,3.958827190414356,3.958827190414356,3.958827190414356,3.958827190414356,3.9715472951234516,3.9782279843906605,4.004755756589974,4.017650704187987,4.053823097960963,4.0843009091483005,4.1887902047863905],[4.543557078373569,4.543557078373569,4.576861266399189,4.621729093183944,4.689404522943238,4.758867111735693,4.81787828890978,4.898447157533694,4.932303255627313,4.987578229513861,5.041181671889644,5.062104270751197,5.092895357497055,5.12294642842654,5.161819537856006,5.180731390572991,5.20919978188806,5.227633944070733,5.227633944070733,5.227633944070733,5.227633944070733,5.227633944070733,5.227633944070733,5.227633944070733,5.227633944070733,5.227633944070733,5.227633944070733,5.2456911631140635,5.274310542641505,5.355890089177974,5.422174000545308,5.512937499656908,5.626836939516394,5.730153863028946,5.782171920375997,5.8378842632919,5.878293520894503,5.904534215508109,5.930194919352676,5.955261991678163,5.988950742068399,6.012749182026586,6.021966772565051,6.042825548849779,6.042825548849779,6.0450715247695745,6.0450715247695745,6.056386459125701,6.056386459125701,6.078543497349808,6.0876046273697595,6.0876046273697595,6.0876046273697595,6.107447010494219,6.107447010494219,6.116521479409243,6.116521479409243,6.1361069517911835,6.137437180471149,6.164479970036409,6.164479970036409,6.165549136501291,6.1745240913389985,6.192525419978841,6.192525419978841,6.192525419978841,6.201548965050517,6.202281208024356,6.202281208024356,6.202281208024356,6.202281208024356,6.202281208024356,6.202281208024356,6.202281208024356,6.202281208024356,6.202281208024356,6.202281208024356,6.202281208024356,6.283185307179586]],"rt":10451,"trial_type":"polygon-arrow-instructions","trial_index":0,"trial_index_global":2,"time_elapsed":40325,"internal_chunk_id":"0-0"},{"nsides":6,"question":"Now try one on your own! What is 4 <img src=./images/hexagon_symbol.png style=width:14px;height:14px> 5? <br /><br /> (Remember, to perform <img src=./images/hexagon_symbol.png  style= width:14px;height:14px>, you can use the interactive diagram on the right, or perform the operation in your mind. Point the arrow at the first number on the hexagon, then move the arrow the second number of points clockwise around the hexagon. The number the arrow arrives at is your result.)","response_type":"free","response_choices":[],"correct_response":"3","response":"1","orientation_history":[[0],[0,0,0,0,0,0,0,0,0.015581394754467404,-6.237762027758009,-6.2079201430909,-6.148448034764787,-6.089602007026178,-6.043281911542904,-5.999926100300558,-5.9533772511641505,-5.906665951053878,-5.859995369818188,-5.793979355008368,-5.740793422878956,-5.694810887326416,-5.662003710234774,-5.617512541775188,-5.574206301380478,-5.502826038377417,-5.471969195217766,-5.452363864360561,-5.423245882853522,-5.394735436883087,-5.377034973532221,-5.3314611000578696,-5.294802294774902,-5.276625567675194,-5.2514096006724635,-5.240632369131274,-5.233694918486619,-5.211829616414656,-5.211829616414656,-5.205187402574591,-5.205187402574591,-5.205187402574591,-5.205187402574591,-5.205187402574591,-5.205187402574591,-5.205187402574591,-5.205187402574591,-5.205187402574591,-5.205187402574591,-5.205187402574591,-5.205187402574591,-5.205187402574591,-5.205187402574591,-5.205187402574591,-5.205187402574591,-5.205187402574591,-5.205187402574591,-5.205187402574591,-5.205187402574591,-5.205187402574591,-5.205187402574591,-5.205187402574591,-5.205187402574591,-5.205187402574591,-5.205187402574591,-5.205187402574591,-5.205187402574591,-5.205187402574591,-5.205187402574591,-5.205187402574591,-5.205187402574591,-5.205187402574591,-5.205187402574591,-5.205187402574591,-5.205187402574591,-5.205187402574591,-5.205187402574591,-5.205187402574591,-5.205187402574591,-5.205187402574591,-5.205187402574591,-5.205187402574591,-5.205187402574591,-5.205187402574591,-5.205187402574591,-5.205187402574591,-5.205187402574591,-5.205187402574591,-5.205187402574591,-5.205187402574591,-5.205187402574591,-5.205187402574591,-5.205187402574591,-5.205187402574591,-5.205187402574591,-5.205187402574591,-5.205187402574591,-5.205187402574591,-5.205187402574591,-5.205187402574591,-5.205187402574591,-5.205187402574591,-5.205187402574591,-5.205187402574591,-5.205187402574591,-5.205187402574591,-5.205187402574591,-5.205187402574591,-5.205187402574591,-5.205187402574591,-5.205187402574591,-5.205187402574591,-5.205187402574591,-5.205187402574591,-5.205187402574591,-5.205187402574591,-5.205187402574591,-5.205187402574591,-5.205187402574591,-5.205187402574591,-5.205187402574591,-5.205187402574591,-5.205187402574591,-5.205187402574591,-5.205187402574591,-5.205187402574591,-5.205187402574591,-5.205187402574591,-5.205187402574591,-5.205187402574591,-5.205187402574591,-5.205187402574591,-5.205187402574591,-5.205187402574591,-5.205187402574591,-5.205187402574591,-5.205187402574591,-5.205187402574591,-5.205187402574591,-5.205187402574591,-5.205187402574591,-5.205187402574591,-5.205187402574591,-5.205187402574591,-5.205187402574591,-5.205187402574591,-5.205187402574591,-5.205187402574591,-5.205187402574591,-5.205187402574591,-5.205187402574591,-5.205187402574591,-5.205187402574591,-5.205187402574591,-5.205187402574591,-5.205187402574591,-5.205187402574591,-5.205187402574591,-5.205187402574591,-5.205187402574591,-5.205187402574591,-5.205187402574591,-5.205187402574591,-5.205187402574591,-5.205187402574591,-5.205187402574591,-5.205187402574591,-5.205187402574591,-5.205187402574591,-5.205187402574591,-5.205187402574591,-5.205187402574591,-5.205187402574591,-5.205187402574591,-5.205187402574591,-5.205187402574591,-5.205187402574591,-5.205187402574591,-5.205187402574591,-5.205187402574591,-5.205187402574591,-5.205187402574591,-5.205187402574591,-5.205187402574591,-5.205187402574591,-5.205187402574591,-5.205187402574591,-5.205187402574591,-5.205187402574591,-5.205187402574591,-5.205187402574591,-5.205187402574591,-5.205187402574591,-5.205187402574591,-5.205187402574591,-5.205187402574591,-5.205187402574591,-5.205187402574591,-5.205187402574591,-5.205187402574591,-5.205187402574591,-5.205187402574591,-5.205187402574591,-5.205187402574591,-5.205187402574591,-5.205187402574591,-5.205187402574591,-5.205187402574591,-5.205187402574591,-5.205187402574591,-5.205187402574591,-5.205187402574591,-5.205187402574591,-5.205187402574591,-5.205187402574591,-5.205187402574591,-5.205187402574591,-5.205187402574591,-5.205187402574591,-5.205187402574591,-5.205187402574591,-5.205187402574591,-5.205187402574591,-5.205187402574591,-5.205187402574591,-5.205187402574591,-5.205187402574591,-5.205187402574591,-5.205187402574591,-5.205187402574591,-5.205187402574591,-5.205187402574591,-5.205187402574591,-5.205187402574591,-5.205187402574591,-5.205187402574591,-5.205187402574591,-5.205187402574591,-5.205187402574591,-5.205187402574591,-5.205187402574591,-5.205187402574591,-5.205187402574591,-5.205187402574591,-5.205187402574591,-5.205187402574591,-5.205187402574591,-5.205187402574591,-5.205187402574591,-5.205187402574591,-5.205187402574591,-5.205187402574591,-5.205187402574591,-5.205187402574591,-5.205187402574591,-5.205187402574591,-5.205187402574591,-5.205187402574591,-5.205187402574591,-5.205187402574591,-5.205187402574591,-5.205187402574591,-5.205187402574591,-5.205187402574591,-5.205187402574591,-5.205187402574591,-5.205187402574591,-5.205187402574591,-5.205187402574591,-5.205187402574591,-5.205187402574591,-5.205187402574591,-5.205187402574591,-5.205187402574591,-5.205187402574591,-5.205187402574591,-5.205187402574591,-5.205187402574591,-5.205187402574591,-5.205187402574591,-5.205187402574591,-5.205187402574591,-5.205187402574591,-5.205187402574591,-5.205187402574591,-5.205187402574591,-5.205187402574591,-5.205187402574591,-5.205187402574591,-5.205187402574591,-5.205187402574591,-5.205187402574591,-5.205187402574591,-5.205187402574591,-5.205187402574591,-5.205187402574591,-5.205187402574591,-5.205187402574591,-5.205187402574591,-5.205187402574591,-5.205187402574591,-5.205187402574591,-5.205187402574591,-5.205187402574591,-5.205187402574591,-5.205187402574591,-5.205187402574591,-5.205187402574591,-5.205187402574591,-5.205187402574591,-5.205187402574591,-5.205187402574591,-5.205187402574591,-5.205187402574591,-5.205187402574591,-5.205187402574591,-5.205187402574591,-5.205187402574591,-5.205187402574591,-5.205187402574591,-5.205187402574591,-5.205187402574591,-5.205187402574591,-5.205187402574591,-5.205187402574591,-5.205187402574591,-5.205187402574591,-5.205187402574591,-5.205187402574591,-5.205187402574591,-5.205187402574591,-5.205187402574591,-5.205187402574591,-5.205187402574591,-5.205187402574591,-5.205187402574591,-5.205187402574591,-5.205187402574591,-5.205187402574591,-5.205187402574591,-5.205187402574591,-5.205187402574591,-5.205187402574591,-5.205187402574591,-5.205187402574591,-5.205187402574591,-5.205187402574591,-5.205187402574591,-5.205187402574591,-5.205187402574591,-5.205187402574591,-5.205187402574591,-5.205187402574591,-5.205187402574591,-5.205187402574591,-5.205187402574591,-5.205187402574591,-5.205187402574591,-5.205187402574591,-5.205187402574591,-5.205187402574591,-5.205187402574591,-5.205187402574591,-5.205187402574591,-5.205187402574591,-5.205187402574591,-5.205187402574591,-5.205187402574591,-5.205187402574591,-5.205187402574591,-5.205187402574591,-5.205187402574591,-5.205187402574591,-5.205187402574591,-5.205187402574591,-5.205187402574591,-5.205187402574591,-5.205187402574591,-5.205187402574591,-5.205187402574591,-5.205187402574591,-5.205187402574591,-5.205187402574591,-5.205187402574591,-5.205187402574591,-5.205187402574591,-5.205187402574591,-5.205187402574591,-5.205187402574591,-5.205187402574591,-5.205187402574591,-5.205187402574591,-5.205187402574591,-5.205187402574591,-5.205187402574591,-5.205187402574591,-5.205187402574591,-5.205187402574591,-5.205187402574591,-5.205187402574591,-5.205187402574591,-5.205187402574591,-5.205187402574591,-5.205187402574591,-5.205187402574591,-5.205187402574591,-5.205187402574591,-5.205187402574591,-5.205187402574591,-5.205187402574591,-5.205187402574591,-5.205187402574591,-5.205187402574591,-5.205187402574591,-5.205187402574591,-5.205187402574591,-5.205187402574591,-5.205187402574591,-5.205187402574591,-5.205187402574591,-5.205187402574591,-5.205187402574591,-5.205187402574591,-5.205187402574591,-5.205187402574591,-5.205187402574591,-5.205187402574591,-5.205187402574591,-5.205187402574591,-5.205187402574591,-5.205187402574591,-5.205187402574591,-5.205187402574591,-5.205187402574591,-5.205187402574591,-5.205187402574591,-5.205187402574591,-5.205187402574591,-5.205187402574591,-5.205187402574591,-5.205187402574591,-5.205187402574591,-5.205187402574591,-5.205187402574591,-5.205187402574591,-5.205187402574591,-5.205187402574591,-5.205187402574591,-5.205187402574591,-5.205187402574591,-5.205187402574591,-5.205187402574591,-5.205187402574591,-5.205187402574591,-5.205187402574591,-5.205187402574591,-5.205187402574591,-5.205187402574591,-5.205187402574591,-5.205187402574591,-5.205187402574591,-5.205187402574591,-5.194111644549523,-5.13656562061851,-5.092415338333155,-5.027531701441219,-4.972844572367965,-4.871607510792891,-4.80336830536406,-4.708608280061701,-4.598889242705113,-4.4219870378362485,-4.272174581263351,-4.2033180919623065,-4.108366385619551,-3.9964441429825635,-3.9381109745104816,-3.595516095848346,-3.5116614701091065,-3.5010611604532995,-3.442708238602158,-3.328726315973125,-3.273765541451704,-3.119974400353286,-3.029601210392392,-2.9239785596452768,-2.861446761683019,-2.78055371212945,-2.726263306711658,-2.624709424107309,-2.5940791751462218,-2.5728910520362405,-2.5392678500626302,-2.512533555091055,-2.4954555908572225,-2.470684333928987,-2.435126205317529,-2.4014310979715128,-2.390601196483005,-2.3695270334864906,-2.339334868609528,-2.3296368967924383,-2.310771210770768,-2.283750761583503,-2.283750761583503,-2.2665522663751148,-2.249976654895979,-2.226227455257769,-2.211102558279606,-2.2037437377213935,-2.189419210200004,-2.1824479830849732,-2.1824479830849732,-2.1824479830849732,-2.1824479830849732,-2.1824479830849732,-2.1756005121217594,-2.168874156166604,-2.1622663228264907,-2.1622663228264907,-2.1622663228264907,-2.1622663228264907,-2.1622663228264907,-2.1622663228264907,-2.1622663228264907,-2.1622663228264907,-2.1622663228264907,-2.1622663228264907,-2.1622663228264907,-2.1622663228264907,-2.1622663228264907,-2.1622663228264907,-2.1622663228264907,-2.1622663228264907,-2.1622663228264907,-2.1622663228264907,-2.1622663228264907,-2.1622663228264907,-2.1622663228264907,-2.1622663228264907,-2.1622663228264907,-2.1622663228264907,-2.1622663228264907,-2.1622663228264907,-2.1622663228264907,-2.1622663228264907,-2.1622663228264907,-2.1622663228264907,-2.1622663228264907,-2.1622663228264907,-2.1622663228264907,-2.1622663228264907,-2.1622663228264907,-2.1622663228264907,-2.1622663228264907,-2.1622663228264907,-2.1622663228264907,-2.1622663228264907,-2.1622663228264907,-2.1622663228264907,-2.1622663228264907,-2.1622663228264907,-2.1622663228264907,-2.1622663228264907,-2.1622663228264907,-2.1622663228264907,-2.1622663228264907,-2.1622663228264907,-2.1622663228264907,-2.1622663228264907,-2.1622663228264907,-2.1622663228264907,-2.1622663228264907,-2.1622663228264907,-2.1622663228264907,-2.1622663228264907,-2.1622663228264907,-2.1622663228264907,-2.1622663228264907,-2.1622663228264907,-2.1622663228264907,-2.155774468846827,-2.155774468846827,-2.155774468846827,-2.155774468846827,-2.155774468846827,-2.155774468846827,-2.1468996718699414,-2.137910603983623,-2.1288065248115817,-2.110250661093353,-2.100797697908604,-2.091227374481379,-2.081539277493773,-2.0618085049780506,-2.0416037179850672,-2.0209247208591474,-2.0104077692258553,-1.9781515191968548,-1.9781515191968548,-1.9448505091286803,-1.9105305537367938,-1.8752286492304169,-1.8143484573658863,-1.7767008315341597,-1.7253660039795005,-1.659694489326288,-1.6330629182061402,-1.5253730473733196,-1.5253730473733196,-1.4444689482180895,-1.3873670237158002,-1.34674204085937,-1.3306875079893699,-1.2838073402779937,-1.1946941587968407,-1.139490377975246,-1.1204812610882362,-1.0683042908255302,-1.0212070858941669,-1.0080856670456981,-0.9417372282961587,-0.9069450530008005,-0.8657443047363991,-0.7987307066915941,-0.7399748839758713,-0.6265398921686547,-0.5578065735031075,-0.40141918906418717,-0.3133473908489952,-0.21390846497910765,-0.17540549030777175,-0.0562655723415002,-6.237762027758009,-6.095864973153845,-6.036444919383369,-5.940697815416966,-5.8502382219777305,-5.749925589098367,-5.703366551003596,-5.594260918964725,-5.5220184380891295,-5.486058971706577,-5.3997808027496195,-5.330521427340644,-5.304926700232623,-5.251236978544021,-5.243898645980574,-5.225565016306675,-5.207385201233697,-5.200673892602374,-5.200673892602374,-5.182891214428397,-5.182891214428397,-5.182891214428397,-5.182891214428397,-5.182891214428397,-5.182891214428397,-5.182891214428397,-5.182891214428397,-5.182891214428397,-5.182891214428397,-5.182891214428397,-5.182891214428397,-5.182891214428397,-5.182891214428397,-5.182891214428397,-5.182891214428397,-5.182891214428397,-5.182891214428397,-5.182891214428397,-5.182891214428397,-5.182891214428397,-5.182891214428397,-5.182891214428397,-5.182891214428397,-5.182891214428397,-5.182891214428397,-5.182891214428397,-5.182891214428397,-5.182891214428397,-5.182891214428397,-5.182891214428397,-5.182891214428397,-5.182891214428397,-5.182891214428397,-5.182891214428397,-5.182891214428397,-5.182891214428397,-5.182891214428397,-5.182891214428397,-5.182891214428397,-5.182891214428397,-5.182891214428397,-5.182891214428397,-5.182891214428397,-5.182891214428397,-5.182891214428397,-5.182891214428397,-5.182891214428397,-5.182891214428397,-5.182891214428397,1.0471975511965976]],"response_history":["1"],"rt":30295,"trial_type":"polygon-arrow-question","trial_index":0,"trial_index_global":3,"time_elapsed":70624,"internal_chunk_id":"0-0.3-0"},{"nsides":6,"feedback":"Sorry, that was incorr ect. 4 < img src=./images/hexagon_symbol.png style=width:14px;height:14px> 5 = 3 because 5 steps clockwise on the hexagon from 4 brings us to 3","orientation_history":[0],"rt":10312,"trial_type":"polygon-arrow-feedback","trial_index":0,"trial_index_global":4,"time_elapsed":80942,"internal_chunk_id":"0-0.3-0"},{"nsides":6,"question":"What is 3 <img src=./images/hexagon_symbol.png style=width:14px;height:14px> 2? <br /><br /> (Remember, to perform <img src=./images/hexagon_symbol.png style=width:14px;height:14px>, you can use the interactive diagram on the right, or perform the operation in your mind. Point the arrow at the first number on the hexagon, then move the arrow the second number of points clockwise around the hexagon. The number the arrow arrives at is your result.)","response_type":"free","response_choices":[],"correct_response":"5","response":"5","orientation_history":[[0],[0,0,0.00020699647810329402,0.00020699647810329402,0.00020699647810329402,0.00020699647810329402,0.00020699647810329402,0.14791409087598573,0.17570354533131893,0.34448592768317554,0.4726144892238724,0.8407679945386198,1.3028374880688571,1.656180236698662,1.7539071440573806,1.915282254478072,1.9689220258048872,2.0689010445182374,2.151921459686233,2.306210634925624,2.426453503117946,2.551883260467112,2.6539518691674813,2.719676405544769,2.805557356605754,2.882329247875532,2.9263536473142997,2.9679562700984796,3.0276392585112344,3.096068077572128,3.1273079110023962,3.1562853048539576,3.1689504901009853,3.1828064162481136,3.1820476910522775,3.194772935524301,3.194772935524301,3.1930027125548612,3.20609187199154,3.20609187199154,3.20609187199154,3.20609187199154,3.20609187199154,3.20609187199154,3.20609187199154,3.20609187199154,3.20609187199154,3.20609187199154,3.20609187199154,3.20609187199154,3.20609187199154,3.20609187199154,3.20609187199154,3.20609187199154,3.20609187199154,3.205072850605129,3.205072850605129,3.192151938555603,3.1792093094605693,3.1532760982139525,3.1402941939225686,3.1402941939225686,3.1402941939225686,3.1273079110023962,3.1273079110023962,3.1273079110023962,3.1273079110023962,3.1273079110023962,3.1273079110023962,3.1273079110023962,3.1273079110023962,3.1273079110023962,3.1273079110023962,3.1273079110023962,3.1273079110023962,3.1273079110023962,3.1273079110023962,3.1273079110023962,3.1273079110023962,3.1273079110023962,3.1273079110023962,3.1273079110023962,3.1273079110023962,3.1273079110023962,3.1273079110023962,3.1273079110023962,3.1273079110023962,3.1273079110023962,3.1273079110023962,3.1273079110023962,3.1273079110023962,3.1273079110023962,3.1273079110023962,3.1273079110023962,3.1273079110023962,3.1273079110023962,3.1273079110023962,3.1273079110023962,3.1273079110023962,3.1273079110023962,3.1273079110023962,3.1273079110023962,3.1273079110023962,3.1273079110023962,3.1273079110023962,3.1273079110023962,3.1273079110023962,3.1273079110023962,3.1273079110023962,3.1273079110023962,3.1273079110023962,3.1273079110023962,3.1273079110023962,3.1273079110023962,3.1273079110023962,3.1273079110023962,3.1273079110023962,3.1273079110023962,3.1273079110023962,3.1273079110023962,3.1273079110023962,3.1273079110023962,3.1273079110023962,3.1273079110023962,3.1273079110023962,3.1273079110023962,3.1273079110023962,3.1273079110023962,3.1273079110023962,3.1273079110023962,3.1273079110023962,3.1273079110023962,3.1273079110023962,3.1273079110023962,3.1273079110023962,3.1273079110023962,3.1273079110023962,3.1273079110023962,3.1273079110023962,3.1273079110023962,3.1273079110023962,3.1273079110023962,3.1273079110023962,3.1273079110023962,3.1273079110023962,3.1273079110023962,3.1273079110023962,3.1273079110023962,3.1273079110023962,3.1273079110023962,3.1273079110023962,3.1273079110023962,3.1273079110023962,3.1273079110023962,3.1273079110023962,3.1273079110023962,3.1273079110023962,3.1273079110023962,3.1273079110023962,3.1273079110023962,3.1273079110023962,3.1273079110023962,3.1273079110023962,3.1273079110023962,3.1273079110023962,3.1273079110023962,3.1273079110023962,3.1273079110023962,3.1273079110023962,3.1273079110023962,3.1273079110023962,3.1273079110023962,3.1273079110023962,3.1273079110023962,3.1273079110023962,3.1273079110023962,3.1273079110023962,3.1273079110023962,3.1273079110023962,3.1273079110023962,3.1273079110023962,3.1273079110023962,3.1273079110023962,3.1273079110023962,3.1273079110023962,3.1273079110023962,3.1273079110023962,3.1273079110023962,3.1273079110023962,3.1273079110023962,3.1273079110023962,3.1273079110023962,3.1273079110023962,3.1273079110023962,3.1273079110023962,3.1273079110023962,3.1273079110023962,3.1273079110023962,3.1273079110023962,3.1273079110023962,3.1273079110023962,3.1273079110023962,3.1273079110023962,3.1273079110023962,3.1273079110023962,3.1273079110023962,3.1273079110023962,3.1273079110023962,3.1273079110023962,3.1273079110023962,3.1273079110023962,3.1273079110023962,3.1273079110023962,3.1273079110023962,3.1273079110023962,3.1273079110023962,3.1273079110023962,3.1273079110023962,3.1273079110023962,3.1273079110023962,3.1273079110023962,3.1273079110023962,3.1273079110023962,3.1273079110023962,3.1273079110023962,3.1273079110023962,3.1273079110023962,3.1273079110023962,3.1273079110023962,3.1273079110023962,3.1273079110023962,3.1273079110023962,3.1273079110023962,3.1273079110023962,3.1273079110023962,3.1273079110023962,3.1273079110023962,3.1273079110023962,3.1273079110023962,3.1273079110023962,3.1273079110023962,3.1273079110023962,3.1273079110023962,3.1273079110023962,3.1273079110023962,3.1273079110023962,3.1273079110023962,3.1273079110023962,3.1273079110023962,3.1273079110023962,3.1273079110023962,3.1273079110023962,3.1273079110023962,3.1273079110023962,3.1273079110023962,3.1273079110023962,3.1273079110023962,3.1273079110023962,3.1273079110023962,3.1273079110023962,3.1273079110023962,3.1273079110023962,3.1273079110023962,3.1273079110023962,3.1273079110023962,3.1273079110023962,3.1273079110023962,3.1273079110023962,3.1273079110023962,3.1273079110023962,3.1273079110023962,3.1273079110023962,3.1273079110023962,3.1273079110023962,3.1273079110023962,3.1273079110023962,3.1273079110023962,3.1273079110023962,3.1273079110023962,3.1273079110023962,3.1273079110023962,3.1273079110023962,3.1273079110023962,3.1273079110023962,3.1273079110023962,3.1273079110023962,3.1273079110023962,3.1273079110023962,3.1273079110023962,3.1273079110023962,3.1273079110023962,3.1273079110023962,3.1273079110023962,3.1273079110023962,3.1273079110023962,3.1273079110023962,3.1273079110023962,3.1273079110023962,3.1273079110023962,3.1273079110023962,3.1273079110023962,3.1273079110023962,3.1273079110023962,3.1273079110023962,3.1273079110023962,3.1273079110023962,3.1273079110023962,3.1273079110023962,3.1273079110023962,3.1273079110023962,3.1273079110023962,3.1273079110023962,3.1273079110023962,3.1273079110023962,3.1273079110023962,3.1273079110023962,3.1273079110023962,3.1273079110023962,3.1273079110023962,3.1273079110023962,3.1273079110023962,3.1273079110023962,3.1273079110023962,3.1273079110023962,3.1273079110023962,3.1273079110023962,3.1273079110023962,3.1273079110023962,3.1273079110023962,3.1273079110023962,3.1273079110023962,3.1273079110023962,3.1273079110023962,3.1273079110023962,3.1273079110023962,3.1273079110023962,3.1273079110023962,3.1273079110023962,3.1273079110023962,3.1273079110023962,3.1273079110023962,3.1273079110023962,3.1273079110023962,3.1273079110023962,3.1402941939225686,3.192151938555603,3.2436630762092715,3.2945618484646575,3.3446013419254177,3.4056075700075077,3.429453134541834,3.476078914586304,3.5100514208479723,3.558880962225902,3.612342632854932,3.6758573134529247,3.7283816655001463,3.7823027665107114,3.8235124618081118,3.880970700871387,3.928329803020322,3.9588271904143557,3.9883192176366746,4.02501345909242,4.067024850325963,4.098928914810986,4.118388737353614,4.132136634749528,4.156015289995855,4.169331465462101,4.174184890112094,4.1872813558394695,4.1872813558394695,4.196500183608173,4.2048043056082145,4.2048043056082145,4.2048043056082145,4.2048043056082145,4.2048043056082145,4.2048043056082145,4.2048043056082145,4.217580593949566,4.217580593949566,4.260312934155746,4.260312934155746,4.286810490319762,4.332356936534949,4.369984342781987,4.428255081858824,4.468199809665388,4.508905215697324,4.539863913346414,4.5816127771026425,4.614091925989798,4.698104237797293,4.729344071227561,4.811023898549895,4.849986695177244,4.907127180603557,4.9549306877671,5.004930527203849,5.019854792193935,5.046087839969126,5.063305687585466,5.097064895530317,5.118128745449944,5.118128745449944,5.142146515940894,5.146249212873083,5.146249212873083,5.146249212873083,5.146249212873083,5.146249212873083,5.146249212873083,5.146249212873083,5.146249212873083,5.146249212873083,5.146249212873083,5.146249212873083,5.146249212873083,5.146249212873083,5.146249212873083,5.146249212873083,5.146249212873083,5.146249212873083,5.146249212873083,5.146249212873083,5.146249212873083,5.146249212873083,5.235987755982988]],"response_history":["5"],"rt":12324,"trial_type":"polygon-arrow-question","trial_index":0,"trial_index_global":5,"time_elapsed":93269,"internal_chunk_id":"0-0.3-0"},{"nsides":6,"feedback":"Correct! 3 <img src=./images/hexagon_symbol.png style=width:14px;height:14px> 2 = 5 because 2 steps clockwise on the hexagon from 3 brings us to 5","orientation_history":[0],"rt":1482,"trial_type":"polygon-arrow-feedback","trial_index":0,"trial_index_global":6,"time_elapsed":94754,"internal_chunk_id":"0-0.3-0"},{"nsides":6,"question":"What is 1 <img src=./images/hexagon_symbol.png style=width:14px;height:14px> 5? <br /><br /> (Remember, to perform <img src=./images/hexagon_symbol.png style=width:14px;height:14px>, you can use the interactive diagram on the right, or perform the operation in your mind. Point the arrow at the first number on the hexagon, then move the arrow the second number of points clockwise around the hexagon. The number the arrow arrives at is your result.)","response_type":"free","response_choices":[],"correct_response":"0","response":"0","orientation_history":[[0],[0,0,0,0,0,0,0,-6.251449933651128,-6.21971456012267,-6.156498227308372,-6.109552879046964,-6.044766715166879,-6.01033225519966,-5.959993139173261,-5.894537997299458,-5.865112718829813,-5.809075710674383,-5.794844461758634,-5.738197660784867,-5.689528371394313,-5.654789537773813,-5.641991395706207,-5.607948824857844,-5.583784345057773,-5.550953563703402,-5.507694349352268,-5.486882090289897,-5.46605177025368,-5.424409191155092,-5.404903607604378,-5.384599725947809,-5.335485675454052,-5.312627848674834,-5.272624443542832,-5.240774991039625,-5.208728055282592,-5.176548098292292,-5.157121026329938,-5.157121026329938,-5.157121026329938,-5.157121026329938,-5.157121026329938,-5.157121026329938,-5.157121026329938,-5.157121026329938,-5.157121026329938,-5.157121026329938,-5.157121026329938,-5.157121026329938,-5.157121026329938,-5.157121026329938,-5.157121026329938,-5.157121026329938,-5.157121026329938,-5.157121026329938,-5.157121026329938,-5.157121026329938,-5.157121026329938,-5.157121026329938,-5.157121026329938,-5.157121026329938,-5.157121026329938,-5.157121026329938,-5.157121026329938,-5.157121026329938,-5.157121026329938,-5.157121026329938,-5.157121026329938,-5.157121026329938,-5.157121026329938,-5.157121026329938,-5.157121026329938,-5.157121026329938,-5.157121026329938,-5.157121026329938,-5.157121026329938,-5.157121026329938,-5.157121026329938,-5.157121026329938,-5.157121026329938,-5.157121026329938,-5.157121026329938,-5.157121026329938,-5.157121026329938,-5.157121026329938,-5.157121026329938,-5.157121026329938,-5.157121026329938,-5.157121026329938,-5.157121026329938,-5.157121026329938,-5.157121026329938,-5.157121026329938,-5.157121026329938,-5.157121026329938,-5.157121026329938,-5.157121026329938,-5.157121026329938,-5.157121026329938,-5.157121026329938,-5.157121026329938,-5.091370569970904,-5.00723504154685,-4.910873194133075,-4.820362481145395,-4.787932462504634,-4.757425498126009,-4.726774722870743,-4.665503250981462,-4.620121587074125,-4.560029938276129,-4.5155049294416045,-4.457177005715598,-4.428557626188157,-4.414401557705306,-4.386419041745044,-4.34532922554122,-4.318566199162503,-4.292334888683765,-4.266654604244032,-4.254026113729355,-4.254026113729355,-4.254026113729355,-4.254026113729355,-4.254026113729355,-4.254026113729355,-4.241540950918161,-4.2049583880012396,-4.1813068851761015,-4.169704030359621,-4.169704030359621,-4.169704030359621,-4.1582501751397025,-4.140234106585647,-4.07334838168998,-3.98777406457843,-3.8735197366169904,-3.79667492981998,-3.6802405617112766,-3.5664627519538286,-3.4759137959087534,-3.3734211636443727,-3.289710779853813,-3.181164744846625,-3.0698785929380445,-3.0076505619540814,-2.950720554262641,-2.9407560540599578,-2.9289308193072134,-2.917156521398949,-2.917156521398949,-2.9078321236577427,-2.8874100146353934,-2.8874100146353934,-2.8874100146353934,-2.8874100146353934,-2.8874100146353934,-2.8874100146353934,-2.8874100146353934,-2.8874100146353934,-2.8874100146353934,-2.8874100146353934,-2.8874100146353934,-2.8874100146353934,-2.8874100146353934,-2.8874100146353934,-2.8874100146353934,-2.8874100146353934,-2.8874100146353934,-2.876114099192433,-2.842598181905424,-2.79535297564459,-2.752407612985369,-2.727250065703535,-2.706438246761523,-2.681371053015557,-2.6311354360655694,-2.601684662226005,-2.5809757293082103,-2.5618333636370574,-2.5218546765137675,-2.4575263786724433,-2.4575263786724433,-2.4334010736537524,-2.417935897822476,-2.3941136903924547,-2.37866951613855,-2.3552186427343558,-2.3473558778852706,-2.3168256771463933,-2.2941653567451112,-2.256892949227388,-2.2284588262944007,-2.1846367478796926,-2.155709014243585,-2.1497869176556472,-2.141348299401403,-2.1355619357862636,-2.1355619357862636,-2.1355619357862636,-2.1270635568140053,-2.104210393273198,-2.090043440940076,-2.072363135995812,-2.0451359165627796,-2.0075162175339356,-1.953966710957313,-1.874699503594047,-1.7867423125153117,-1.640979320747312,-1.5279502993688308,-1.4093584161105257,-1.3237032535687003,-1.264893502146779,-1.229732120191751,-1.1902899496825317,-1.1637901304104812,-1.1329628949488226,-1.1162070271334974,-1.1035183917260882,-1.0954106782387827,-1.0873649664065406,-1.0793815774046651,-1.071460795678882,-1.071460795678882,-1.071460795678882,-1.071460795678882,-1.071460795678882,-1.071460795678882,-1.071460795678882,-1.071460795678882,-1.071460795678882,-1.071460795678882,-1.071460795678882,-1.0480764060078078,-0.9862197316738994,-0.8879842318219593,-0.7607548695433097,-0.6430055686950942,-0.5086841267421258,-0.4029348416207865,-0.37882207451339234,-0.3069627106745889,-0.28660222483664555,-0.24949682838983733,-0.21582726317556133,-0.21582726317556133,-0.21582726317556133,-0.21582726317556133,-0.21582726317556133,-0.21582726317556133,-0.2029872389567391,-0.2029872389567391,-0.2029872389567391,-0.2029872389567391,-0.2029872389567391,-0.2029872389567391,-0.2029872389567391,-0.2029872389567391,-0.2029872389567391,-0.19268063550868764,-0.19268063550868764,-0.18232531003536323,-0.1719231524490903,-0.16147611031934783,-0.12988598165455478,-0.11927996939290164,-0.11927996939290164,-0.10863961223587548,-0.09796716362745439,-0.09796716362745439,-0.09796716362745439,-0.08726491985432183,-0.07653521733199842,-0.06578042975908804,-0.06578042975908804,-0.06578042975908804,-0.06578042975908804,-0.04339178238230357,-0.04339178238230357,-0.04339178238230357,-0.04339178238230357,-0.04339178238230357,-0.04339178238230357,-0.04339178238230357,-0.04339178238230357,-0.04339178238230357,-0.04339178238230357,-0.04339178238230357,-0.04339178238230357,-0.04339178238230357,-0.04339178238230357,-0.04339178238230357,-0.04339178238230357,-0.04339178238230357,-0.04339178238230357,-0.04339178238230357,-0.04339178238230357,-0.04339178238230357,-0.04339178238230357,-0.04339178238230357,-0.04339178238230357,-0.04339178238230357,-0.04339178238230357,-0.04339178238230357,-0.04339178238230357,6.283185307179586]],"response_history":["0"],"rt":10032,"trial_type":"polygon-arrow-question","trial_index":0,"trial_index_global":7,"time_elapsed":104787,"internal_chunk_id":"0-0.3-0"},{"nsides":6,"feedback":"Correct! 1 <img src=./images/hexagon_symbol.png style=width:14px;height:14px> 5 = 0 because 5 steps clockwise on the hexagon from 1 brings us to 0","orientation_history":[0],"rt":1128,"trial_type":"polygon-arrow-feedback","trial_index":0,"trial_index_global":8,"time_elapsed":105918,"internal_chunk_id":"0-0.3-0"},{"nsides":6,"question":"What is 1 <img src=./images/hexagon_symbol.png style=width:14px;height:14px> 1? <br /><br /> (Remember, to perform <img src=./images/hexagon_symbol.png style=width:14px;height:14px>, you can use the interactive diagram on the right, or perform the operation in your mind. Point the arrow at the first number on the hexagon, then move the arrow the second number of points clockwise around the hexagon. The number the arrow  arrives  at is your result.)","response_type":"free","response_choices":[],"correct_response":"2","response":"2","orientation_history":[[0],[0,0,0,0,0.014431125290487623,0.014431125290487623,0.015491120653504442,0.04775937685174858,0.14558684000945554,0.16076274062583473,0.31962399017543097,0.37777666778283336,0.45534606761815377,0.5257296138290539,0.5824502598227355,0.628911444510538,0.6623667948149552,0.6840410627578102,0.7167396843582399,0.7487653441734022,0.7800750197602828,0.8219468935443878,0.8427680841202931,0.8723044563882801,0.8840938351313564,0.9328873473391085,0.9603057712560752,0.9989704405482556,0.9989704405482556,1.0057916171544525,1.0431076201881073,1.061437029994235,1.061437029994235,1.061437029994235,1.061437029994235,1.061437029994235,1.061437029994235,1.0795362724647584,1.0795362724647584,1.0795362724647584,1.0795362724647584,1.0795362724647584,1.0795362724647584,1.0795362724647584,1.0795362724647584,1.0795362724647584,1.0795362724647584,1.0795362724647584,1.0795362724647584,1.0795362724647584,1.0795362724647584,1.0795362724647584,1.0795362724647584,1.1298130560097817,1.7431097088236331,1.7431097088236331,1.9432167346693483,2.0087846129828497,2.0654744718375033,2.100892725094357,2.123616085935998,2.134714409377379,2.134714409377379,2.1563912303400734,2.1563912303400734,2.1563912303400734,2.1563912303400734,2.1563912303400734,2.1563912303400734,2.1563912303400734,2.1563912303400734,2.1563912303400734,2.1563912303400734,2.1563912303400734,2.1563912303400734,2.1563912303400734,2.1563912303400734,2.1563912303400734,2.0943951023931953]],"response_history":["2"],"rt":5769,"trial_type":"polygon-arrow-question","trial_index":0,"trial_index_global":9,"time_elapsed":111690,"internal_chunk_id":"0-0.3-0"},{"nsides":6,"feedback":"Correct! 1 <img src=./images/hexagon_symbol.png style=width:14px;height:14px> 1 = 2 because 1 step clockwise on the hexagon from 1 brings us to 2","orientation_history":[0],"rt":1205,"trial_type":"polygon-arrow-feedback","trial_index":0,"trial_index_global":10,"time_elapsed":112897,"internal_chunk_id":"0-0.3-0"},{"nsides":6,"question":"What is 3 <img src=./images/hexagon_symbol.png style=width:14px;height:14px> 0? <br /><br /> (Remember, to perform <img src=./images/hexagon_symbol.png style=width:14px;height:14px>, you can use the interactive diagram on the right, or perform the operation in your mind. Point the arrow at the first number on the hexagon, then move the arrow the second number of points clockwise around the hexagon. The number the arrow arrives at is your result.)","response_type":"free","response_choices":[],"correct_response":"3","response":"3","orientation_history":[[0],[0,0,0,0,0,-0.0011243530229485543,0.05933843433911168,-6.130729883134162,-6.014455520784301,-5.876637049422819,-5.737802657985002,-5.629622247597974,-5.511954235435693,-5.412546079777155,-5.340157121679815,-5.281401298964092,-5.225902793718376,-5.180650688550519,-5.168930295014991,-5.150289650481546,-5.119838442128435,-5.077012846108879,-5.033750631508224,-5.015868501667081,-5.003101639958981,-5.003101639958981,-4.99020891484495,-4.98550704992671,-4.98550704992671,-4.98550704992671,-4.95965074456745,-4.946551057247673,-4.920023922313524,-4.90660321480598,-4.876144948349554,-4.821522516340089,-4.694980972577072,-4.623615447583411,-4.566592725385518,-4.440504630320928,-4.320441454916177,-4.2697694188456445,-4.233008403885725,-4.233008403885725,-4.233008403885725,-4.233008403885725,-4.233008403885725,-4.233008403885725,-4.221002119760914,-4.209122162724792,-4.185746327885033,-4.162889433905711,-4.151657557083303,-4.140557473823986,-4.097480689900224,-4.053298934050481,-4.019085423433124,-3.9319802713815664,-3.687353349358733,-3.60532556498739,-3.5251018149731332,-3.452261369739386,-3.3927454487191984,-3.320777959514554,-3.2691290197795038,-3.228478973796603,-3.1914588579226733,-3.1789941295475876,-3.154790518505412,-3.143044499641806,-3.143044499641806,-3.143044499641806,-3.1322290267102977,-3.120245272220847,-3.120245272220847,-3.120245272220847,-3.120245272220847,-3.120245272220847,-3.120245272220847,-3.120245272220847,-3.120245272220847,-3.120245272220847,-3.120245272220847,-3.120245272220847,-3.120245272220847,-3.120245272220847,-3.120245272220847,-3.120245272220847,-3.120245272220847,-3.120245272220847,-3.120245272220847,-3.120245272220847,3.141592653589793]],"response_history":["3"],"rt":5414,"trial_type":"polygon-arrow-question","trial_index":0,"trial_index_global":11,"time_elapsed":118314,"internal_chunk_id":"0-0.3-0"},{"nsides":6,"feedback":"Correct! 3 <img src=./images/hexagon_symbol.png style=width:14px;height:14px> 0 = 3 because 0 steps clockwise on the hexagon from 3 brings us to 3","orientation_history":[0],"rt":1124,"trial_type":"polygon-arrow-feedback","trial_index":0,"trial_index_global":12,"time_elapsed":119439,"internal_chunk_id":"0-0.3-0"},{"nsides":6,"question":"What is 4 <img src=./images/hexagon_symbol.png style=width:14px ;height: 14px> 4? <br /><br /> (Remember, to perform <img src=./images/hexagon_symbol.png style=width:14px;height:14px>, you can use the interactive diagram on the right, or perform the operation in your mind. Point the arrow at the first number on the hexagon, then move the arrow the second number of points clockwise around the hexagon. The number the arrow arrives at is your result.)","response_type":"free","response_choices":[],"correct_response":"2","response":"2","orientation_history":[[0],[0,0.0006770479669615526,0.0006770479669615526,0.03049901443149139,-6.207468267839234,-6.091277849364448,-6.017268266391338,-5.910361815957783,-5.690199791818012,-5.419042868482314,-5.052123207326587,-4.761917407305869,-4.491026075510585,-4.319904097423622,-4.154576240652375,-4.023464592169828,-3.9028409235897255,-3.832102968964073,-3.7396704829615004,-3.6659258276511943,-3.6233153177546256,-3.5598169831690223,-3.486087238099068,-3.4020482455730683,-3.3201930212061397,-3.2450593217777133,-3.1946155333808495,-3.0842651746099063,-2.9804101564474053,-2.9273374721570953,-2.8858435005031584,-2.8538362075152013,-2.8223273379410734,-2.781175473707359,-2.7510117243255476,-2.7117945443994245,-2.6831696574475217,-2.655245126009051,-2.6234722384536266,-2.592003412689063,-2.5386282594878673,-2.5081667706206487,-2.456582139714882,-2.4214284319446633,-2.3927786562969535,-2.358354314047751,-2.304059902139445,-2.2841108623961697,-2.231987249781624,-2.187220721279724,-2.1360990117625285,-2.110863093394043,-2.081128768485633,-2.068850642086363,-2.068850642086363,-2.068850642086363,-2.068850642086363,-2.068850642086363,-2.068850642086363,-2.068850642086363,-2.068850642086363,-2.068850642086363,-2.068850642086363,-2.068850642086363,-2.068850642086363,-2.068850642086363,-2.068850642086363,-2.068850642086363,-2.068850642086363,-2.068850642086363,-2.068850642086363,-2.068850642086363,-2.068850642086363,-2.068850642086363,-2.068850642086363,-2.068850642086363,-2.053447495799679,-2.021795800778202,-1.980652650861833,-1.9290069726865848,-1.8657549860152258,-1.789861429922552,-1.7207646018898926,-1.6382927081259222,-1.575331443095262,-1.515373380686654,-1.465444892252112,-1.4082643028064554,-1.3807586081533794,-1.342957640290809,-1.3169078289933314,-1.2985741993194342,-1.2671208275622812,-1.2583229137948706,-1.2583229137948706,-1.2583229137948706,-1.2495671487847968,-1.2495671487847968,-1.2495671487847968,-1.2495671487847968,-1.232186150815437,-1.2235628696109364,-1.1697371630725595,-1.1264123896402953,-1.0370390963169136,-0.934752648758435,-0.8566834685000693,-0.7749256805065237,-0.7258913081530114,-0.6544695902976674,-0.618277101952776,-0.5900297134024264,-0.562021318566071,-0.5228635692409664,-0.49148746331846915,-0.46364760900080615,-0.40909216335981835,-0.37696335702575023,-0.3407541144006192,-0.3275644423784838,-0.30857415741031957,-0.29897712262122056,-0.2893135578952375,-0.26979142032913384,-0.25001755772214285,-0.19955538370528725,-0.13729828134052013,-0.08427925773433564,-0.030517356844317334,-0.008871132486729216,0.023687572579784266,-6.2160263209162165,-6.182872165163856,-6.138093375266847,-6.078210306824749,-6.026668694535263,-5.969395816852103,-5.876032786238077,-5.7979194449422735,-5.67319263408991,-5.535505096249002,-5.4736372503846225,-5.420795407872783,-5.377236708449799,-5.355890089177974,-5.344093273500105,-5.298045088434442,-5.237348982613055,-5.056674272305979,-4.945265359968224,-4.857604606877208,-4.787074436530025,-4.7186437854455425,-4.650018171156708,-4.567297048471951,-4.469570141113232,-4.395173542288413,-4.365014539132863,-4.340384266272494,-4.311734838916431,-4.311734838916431,-4.297632043289488,-4.25624873784844,-4.216304374882479,-4.2033180919623065,-4.190498281489406,-4.190498281489406,-4.190498281489406,-4.190498281489406,-4.190498281489406,-4.190498281489406,-4.190498281489406,-4.190498281489406,-4.190498281489406,-4.190498281489406,2.0943951023931953]],"response_history":["2"],"rt":7064,"trial_type":"polygo n-arrow- question","trial_index":0,"trial_index_global":13,"time_elapsed":126504,"internal_chunk_id":"0-0.3-0"},{"nsides":6,"feedback":"Correct! 4 <img src=./images/hexagon_symbol.png style=width:14px;height:14px> 4 = 2 because 4 steps clockwise on the hexagon from 4 brings us to 2","orientation_history":[0],"rt":1445,"trial_type":"polygon-arrow-feedback","trial_index":0,"trial_index_global":14,"time_elapsed":127952,"internal_chunk_id":"0-0.3-0"},{"nsides":6,"question":"What is 1 <img src=./images/hexagon_symbol.png style=width:14px;height:14px> 3? <br /><br /> (Remember, to perform <img src=./images/hexagon_symbol.png style=width:14px;height:14px>, you can use the interactive diagram on the right, or perform the operation in your mind. Point the arrow at the first number on the hexagon, then move the arrow the second number of points clockwise around the hexagon. The number the arrow arrives at is your result.)","response_type":"free","response_choices":[],"correct_response":"4","response":"4","orientation_history":[[0],[0,0,0.014278915251363378,0.028546190081330636,0.042796039818867815,0.0868186291489017,0.18019537362770888,0.27430261930668065,0.3946230863635287,0.5779019369622456,0.7086946108140942,0.8226142317612771,0.8636320419296984,0.9130104754142155,0.9245373423888967,0.9245373423888967,0.9329508520484745,0.9527622508100635,0.964540747520899,0.9843179401995058,0.9843179401995058,0.9843179401995058,0.9843179401995058,0.9843179401995058,0.9843179401995058,0.9843179401995058,0.9963902000241067,0.9963902000241067,0.9963902000241067,0.9963902000241067,0.9963902000241067,0.9963902000241067,0.9963902000241067,0.9963902000241067,0.9963902000241067,0.9963902000241067,0.9963902000241067,0.9963902000241067,0.9963902000241067,0.9963902000241067,0.9963902000241067,0.9963902000241067,1.0039272339167857,1.0039272339167857,1.1062859879467848,1.2804145648120635,1.4899434204316762,1.6396528160959412,1.7857435174844953,1.9513027039072615,1.9654194131584253,2.073798964535121,2.1243556284709397,2.171851126012892,2.171851126012892,2.183254485418547,2.183254485418547,2.183254485418547,2.183254485418547,2.183254485418547,2.183254485418547,2.183254485418547,2.183254485418547,2.183254485418547,2.19447258347701,2.2530355727918403,2.3716039872118575,2.574723560711682,2.7797010512464944,3.0029529164556346,3.1040562881919334,3.1156805280460125,3.138671058266687,3.161385622589404,3.2032485472682914,3.2332922689919963,3.2332922689919963,3.2332922689919963,3.2332922689919963,3.2332922689919963,3.2332922689919963,3.2437993716970466,3.2437993716970466,3.2542807006164756,3.2959048506118256,3.326748457776631,3.387248051190924,3.419750898454433,3.4393500325649295,3.487256437029802,3.5597156865729342,3.669396858803834,3.749779615549472,3.8608046759416723,3.9252054234192064,3.9792742381756687,3.985746639702964,3.9913315316654776,3.9913315316654776,4.002286048413481,4.002286048413481,4.002286048413481,4.002286048413481,4.002286048413481,4.0076577807426,4.0076577807426,4.0076577807426,4.0129605499054195,4.02336329557374,4.028465292120655,4.1887902047863905]],"response_history":["4"],"rt":5236,"trial_type":"polygon-arrow-question","trial_index":0,"trial_index_global":15,"time_elapsed":133191,"internal_chunk_id":"0-0.3-0"},{"nsides":6,"feedback":"Correct! 1 <img src=./images/hexagon_symbol.png style=width:14px;height:14px> 3 = 4 because 3 steps clockwise on the hexagon from 1 brings us to 4","orientation_history":[0],"rt":1125,"trial_type":"polygon-arrow-feedback","trial_index":0,"trial_index_global":16,"time_elapsed":134318,"internal_chunk_id":"0-0.3-0"},{"nsides":6,"question":"What is 4 <img src=./images/hexagon_symbol.png style=width:14px;height:14px> 3? <br /><br /> (Remember, to perform <img src=./images/hexagon_symbol.png style=width:14px;height:14px>, you can use the interactive diagram on the right, or perform the operation in your mind. Point the arrow at the first number on the hexagon, then mo ve the a rrow the second number of points clockwise around the hexagon. The number the arrow arrives at is your result.)","response_type":"free","response_choices":[],"correct_response":"1","response":"1","orientation_history":[[0],[0,-6.241526674655198,-6.2122165288423545,-6.141427392688619,-6.083074470837477,-6.020809890591217,-5.9568057515141,-5.8585803481339465,-5.728877810978035,-5.5919108725512165,-5.327297270869155,-5.075410254778543,-4.83490358885467,-4.623172093625382,-4.398724914353743,-4.227607125473019,-4.081699760665703,-4.012771473547436,-3.9616084332966572,-3.8753848685894097,-3.827597527378069,-3.77120576645211,-3.6934061263150033,-3.567547240474562,-3.4409808386524974,-3.314683927577737,-3.1796060561169988,-3.0393278715139767,-2.91831926470533,-2.8022088024223475,-2.7048507315258847,-2.634509000756126,-2.569105342315263,-2.5086386030761973,-2.452963715435273,-2.375850953823056,-2.3293202113412046,-2.303863904240189,-2.2850443224139676,-2.266502656900238,-2.2596924104527316,-2.2596924104527316,-2.2596924104527316,-2.248245259633391,-2.248245259633391,-2.248245259633391,-2.248245259633391,-2.248245259633391,-2.248245259633391,-2.248245259633391,-2.248245259633391,-2.248245259633391,-2.248245259633391,-2.248245259633391,-2.248245259633391,-2.248245259633391,-2.248245259633391,-2.248245259633391,-2.248245259633391,-2.248245259633391,-2.248245259633391,-2.248245259633391,-2.248245259633391,-2.248245259633391,-2.248245259633391,-2.248245259633391,-2.248245259633391,-2.248245259633391,-2.248245259633391,-2.248245259633391,-2.248245259633391,-2.248245259633391,-2.248245259633391,-2.248245259633391,4.1887902047863905],[4.021052051615228,4.021052051615228,4.021052051615228,4.021052051615228,4.021052051615228,4.021052051615228,4.1887902047863905]],"response_history":["1"],"rt":4959,"trial_type":"polygon-arrow-question","trial_index":0,"trial_index_global":17,"time_elapsed":139279,"internal_chunk_id":"0-0.3-0"},{"nsides":6,"feedback":"Correct! 4 <img src=./image s/hexagon_symbol.png style=width:14px;height:14px> 3 = 1 because 3 steps clockwise on the hexagon from 4 brings us to 1","orientation_history":[0],"rt":940,"trial_type":"polygon-arrow-feedback","trial_index":0,"trial_index_global":18,"time_elapsed":140221,"internal_chunk_id":"0-0.3-0"},{"nsides":6,"question":"What is 0 <img src=./images/hexagon_symbol.png style=width:14px;height:14px> 5? <br /><br /> (Remember, to perform <img src=./images/hexagon_symbol.png style=width:14px;height:14px>, you can use the interactive diagram on the right, or perform the operation in your mind. Point the arrow at the first number on the hexagon, then move the arrow the second number of points clockwise around the hexagon. The number the arrow arrives at is your result.)","response_type":"free","response_choices":[],"correct_response":"5","response":"5","orientation_history":[[0]],"response_history":["5"],"rt":4800,"trial_type":"polygon-arrow-question","trial_index":0,"trial_index_global":19,"time_elapsed":145022,"internal_chunk_id":"0-0.3-0"},{"nsides":6,"feedback":"Correct! 0 <img src=./images/hexagon_symbol.png style=width:14px;height:14px> 5 = 5 because 5 steps clockwise on the hexagon from 0 brings us to 5","orientation_history":[0],"rt":894,"trial_type":"polygon-arrow-feedback","trial_index":0,"trial_index_global":20,"time_elapsed":145917,"internal_chunk_id":"0-0.3-0"},{"nsides":6,"question":"What is 2 <img src=./images/hexagon_symbol.png style=width:14px;height:14px> 5? <br /><br /> (Remember, to perform <img src=./images/hexagon_symbol.png style=width:14px;height:14px>, you can use the interactive diagram on the right, or perform the operation in your mind. Point the arrow at the first number on the hexagon, then move the arrow the second number of points clockwise around the hexagon. The number the arrow arrives at is your result.)","response_type":"free","response_choices":[],"correct_response":"1","response":"1","orientation_history":[[0],[0,-6.268261042189501,-6.268261042189501,-6.268261042189501,-6.268261042189501,-6.253110686314731,-6.190294408357959,-6.121776863795939,-5.9632686953750955,-5.738671443407425,-5.278221068962274,-4.797133367885766,-4.532316037979977,-4.416626990773401,-4.3327299011301905,-4.298942269728184,-4.255090492417859,-4.233817106393798,-4.227060452458012,-4.200496110515551,-4.187492655693191,-4.162045173457978,-4.12527107138661,-4.101680167771545,-4.078820364469857,-4.067661379974186,-4.056680991217096,-4.045877529471746,-4.035249214138432,-4.024794163587533,-4.01451040550428,-4.01451040550428,-4.01451040550428,-4.01451040550428,-4.01451040550428,-4.01451040550428,-4.01451040550428,-4.01451040550428,-4.01451040550428,-4.01451040550428,-4.01451040550428,-4.01451040550428,-4.01451040550428,-4.01451040550428,2.0943951023931953]],"response_history":["1"],"rt":5984,"trial_type":"polygon-arrow-question","trial_index":0,"trial_index_global":21,"time_elapsed":151902,"internal_chunk_id":"0-0.3-0"},{"nsides":6,"feedback":"Correct! 2 <img src=./images/hexagon_symbol.png style=width:14px;height:14px> 5 = 1 because 5 steps clockwise on the hexagon from 2 brings us to 1","orientation_history":[0],"rt":1021,"trial_type":"polygon-arrow-feedback","trial_index":0,"trial_index_global":22,"time_elapsed":152925,"internal_chunk_id":"0-0.3-0"},{"nsides":6,"instructions":"Now we're going to discuss a couple special properties of this new operation, <img src=./images/hexagon_symbol.png style=width:14px;height:14px> that we've learned. First, notice that the number 0 behaves in a special way under <img src=./images/hexagon_symbol.png style=width:14px;height:14px>. Whenever we combine 0 with anything else, we get that same thing back. We'll say that 0 is the <i>identity</i> under <img src=./images/hexagon_symbol.png style=width:14px;height:14px>, because when you combine it with something it gives you that identical thing back.","orientation_history":[0],"rt":9864,"trial_type":"polygon-arrow-instructions","trial_index":0,"trial_index_global":23,"time_elapsed":162804,"internal_chunk_id":"0-0"},{"nsides":6,"instructions":"Now that we know 0 is the identity under <img src=./images/hexagon_symbol.png style=width:14px;height:14px>, we're going to make a new definition. We'll say that the <i>inverse</i> of a number is the element that you combine with it to produce the identity under our operation. For example, 5 <img src=./images/hexagon_symbol.png style=width:14px;height:14px> 1 = 0, so we say 1 is the inverse of 5 under <img src=./images/hexagon_symbol.png style=width:14px;height:14px>, (remember 0 is the identity under <img src=./images/hexagon_symbol.png style=width:14px;height:14px>). Similarly, 3 is its own inverse under <img src=./images/hexagon_symbol.png style=width:14px;height:14px>, because 3 <img src=./images/hexagon_symbol.png style=width:14px;height:14px> 3 = 0.","orientation_history":[0],"rt":17388,"trial_type":"polygon-arrow-instructions","trial_index":0,"trial_index_global":24,"time_elapsed":180194,"internal_chunk_id":"0-0"},{"nsides":6,"question":"Now you try! What is the inverse of 4 under <img src=./images/hexagon_symbol.png style=width:14px;height:14px>? <br /><br /> (Remember, the inverse of an element is the thing which you combine with it to produce the identity.)","response_type":"free","response_choices":[],"correct_response":"2","response":"2","orientation_history":[[0],[0,0,0,0,0,0,0,0,0,0,0,0,0,0,0,0,0,0,0,0,0,0,0,0,0,0,0,0,0,0,0,0,0,0,0,0,0,0,0,0,0,0,0,0,0,0,0,0,0,0,0,0,0,0,0,0,0,0,0,0,0,0,0,0,0,0,0,0,0,0,0,0,0,0,0,0,0,0,0,0,0,0,0,0,0,0,0,0,0,0,0,0,0,0,0,0,0,0,0,0,0,0,0,0,0,0,0,0,0,0,0,0,0,0,0,0,0,0,0,0,0,0,0,0,0,0,0,0,0,0,0,0,0,0,0,0,0,0,0,0,0,0,0,0,0,0,0,0,0,0,0,0,0,0,0,0,0,0,0,0,0,0,0,0,0,0,0,0,0,0,0,0,0,0,0,0,0,0,0,0,0,0,0,0,0,0,0,0,0,0,0,0,0,0,0,0,0,0,0,0,0,0,0,0,0,0,0,0,0,0,0,0,0,0,0,0,0,0,0,0,0,0,0,0,0,0,0,0,0,0,0,0,0,0,0,0,0,0,0,0,0,0,0,0,0,0,0,0,0,0,0,0,0,0,0,0,0,0,0,0,0,0,0,0,0,0,0,0,0,0,0,0,0,0,0,0,0,0,0,0,0,0,0,0,0,0,0,0,0,0,0,0,0,0,0,0,0,0,0,0,0,0,0,0,0,0,0,0,0,0,0,0,0,0,0,0,0,0,0,0,0,0,0,0,0,0,0,0,0,0,0,0,0,0,0,0,0,0,0,0,0,0,0,0,0,0,0,0,0,0,0,0,0,0,0,0,0,0,0,0,0,0,0,0,0,0,0,0,0,0,0,0,0,0,0,0,0,0,0,0,0,0,0,0,0,0,0,0,0,0,0,0,0,0,0,0,0,0,0,-0.0002260908846842824,-0.0006994636303909729,-6.268261042189501,-6.268261042189501,-6.2504057970499485,-6.24939535616783,-6.228282355066211,-6.225733507569716,-6.222837762767924,-6.220677938912518,-6.215677980578559,-6.211180259783236,-6.205842232193543,-6.201692878413677,-6.19695357740421,-6.188431056477263,-6.173309335846744,-6.163384103459267,-6.19695357740421,-6.19695357740421,-6.19695357740421,-0.08474438750107627,-0.3438464052804866,-1.2341215074081688,-1.877622616201453,-1.982499554931687,-2.096291562075395,-2.1559222752065645,-2.2115676880463475,-2.1941918698138565,-2.2087186929055846,-2.224161480635395,-2.2306130040283634,-2.238188616679559,-2.2182983556379625,-2.2169152306554976,-2.2283505644496566,-2.2157204880937336,-2.2074592477276678,-2.1968286468276155,-2.1993731705980952,-2.1919475645085615,-2.201830168110922,-2.194507028958796,-2.194507028958796,-2.194507028958796,-2.194507028958796,-2.194507028958796,-2.194507028958796,-2.194507028958796,-2.194507028958796,-2.194507028958796,-2.194507028958796,-2.194507028958796,-2.194507028958796,-2.194507028958796,-2.194507028958796,-2.194507028958796,-2.194507028958796,-2.194507028958796,-2.194507028958796,-2.194507028958796,-2.194507028958796,-2.194507028958796,-2.194507028958796,-2.194507028958796,-2.194507028958796,-2.194507028958796,-2.194507028958796,-2.194507028958796,-2.194507028958796,-2.194507028958796,-2.194507028958796,-2.194507028958796,-2.194507028958796,-2.194507028958796,-2.194507028958796,-2.194507028958796,-2.194507028958796,-2.194507028958796,-2.194507028958796,-2.194507028958796,-2.194507028958796,-2.194507028958796,-2.194507028958796,-2.194507028958796,-2.194507028958796,-2.194507028958796,-2.194507028958796,-2.194507028958796,-2.194507028958796,-2.194507028958796,-2.194507028958796,-2.194507028958796,-2.194507028958796,-2.194507028958796,-2.194507028958796,-2.194507028958796,-2.194507028958796,-2.194507028958796,-2.194507028958796,-2.194507028958796,-2.194507028958796,-2.194507028958796,-2.194507028958796,-2.194507028958796,-2.194507028958796,-2.194507028958796,-2.194507028958796,-2.194507028958796,-2.194507028958796,-2.194507028958796,-2.194507028958796,-2.194507028958796,-2.194507028958796,-2.194507028958796,-2.194507028958796,-2.194507028958796,-2.194507028958796,-2.194507028958796,-2.194507028958796,-2.194507028958796,-2.194507028958796,-2.194507028958796,-2.194507028958796,-2.194507028958796,-2.194507028958796,-2.194507028958796,-2.194507028958796,-2.194507028958796,-2.194507028958796,-2.194507028958796,-2.194507028958796,-2.194507028958796,-2.194507028958796,-2.194507028958796,-2.194507028958796,-2.194507028958796,-2.194507028958796,-2.194507028958796,-2.194507028958796,-2.194507028958796,-2.194507028958796,-2.194507028958796,-2.194507028958796,-2.194507028958796,-2.194507028958796,-2.194507028958796,-2.194507028958796,-2.194507028958796,-2.194507028958796,-2.194507028958796,-2.194507028958796,-2.194507028958796,-2.194507028958796,-2.194507028958796,-2.194507028958796,-2.194507028958796,-2.194507028958796,-2.194507028958796,-2.194507028958796,-2.194507028958796,-2.194507028958796,-2.194507028958796,-2.194507028958796,-2.194507028958796,-2.194507028958796,-2.194507028958796,-2.194507028958796,-2.194507028958796,-2.194507028958796,-2.194507028958796,-2.194507028958796,-2.194507028958796,-2.194507028958796,-2.194507028958796,-2.194507028958796,-2.194507028958796,-2.194507028958796,-2.194507028958796,-2.194507028958796,-2.194507028958796,-2.194507028958796,-2.194507028958796,-2.194507028958796,-2.194507028958796,-2.194507028958796,-2.194507028958796,-2.194507028958796,-2.194507028958796,-2.194507028958796,-2.194507028958796,-2.194507028958796,-2.194507028958796,-2.194507028958796,-2.194507028958796,-2.194507028958796,-2.194507028958796,-2.194507028958796,-2.194507028958796,-2.194507028958796,-2.194507028958796,-2.194507028958796,-2.194507028958796,-2.194507028958796,-2.194507028958796,-2.194507028958796,-2.194507028958796,-2.194507028958796,-2.194507028958796,-2.194507028958796,-2.194507028958796,-2.194507028958796,-2.194507028958796,-2.194507028958796,-2.194507028958796,-2.194507028958796,-2.194507028958796,-2.194507028958796,-2.194507028958796,-2.194507028958796,-2.194507028958796,-2.194507028958796,-2.194507028958796,-2.194507028958796,-2.194507028958796,-2.194507028958796,-2.194507028958796,-2.194507028958796,-2.194507028958796,-2.194507028958796,-2.194507028958796,-2.194507028958796,-2.194507028958796,-2.194507028958796,-2.194507028958796,-2.194507028958796,-2.194507028958796,-2.194507028958796,-2.194507028958796,-2.194507028958796,-2.194507028958796,-2.194507028958796,-2.194507028958796,-2.194507028958796,-2.194507028958796,-2.194507028958796,-2.194507028958796,-2.194507028958796,-2.194507028958796,-2.194507028958796,-2.194507028958796,-2.194507028958796,-2.194507028958796,-2.194507028958796,-2.194507028958796,-2.194507028958796,-2.194507028958796,-2.194507028958796,-2.194507028958796,-2.194507028958796,-2.194507028958796,-2.194507028958796,-2.194507028958796,-2.194507028958796,-2.194507028958796,-2.194507028958796,-2.194507028958796,-2.194507028958796,-2.194507028958796,-2.194507028958796,-2.194507028958796,-2.194507028958796,-2.194507028958796,-2.194507028958796,-2.194507028958796,-2.194507028958796,-2.194507028958796,-2.194507028958796,-2.194507028958796,-2.194507028958796,-2.194507028958796,-2.194507028958796,-2.194507028958796,-2.194507028958796,-2.194507028958796,-2.194507028958796,-2.194507028958796,-2.194507028958796,-2.194507028958796,4.1887902047863905]],"response_history":["2"],"rt":17935,"trial_type":"polygon-arrow-question","trial_index":0,"trial_index_global":25,"time_elapsed":198135,"internal_chunk_id":"0-0.7-0"},{"nsides":6,"feedback":"Correct! The inverse of 4 under <img src=./images/hexagon_symbol.png style=width:14px;height:14px> is 2 because 4 <img src=./images/hexagon_symbol.png style=width:14px;height:14px> 2 = 0, and 0 is the identity under <img src=./images/hexagon_symbol.png style=width:14px;height:14px>.","orientation_history":[0],"rt":5277,"trial_type":"polygon-arrow-feedback","trial_index":0,"trial_index_global":26,"time_elapsed":203414,"internal_chunk_id":"0-0.7-0"},{"nsides":6,"question":"What is the inverse of 1 under <img src=./images/hexagon_symbol.png style=width:14px;height:14px>? <br /><br /> (Remember, the inverse of an element is the thing which you combine with it to produce the identity.)","response_type":"free","response_choices":[],"correct_response":"5","response":"1","orientation_history":[[0],[0,0,0,0,0,0,0,0,0,0,0,0,0,0,0,0,0,0,0,0,0,0,0,0,0,0,0,0,0,0,0,0,0,0,0,0.015129519502801614,0.015129519502801614,0.015129519502801614,0.015129519502801614,-6.237762027758009,-6.237762027758009,-6.237762027758009,-6.222611671883239,-6.222611671883239,-6.207468267839234,-6.176301071875243,-6.176301071875243,-6.176301071875243,-6.176301071875243,-6.176301071875243,-6.160990136488231,-6.160990136488231,-6.145715178894602,-6.1304831721096065,-6.1114539106947685,-6.095864973153845,-6.064901420970864,-6.012160783921985,-6.012160783921985,-5.9771596360106685,-5.941646881883044,-5.910935374828068,-5.89037606483969,-5.8542345118010175,-5.832870241472926,-5.817882070552457,-5.796169665450718,-5.759409596379352,-5.737094302883273,-5.722689210739228,-5.700175381099263,-5.663457197583307,-5.654389020764153,-5.617512541775188,-5.581060365638575,-5.534531386722261,-5.511119687076284,-5.46412802751032,-5.440599701210802,-5.404780761083577,-5.381056399575271,-5.36822562382939,-5.331011863789797,-5.331011863789797,-5.307053853724859,-5.296999610509028,-5.296999610509028,-5.283262638359184,-5.259663105698175,-5.259663105698175,-5.259663105698175,-5.259663105698175,-5.259663105698175,-5.259663105698175,-5.259663105698175,-5.259663105698175,-5.259663105698175,-5.259663105698175,-5.259663105698175,-5.259663105698175,-5.259663105698175,-5.259663105698175,-5.259663105698175,-5.259663105698175,-5.259663105698175,-5.259663105698175,-5.259663105698175,-5.259663105698175,-5.259663105698175,-5.259663105698175,-5.259663105698175,-5.259663105698175,-5.259663105698175,-5.259663105698175,-5.259663105698175,-5.259663105698175,-5.259663105698175,-5.259663105698175,-5.259663105698175,-5.259663105698175,-5.259663105698175,-5.245489915380818,-5.245489915380818,-5.245489915380818,-5.245489915380818,-5.245489915380818,-5.245489915380818,-5.245489915380818,-5.245489915380818,-5.245489915380818,-5.245489915380818,-5.245489915380818,-5.245489915380818,-5.245489915380818,-5.245489915380818,-5.245489915380818,-5.245489915380818,-5.245489915380818,-5.245489915380818,-5.245489915380818,-5.245489915380818,-5.245489915380818,-5.245489915380818,-5.245489915380818,-5.245489915380818,-5.245489915380818,-5.245489915380818,-5.245489915380818,-5.245489915380818,-5.245489915380818,-5.245489915380818,-5.245489915380818,-5.245489915380818,-5.245489915380818,-5.245489915380818,-5.245489915380818,-5.245489915380818,-5.245489915380818,-5.245489915380818,-5.245489915380818,-5.245489915380818,-5.245489915380818,-5.245489915380818,-5.245489915380818,-5.245489915380818,-5.245489915380818,-5.245489915380818,-5.245489915380818,-5.245489915380818,-5.245489915380818,-5.245489915380818,-5.245489915380818,-5.245489915380818,-5.245489915380818,-5.245489915380818,-5.245489915380818,-5.245489915380818,-5.245489915380818,-5.245489915380818,-5.245489915380818,-5.245489915380818,-5.245489915380818,-5.245489915380818,-5.245489915380818,-5.245489915380818,-5.245489915380818,-5.245489915380818,-5.245489915380818,-5.245489915380818,-5.245489915380818,-5.245489915380818,-5.245489915380818,-5.245489915380818,-5.245489915380818,-5.245489915380818,-5.245489915380818,-5.245489915380818,-5.245489915380818,-5.245489915380818,-5.245489915380818,-5.245489915380818,-5.245489915380818,-5.245489915380818,-5.245489915380818,-5.245489915380818,-5.245489915380818,-5.245489915380818,-5.245489915380818,-5.245489915380818,-5.245489915380818,-5.245489915380818,-5.245489915380818,-5.245489915380818,-5.245489915380818,-5.245489915380818,-5.245489915380818,-5.245489915380818,-5.245489915380818,-5.245489915380818,-5.245489915380818,-5.245489915380818,-5.245489915380818,-5.245489915380818,-5.245489915380818,-5.245489915380818,-5.245489915380818,-5.245489915380818,-5.245489915380818,1.0471975511965976]],"response_history":["1"],"rt":8638,"trial_type":"polygon-arrow-question","trial_index":0,"trial_index_global":27,"time_elapsed":212054,"internal_chunk_id":"0-0.7-0"},{"nsides":6,"feedback":"Sorry, that was incorrect. The inverse of 1 under <img src=./images/hexagon_symbol.png s tyle=w idth:14px;height:14px> is 5 because 1 <img src=./images/hexagon_symbol.png style=width:14px;height:14px> 5 = 0, and 0 is the identity under <img src=./images/hexagon_symbol.png style=width:14px;height:14px>.","orientation_history":[0],"rt":1881,"trial_type":"polygon-arrow-feedback","trial_index":0,"trial_index_global":28,"time_elapsed":213937,"internal_chunk_id":"0-0.7-0"},{"nsides":6,"question":"What is the inverse of 3 under <img src=./images/hexagon_symbol.png style=width:14px;height:14px>? <br /><br /> (Remember, the inverse of an element is the thing which you combine with it to produce the identity.)","response_type":"free","response_choices":[],"correct_response":"3","response":"2","orientation_history":[[0],[0,0,0,0,0,-6.253343422512477,-6.164029429519255,-6.031261520606996,-5.936774168900073,-5.7896958135116705,-5.633093936529655,-5.409189436399306,-5.13639109723909,-4.8547379102405195,-4.582878443226418,-4.455748247663694,-4.389360199159698,-4.321710312684489,-4.257342076737962,-4.196515166377484,-4.085886699840265,-4.039045986924296,-3.9722760882308936,-3.939676466939916,-3.8763186122839146,-3.826559342501258,-3.766582837520504,-3.699753372470251,-3.6359303977055966,-3.5813506885780813,-3.5578563178660874,-3.523422112354578,-3.5065418886224453,-3.5065418886224453,-3.494649485968627,-3.4539066540058636,-3.437549884195354,-3.397080189104819,-3.3813398468436096,-3.3536713376070884,-3.301739056841399,-3.274846061132924,-3.2483939314137706,-3.2361057634694452,-3.2361057634694452,-3.2224079900965794,-3.2224079900965794,-3.210196928135317,-3.1847913342258027,-3.1726509772006715,-3.160492620232615,-3.148319824836225,-3.148319824836225,-3.148319824836225,-3.148319824836225,-3.148319824836225,-3.148319824836225,-3.148319824836225,-3.148319824836225,-3.148319824836225,-3.148319824836225,-3.148319824836225,-3.148319824836225,-3.148319824836225,-3.136136178095402,-3.136136178095402,-3.136136178095402,-3.136136178095402,-3.136136178095402,-3.136136178095402,-3.136136178095402,-3.136136178095402,-3.136136178095402,-3.136136178095402,-3.136136178095402,-3.136136178095402,-3.136136178095402,-3.136136178095402,-3.136136178095402,-3.136136178095402,-3.136136178095402,-3.136136178095402,-3.136136178095402,-3.136136178095402,-3.136136178095402,-3.136136178095402,-3.136136178095402,-3.136136178095402,-3.136136178095402,-3.136136178095402,-3.136136178095402,-3.136136178095402,-3.136136178095402,-3.136136178095402,-3.136136178095402,-3.136136178095402,-3.136136178095402,-3.136136178095402,-3.136136178095402,-3.136136178095402,-3.136136178095402,-3.136136178095402,-3.136136178095402,-3.136136178095402,-3.136136178095402,-3.136136178095402,-3.136136178095402,-3.136136178095402,-3.136136178095402,-3.136136178095402,-3.136136178095402,-3.136136178095402,-3.136136178095402,-3.136136178095402,-3.136136178095402,-3.136136178095402,-3.136136178095402,-3.136136178095402,-3.136136178095402,-3.136136178095402,-3.136136178095402,-3.136136178095402,-3.136136178095402,-3.136136178095402,-3.136136178095402,-3.136136178095402,-3.136136178095402,-3.136136178095402,-3.136136178095402,-3.136136178095402,-3.136136178095402,-3.136136178095402,-3.136136178095402,-3.136136178095402,-3.136136178095402,-3.136136178095402,-3.136136178095402,-3.136136178095402,-3.136136178095402,-3.136136178095402,-3.136136178095402,-3.136136178095402,-3.136136178095402,-3.136136178095402,-3.136136178095402,-3.136136178095402,-3.136136178095402,-3.136136178095402,-3.136136178095402,-3.136136178095402,-3.136136178095402,-3.136136178095402,-3.136136178095402,-3.136136178095402,-3.136136178095402,-3.136136178095402,-3.136136178095402,-3.136136178095402,-3.136136178095402,-3.136136178095402,-3.136136178095402,-3.136136178095402,-3.136136178095402,-3.136136178095402,-3.136136178095402,-3.136136178095402,-3.136136178095402,-3.136136178095402,-3.136136178095402,-3.136136178095402,-3.136136178095402,-3.136136178095402,-3.136136178095402,-3.136136178095402,-3.136136178095402,-3.136136178095402,-3.136136178095402,-3.136136178095402,-3.136136178095402,-3.136136178095402,-3.136136178095402,-3.136136178095402,-3.136136178095402,-3.136136178095402,-3.136136178095402,-3.136136178095402,-3.136136178095402,-3.136136178095402,-3.136136178095402,3.141592653589793]],"response_history":["2"],"rt":10440,"trial_type":"polygon-arrow-question","trial_index":0,"trial_index_global":29,"time_elapsed":224379,"internal_chunk_id":"0-0.7-0"},{"nsides":6,"feedback":"Sorry, that was incorrect. The inverse of 3 under <img src=./images/hexagon_symbol.png style=width:14px;height:14px> is 3 because 3 <img src=./images/hexagon_symbol.png style=width:14px;height:14px> 3 = 0, and 0 is the identity under <img src=./images/hexagon_symbol.png style=width:14px;height:14px>.","orientation_history":[0],"rt":1613,"trial_type":"polygon-arrow-feedback","trial_index":0,"trial_index_global":30,"time_elapsed":225996,"internal_chunk_id":"0-0.7- 0"},{"nsides":6,"question":"What is the inverse of 2 under <img src=./images/hexagon_symbol.png style=width:14px;height:14px>? <br /><br /> (Remember, the inverse of an element is the thing which you combine with it to produce the identity.)","response_type":"free","response_choices":[],"correct_response":"4","response":"1","orientation_history":[[0],[0,0,0,0,0,0,0.015129519502801836,0.04531938331805474,0.16089069967823932,0.19530748391724884,0.31273018050192825,0.5131838347942683,0.7684369467728188,0.9313391012153489,1.1107402877794328,1.2596648422549186,1.3811509259722046,1.506617236972004,1.5738235627543686,1.6209735781415824,1.6668106839393617,1.6954993088000625,1.7258505168718161,1.749525509682386,1.8491534339529865,1.8491534339529865,1.8961384511768813,1.908633338201285,1.9282727387514405,1.9587268964553506,1.97026484597281,1.97026484597281,1.97026484597281,1.97026484597281,1.97026484597281,1.97026484597281,1.97026484597281,1.981682047291102,1.9929774564381881,1.9929774564381881,1.9929774564381881,1.9929774564381881,1.9929774564381881,1.9929774564381881,2.0041501758769273,2.0041501758769273,2.0041501758769273,2.0041501758769273,2.0041501758769273,2.0041501758769273,2.0041501758769273,2.0041501758769273,2.0041501758769273,2.0041501758769273,2.0041501758769273,2.0041501758769273,2.0041501758769273,2.0041501758769273,2.0041501758769273,2.0041501758769273,2.0041501758769273,2.0041501758769273,2.0041501758769273,2.0041501758769273,2.0041501758769273,2.0041501758769273,2.0041501758769273,2.0041501758769273,2.0041501758769273,2.0041501758769273,2.0041501758769273,2.0041501758769273,2.0041501758769273,2.0041501758769273,2.0041501758769273,2.0041501758769273,2.0041501758769273,2.0041501758769273,2.0041501758769273,2.0041501758769273,2.0041501758769273,2.0041501758769273,2.0041501758769273,2.0041501758769273,2.0041501758769273,2.0041501758769273,2.0041501758769273,2.0041501758769273,2.0041501758769273,2.0041501758769273,2.0041501758769273,2.0041501758769273,2.0041501758769273,2.0041501758769273,2.0041501758769273,2.0041501758769273,2.0041501758769273,2.0041501758769273,2.0041501758769273,2.0041501758769273,2.0041501758769273,2.0041501758769273,2.0041501758769273,2.02612466017359,2.02612466017359,2.0369253202810036,2.0369253202810036,2.0369253202810036,2.0369253202810036,2.0369253202810036,2.0369253202810036,2.0369253202810036,2.0369253202810036,2.0369253202810036,2.0369253202810036,2.0369253202810036,2.0369253202810036,2.0369253202810036,2.0369253202810036,2.0369253202810036,2.0369253202810036,2.0369253202810036,2.0369253202810036,2.0369253202810036,2.0369253202810036,2.0369253202810036,2.0369253202810036,2.0369253202810036,2.0369253202810036,2.0369253202810036,2.0369253202810036,2.0369253202810036,2.0369253202810036,2.0369253202810036,2.0369253202810036,2.0369253202810036,2.0369253202810036,2.0369253202810036,2.0369253202810036,2.0369253202810036,2.0369253202810036,2.0369253202810036,2.0369253202810036,2.0369253202810036,2.0369253202810036,2.0369253202810036,2.0369253202810036,2.0369253202810036,2.0369253202810036,2.0369253202810036,2.0369253202810036,2.0369253202810036,2.0369253202810036,2.0369253202810036,2.0369253202810036,2.0369253202810036,2.0943951023931953]],"response_history":["1"],"rt":7069,"trial_type":"polygon-arrow-question","trial_index":0,"trial_index_global":31,"time_elapsed":233066,"internal_chunk_id":"0-0.7-0"},{"nsides":6,"feedback":"Sorry, that was incorrect. The inverse of 2 under <img src=./images/hexagon_symbol.png style=width:14px;height:14px> is 4 because 2 <img src=./images/hexagon_symbol.png style=width:14px;height:14px> 4 = 0, and 0 is the identity under <img src=./images/hexagon_symbol.png style=width:14px;height:14px>.","orientation_history":[0],"rt":1172,"trial_type":"polygon-arrow-feedback","trial_index":0,"trial_index_global":32,"time_elapsed":234241,"internal_chunk_id":"0-0.7-0"},{"nsides":6,"question":"What is the inverse of 0 under <img src=./images/ hexagon_ symbol.png style=width:14px;height:14px>? <br /><br /> (Remember, the inverse of an element is the thing which you combine with it to produce the identity.)","response_type":"free","response_choices":[],"correct_response":"0","response":"0","orientation_history":[[0]],"response_history":["0"],"rt":3695,"trial_type":"polygon-arrow-question","trial_index":0,"trial_index_global":33,"time_elapsed":237937,"internal_chunk_id":"0-0.7-0"},{"nsides":6,"feedback":"Correct! The inverse of 0 under <img src=./images/hexagon_symbol.png style=width:14px;height:14px> is 0 because 0 <img src=./images/hexagon_symbol.png style=width:14px;height:14px> 0 = 0, and 0 is the identity under <img src=./images/hexagon_symbol.png style=width:14px;height:14px>.","orientation_history":[0],"rt":1278,"trial_type":"polygon-arrow-feedback","trial_index":0,"trial_index_global":34,"time_elapsed":239218,"internal_chunk_id":"0-0.7-0"},{"instructions":"It is also possible to successi vely app ly <img src=./images/hexagon_symbol.png style=width:14px;height:14px>, and the operation can simply be performed starting with the left-most pair. For example, 2 <img src=./images/hexagon_symbol.png style=width:14px;height:14px> 3 <img src=./images/hexagon_symbol.png style=width:14px;height:14px> 4 = 5 <img src=./images/hexagon_symbol.png style=width:14px;height:14px> 4 = 3.","rt":5792,"trial_type":"instructions","trial_index":0,"trial_index_global":35,"time_elapsed":245013,"internal_chunk_id":"0-0"},{"nsides":6,"instructions":"We have one last definition to learn today. Let's start with an example. Under our operation <img src=./images/hexagon_symbol.png style=width:14px;height:14px> we can make every other number using just 1: 2 = 1 <img src=./images/hexagon_symbol.png style=width:14px;height:14px> 1, 3 = 1 <img src=./images/hexagon_symbol.png style=width:14px;height:14px> 1 <img src=./images/hexagon_symbol.png st yle=wi dth:14px;height:14px> 1, 4 = 1 <img src=./images/hexagon_symbol.png style=width:14px;height:14px> 1 <img src=./images/hexagon_symbol.png style=width:14px;height:14px> 1 <img src=./images/hexagon_symbol.png style=width:14px;height:14px> 1, 5 = 1 <img src=./images/hexagon_symbol.png style=width:14px;height:14px> 1 <img src=./images/hexagon_symbol.png style=width:14px;height:14px> 1 <img src=./images/hexagon_symbol.png style=width:14px;height:14px> 1 <img src=./images/hexagon_symbol.png style=width:14px;height:14px> 1, and 0 = 1 <img src=./images/hexagon_symbol.png style=width:14px;height:14px> 1 <img src=./images/hexagon_symbol.png style=width:14px;height:14px> 1 <img src=./images/hexagon_symbol.png style=width:14px;height:14px> 1 <img src=./images/hexagon_symbol.png style=width:14px;height:14px> 1 <img src=./images/hexagon_symbol.png style=width:14px;height:14px> 1. Because 1 can  make ev ery other element under <img src=./images/hexagon_symbol.png style=width:14px;height:14px>, we say that 1 is a <i>generator</i> under <img src=./images/hexagon_symbol.png style=width:14px;height:14px>. <br /><br /> However, 2 is not a generator under <img src=./images/hexagon_symbol.png style=width:14px;height:14px>, because 4 = 2 <img src=./images/hexagon_symbol.png style=width:14px;height:14px> 2, and 0 = 2 <img src=./images/hexagon_symbol.png style=width:14px;height:14px> 2 <img src=./images/hexagon_symbol.png style=width:14px;height:14px> 2, but there is no way to make 1, 3, or 5 using just 2.","orientation_history":[0],"rt":6197,"trial_type":"polygon-arrow-instructions","trial_index":0,"trial_index_global":36,"time_elapsed":251213,"internal_chunk_id":"0-0"},{"nsides":6,"question":"Now you try! Is 3 a generator under <img src=./images/hexagon_symbol.png style=width:14px;height:14px>? <br /><br /> (Remember, a genera tor is a n element which can make every other element.)","response_type":"multi","response_choices":["Yes","No"],"correct_response":"No","response":"No","orientation_history":[[0]],"response_history":["No"],"rt":7128,"trial_type":"polygon-arrow-question","trial_index":0,"trial_index_global":37,"time_elapsed":258344,"internal_chunk_id":"0-0.10-0"},{"nsides":6,"feedback":"Correct! 3 is not a generator under <img src=./images/hexagon_symbol.png style=width:14px;height:14px>, because 3 = 3, 0 = 3 <img src=./images/hexagon_symbol.png style=width:14px;height:14px> 3, but there is no way to make 1, 2, 4, or 5 using just 3.","orientation_history":[0],"rt":1083,"trial_type":"polygon-arrow-feedback","trial_index":0,"trial_index_global":38,"time_elapsed":259430,"internal_chunk_id":"0-0.10-0"},{"nsides":6,"question":"Is 5 a generator under <img src=./images/hexagon_symbol.png style=width:14px;height:14px>? <br /><br /> (Remember, a generator is an element which can make e very oth er element.)","response_type":"multi","response_choices":["Yes","No"],"correct_response":"Yes","response":"Yes","orientation_history":[[0]],"response_history":["Yes"],"rt":2942,"trial_type":"polygon-arrow-question","trial_index":0,"trial_index_global":39,"time_elapsed":262374,"internal_chunk_id":"0-0.10-0"},{"nsides":6,"feedback":"Correct! 5 is a generator under <img src=./images/hexagon_symbol.png style=width:14px;height:14px>, because 5 = 5, 4 = 5 <img src=./images/hexagon_symbol.png style=width:14px;height:14px> 5, 3 = 5 <img src=./images/hexagon_symbol.png style=width:14px;height:14px> 5 <img src=./images/hexagon_symbol.png style=width:14px;height:14px> 5, 2 = 5 <img src=./images/hexagon_symbol.png style=width:14px;height:14px> 5 <img src=./images/hexagon_symbol.png style=width:14px;height:14px> 5 <img src=./images/hexagon_symbol.png style=width:14px;height:14px> 5, 1 = 5 <img src=./images/hexagon_symbol.png sty le=wid th:14px;height:14px> 5 <img src=./images/hexagon_symbol.png style=width:14px;height:14px> 5 <img src=./images/hexagon_symbol.png style=width:14px;height:14px> 5 <img src=./images/hexagon_symbol.png style=width:14px;height:14px> 5, and 0 = 5 <img src=./images/hexagon_symbol.png style=width:14px;height:14px> 5 <img src=./images/hexagon_symbol.png style=width:14px;height:14px> 5 <img src=./images/hexagon_symbol.png style=width:14px;height:14px> 5 <img src=./images/hexagon_symbol.png style=width:14px;height:14px> 5 <img src=./images/hexagon_symbol.png style=width:14px;height:14px> 5, so you can make all of the numbers under <img src=./images/hexagon_symbol.png style=width:14px;height:14px> using 5","orientation_history":[0],"rt":790,"trial_type":"polygon-arrow-feedback","trial_index":0,"trial_index_global":40,"time_elapsed":263167,"internal_chunk_id":"0-0.10-0"},{"nsides":6,"question":"Is 4 a generator und er <img  src=./images/hexagon_symbol.png style=width:14px;height:14px>? <br /><br /> (Remember, a generator is an element which can make every other element.)","response_type":"multi","response_choices":["Yes","No"],"correct_response":"No","response":"No","orientation_history":[[0]],"response_history":["No"],"rt":2405,"trial_type":"polygon-arrow-question","trial_index":0,"trial_index_global":41,"time_elapsed":265574,"internal_chunk_id":"0-0.10-0"},{"nsides":6,"feedback":"Correct! 4 is not a generator under <img src=./images/hexagon_symbol.png style=width:14px;height:14px>, because 4 = 4, 2 = 4 <img src=./images/hexagon_symbol.png style=width:14px;height:14px> 4, and 0 = 4 <img src=./images/hexagon_symbol.png style=width:14px;height:14px> 4 <img src=./images/hexagon_symbol.png style=width:14px;height:14px> 4, but there is no way to make 1, 3, or 5 using just 4.","orientation_history":[0],"rt":878,"trial_type":"polygon-arrow-feedback","trial_index":0,"trial_index_global":42,"time_elapsed":266453,"internal_chunk_id":"0-0.10-0"},{"nsides":6,"question":"Is 0 a generator under <img src=./images/hexagon_symbol.png style=width:14px;height:14px>? <br /><br /> (Remember, a generator is an element which can make every other element.)","response_type":"multi","response_choices":["Yes","No"],"correct_response":"No","response":"Yes","orientation_history":[[0]],"response_history":["Yes"],"rt":1950,"trial_type":"polygon-arrow-question","trial_index":0,"trial_index_global":43,"time_elapsed":268405,"internal_chunk_id":"0-0.10-0"},{"nsides":6,"feedback":"Sorry, that's incorrect. 0 is not a generator under <img src=./images/hexagon_symbol.png style=width:14px;height:14px>, because 0 = 0, but there is no way to make 1, 2, 3, 4, or 5 using just 0.","orientation_history":[0],"rt":925,"trial_type":"polygon-arrow-feedback","trial_index":0,"trial_index_global":44,"time_elapsed":269333,"internal_chunk_id":"0-0.10-0"},{"nsides":9,"instructions":"Now we are going to ask you some questions about a new operation, <img src=./images/nonagon_symbol.png style=width:14px;height:14px>, on the numbers 0, 1, 2, 3, 4, 5, 6, 7, 8. It works exactly like <img src=./images/hexagon_symbol.png style=width:14px;height:14px>, except now you use the nonagon shown at the right. <br /><br />Do you see how <img src=./images/nonagon_symbol.png style=width:14px;height:14px> works just like <img src=./images/hexagon_symbol.png style=width:14px;height:14px>? By labeling the points of the nonagon with the numbers from 0 to 8, we ensure that when we combine two numbers under <img src=./images/nonagon_symbol.png style=width:14px;height:14px>, we only produce numbers between 0 and 8. <br /><br />We'll give you one practice question with feedback to make sure you understand the new operation. After that, try to complete the remaining questions as accurately as possible.","orientation_history":[0],"rt":11797,"trial_type":"polygon-arrow-instructions","trial_index":0,"trial_index_global":45,"time_elapsed":281131,"internal_chunk_id":"0-0"},{"nsides":9,"question":"Practice: What is 5 <img src=./images/nonagon_symbol.png style=width:14px;height:14px> 5?","response_type":"free","response_choices":[],"correct_response":"1","response":"1","orientation_history":[[0],[0,0,0,0,0.014698465826153528,0.04405100033787113,0.09257403327055136,0.15815578440929356,0.2911740490270007,0.4997464906811764,0.7706933410195969,1.0816916216251378,1.4633351842289013,1.7701521879808666,1.9762882180263204,2.1538498960101276,2.2360003592894024,2.297074452567583,2.3414896678144936,2.383132246913082,2.443178519577571,2.5115482894065497,2.5770346485353572,2.657287911556544,2.727106732969145,2.8051372768153,2.8758851445689073,2.927059186138951,2.9935375770403896,3.031936124869185,3.103636208401479,3.1823863364576583,3.2265564837031038,3.2703400945156007,3.2990786457348813,3.309609391974039,3.3284155989472755,3.338715378693359,3.348969733117422,3.369334854177797,3.396736987150411,3.4261341468144186,3.4358185751356833,3.464510068600374,3.464510068600374,3.464510068600374,3.4833247834321384,3.4833247834321384,3.4833247834321384,3.4833247834321384,3.4833247834321384,3.4833247834321384,3.4833247834321384,3.4926351324742866,3.4926351324742866,3.4926351324742866,3.4926351324742866,3.4926351324742866,3.4926351324742866,3.4926351324742866,3.4926351324742866,3.4926351324742866,3.4926351324742866,3.4926351324742866,3.4926351324742866,3.4926351324742866,3.4926351324742866,3.490658503988659]],"response_history":["1"],"rt":6502,"trial_type":"polygon-arrow-question","trial_index":0,"trial_index_global":46,"time_elapsed":287635,"internal_chunk_id":"0-0.12-0"},{"nsides":9,"feedback":"Correct! 5 <img src=./images/nonagon_symbol.png style=width:14px;height:14px> 5 = 1 because 5 steps clockwise on the nonagon from 5 brings us to 1","orientation_history":[0],"rt":861,"trial_type":"polygon-arrow-feed back","trial_index":0,"trial_index_global":47,"time_elapsed":288499,"internal_chunk_id":"0-0.12-0"},{"nsides":9,"question":"What is 3 <img src=./images/nonagon_symbol.png style=width:14px;height:14px> 3?","response_type":"free","response_choices":[],"correct_response":"6","response":"6","orientation_history":[[0],[0,0,0,0.014066835125110089,0.02794365952560529,-6.240956905066584,-6.211979511215023,-6.150297017865839,-6.059637130665093,-5.954905463349266,-5.777309296065778,-5.52441523097018,-5.179752843080614,-4.847756745555175,-4.645775169098969,-4.534632864286187,-4.409558186524347,-4.304413277009343,-4.249963864662412,-4.189985548668161,-4.166534282147591,-4.115164850933101,-4.100847387171026,-4.082157974724121,-4.055497626349522,-4.0517325838991685,-4.023647430394452,-4.032611780132995,-4.009117409421,-4.009117409421,-3.997682075626842,-3.9754223020749846,-3.973636589687347,-3.973636589687347,-3.973636589687347,-3.973636589687347,-3.973636589687347,-3.973636589687347,-3.973636589687347,-3.973636589687347,-3.973636589687347,-3.973636589687347,-3.973636589687347,-3.973636589687347,-3.973636589687347,-3.973636589687347,-3.973636589687347,-3.982489322232958,-3.982489322232958,-3.9911552695731434,-3.9911552695731434,-3.9911552695731434,-3.9911552695731434,-4.007945077015515,-4.007945077015515,-4.007945077015515,-4.007945077015515,-4.016077853857327,-4.016077853857327,-4.016077853857327,-4.016077853857327,-4.016077853857327,-4.016077853857327,-4.016077853857327,-4.016077853857327,-4.016077853857327,-4.016077853857327,-4.016077853857327,-4.016077853857327,-4.016077853857327,2.0943951023931953]],"response_history":["6"],"rt":5573,"trial_type":"polygon-arrow-question","trial_index":0,"trial_index_global":48,"time_elapsed":294075,"internal_chunk_id":"0-0.12-0"},{"nsides":9,"question":"What is 7 <img src=./images/nonagon_symbol.png style=width:14px;height:14px> 4?","response_type":"free","response_choices":[],"correct_response":"2","response":"2","orientation_history":[[0],[0,0,0,0,0,0,0,0,0,0,0,0,0,0,0.00042007979045477484,6.2083685448100825,6.144545570045428,6.004083234686401,5.812828568242579,5.628812411830443,5.483502401194741,5.3509508688980665,5.248779788709544,5.187224043308821,5.113596333738183,5.035982426037571,4.981412202172747,4.957206255576703,4.92919490499319,4.9131191195448,4.899866582117579,4.884793568611542,4.87404386324982,4.872149477640032,4.872149477640032,4.872149477640032,4.872149477640032,4.872149477640032,4.872149477640032,4.872149477640032,4.872149477640032,4.872149477640032,4.872149477640032,4.872149477640032,4.872149477640032,4.872149477640032,4.886921905584122]],"response_history":["2"],"rt":5468,"trial_type":"polygon-arrow-question","trial_index":0,"trial_index_global":49,"time_elapsed":299545,"internal_chunk_id":"0-0.12-0"},{"nsides":9,"question":"What is 1 <img src=./images/nonagon_symbol.png style=width:14px;height:14px> 8?","response_type":"free","response_choices":[],"correct_response":"0","response":"0","orientation_history":[[0],[0,0,0,0.04746369744099366,0.11016168107570601,0.22081890224960166,0.38496688721094063,0.5283860106549352,0.6472699351700864,0.7443172675615005,0.7900104108880112,0.7986774056435175,0.816642452301935,0.816642452301935,0.816642452301935,0.816642452301935,0.816642452301935,0.816642452301935,0.816642452301935,0.816642452301935,0.816642452301935,0.816642452301935,0.816642452301935,0.816642452301935,0.816642452301935,0.816642452301935,0.816642452301935,0.816642452301935,0.6981317007977318]],"response_history":["0"],"rt":6230,"trial_type":"polygon-arrow-question","trial_index":0,"trial_index_global":50,"time_elapsed":305776,"internal_chunk_id":"0-0.12-0"},{"nsides":9,"question":"What is 5 <img src=./images/nonagon_symbol.png style=width:14px;height:14px> 4?","response_type":"free","response_choices":[],"correct_response":"0","response":"0","orientation_history":[[0],[0,0,0,0,-0.014666765317651098,-0.015541655733097848,0.028938701523301802,-6.190746863129611,-6.0592427499890364,-5.850777531609049,-5.580290213664038,-5.311801031779902,-4.937467415772319,-4.668299922986618,-4.313594270975678,-3.930484862866153,-3.5739710156654283,-3.348506282834756,-3.117500930164872,-3.024904142461227,-2.916183821790231,-2.8672840089148774,-2.8312515470407957,-2.7800448609370907,-2.71936128086912,-2.6768402470586863,-2.6601657044438376,-2.6441649003371586,-2.649160914515107,-2.6439059000839498,-2.6439059000839498,-2.6439059000839498,-2.6439059000839498,-2.6439059000839498,-2.6439059000839498,-2.6439059000839498,-2.6439059000839498,-2.6439059000839498,-2.6439059000839498,-2.6439059000839498,-2.6439059000839498,-2.6439059000839498,-2.6439059000839498,-2.6439059000839498,-2.6643034277600863,-2.695632948751265,-2.7062680170645472,-2.72781930739642,-2.7387329259211493,-2.749736608334706,-2.749736608334706,-2.749736608334706,-2.760828776804994,-2.760828776804994,-2.760828776804994,-2.760828776804994,-2.760828776804994,-2.760828776804994,-2.760828776804994,-2.760828776804994,-2.760828776804994,-2.760828776804994,-2.760828776804994,-2.760828776804994,-2.760828776804994,3.490658503988659]],"response_history":["0"],"rt":5333,"trial_type":"polygon-arrow-question","trial_index":0,"trial_index_global":51,"time_elapsed":311111,"internal_chunk_id":"0-0.12-0"},{"nsides":9,"question":"What is 6 <img src=./images/nonagon_symbol.png style=width:14px;height:14px> 6?","response_type":"free","response_choices":[],"correct_response":"3","response":"3","orientation_history":[[0],[0,0.014083575822860128,0.04222840211300194,0.05627853628876189,0.05627853628876189,0.0703064641186244,0.0703064641186244,0.08673833867598502,0.09204684886340675,0.1418970546041638,0.18822150530477066,0.32175055439664213,0.6747409422235526,1.4288992721907325,2.4668517113662407,3.141592653589793,3.4146013566765037,3.5168634764457503,3.6052402625905993,3.6850702483028366,3.7295952571373605,3.7878948755051702,3.7878948755051702,3.798981758314045,3.8098820724203772,3.8205979622883373,3.8819762012127144,3.9004483792358444,3.909448756929839,3.9269908169872414,3.9521955623141833,3.976131551403262,3.9838400643200793,3.9838400643200793,3.991417656412795,3.9988667865435765,4.006189887956693,4.013389366345688,4.0204675981458315,4.028997734897354,4.051345811534003,4.058018734414135,4.073226239167028,4.073226239167028,4.079640145382507,4.079640145382507,4.079640145382507,4.079640145382507,4.079640145382507,4.079640145382507,4.079640145382507,4.079640145382507,4.085943786815934,4.1887902047863905]],"response_history":["3"],"rt":5598,"trial_type":"polygon-arrow-question","trial_index":0,"trial_index_global":52,"time_elapsed":316710,"internal_chunk_id":"0-0.12-0"},{"nsides":9,"question":"What is 4 <img src=./images/nonagon_symbol.png style=width:14px;height:14px> 1? Please explain in words how you got your answer.","response_type":"free","response_choices":[],"correct_response":"","response":"5","orientation_history":[[0],[0,0,0,0,0,-0.0005698005081349322,0.012911211602562034,-6.21395096160124,-6.138012590479533,-6.056764578593437,-5.945997382714167,-5.874938694770913,-5.705201785849087,-5.456714365191684,-5.12276929334679,-4.725317702170203,-4.458377852214839,-4.438759259989327,-4.341691794373492,-4.250652852661201,-4.166454830135109,-4.107999940302268,-4.053560476228003,-3.971423332074992,-3.928146440509789,-3.8722202650239215,-3.833334976785846,-3.7810410996665533,-3.7695628731899125,-3.73702809078729,-3.7028072211343033,-3.683892881993195,-3.6381065216580852,-3.629766655831184,-3.629766655831184,-3.6137721478655997,-3.5923290509880372,-3.577865257373011,-3.564167484000145,-3.5573648678453362,-3.5247142829031057,-3.5054116612844224,-3.4626072826930674,-3.4492908785832457,-3.4492908785832457,-3.4492908785832457,-3.4492908785832457,-3.4492908785832457,-3.4492908785832457,-3.4492908785832457,-3.4492908785832457,-3.4492908785832457,-3.4492908785832457,-3.4492908785832457,-3.4492908785832457,-3.4492908785832457,-3.4492908785832457,-3.4492908785832457,-3.4492908785832457,-3.4492908785832457,-3.4492908785832457,-3.4492908785832457,-3.4492908785832457,-3.4492908785832457,-3.4492908785832457,-3.4492908785832457,-3.4492908785832457,-3.4492908785832457,-3.4492908785832457,-3.4492908785832457,-3.4492908785832457,-3.4492908785832457,-3.4492908785832457,-3.4492908785832457,-3.4492908785832457,-3.4492908785832457,-3.4492908785832457,-3.4492908785832457,-3.4492908785832457,-3.4492908785832457,-3.4492908785832457,-3.4492908785832457,-3.4492908785832457,-3.4626072826930674,-3.4626072826930674,-3.475790697855296,-3.475790697855296,-3.475790697855296,-3.475790697855296,-3.488838593171805,-3.488838593171805,-3.488838593171805,-3.488838593171805,-3.488838593171805,-3.488838593171805,-3.488838593171805,-3.488838593171805,-3.488838593171805,-3.488838593171805,-3.488838593171805,-3.488838593171805,-3.488838593171805,2.792526803190927]],"response_history":["5"],"rt":8061,"trial_type":"polygon-arrow-question","trial_index":0,"trial_index_global":53,"time_elapsed":324772,"internal_chunk_id":"0-0.12-0"},{"nsides":9,"question":"What is 8 <img src=./images/nonagon_symbol.png style=width:14px;height:14px> 4? Please explain in words how you got your answer.","response_type":"free","response_choices":[],"correct_response":"","response":"3. I put the arrow on 8 and counted 4 ahead. ","orientation_history":[[0],[0,0,0,0,0,0.02938423502022025,0.04405100033787113,0.10591884620225134,0.17647963721916304,0.2635948366272598,0.3484421875683248,0.3954225181636395,0.43059622150983445,0.4777809434940734,0.5295756625681285,0.6193178972855706,0.6800334538188517,0.7322507509984089,0.7706933410195969,0.8344366535522839,0.9320684514402883,1.015672004146461,1.1459641638755542,1.264634709939178,1.4895233406412214,1.6392327363054864,1.8223435535679704,2.063190008809382,2.746381454099577,3.126887831211942,3.549741757344883,3.7240644893046193,3.7974093891924907,3.843429505308346,3.881992234690615,3.9512273377064293,3.9964242351405614,4.044837526906065,4.063301337530749,4.089359149388265,4.105713321320238,4.113603102984031,4.159639950181214,4.2093502069504325,4.289195264934211,4.337326187482045,4.419384499001727,4.462671942286182,4.530252379536316,4.613377425480632,4.6976841580068385,4.739912560119841,4.783189451685043,4.85355235940516,4.925541206723938,4.987771090327866