[{"nsides":6,"instructions":"Let's define a new operation <img src=./images/hexagon_symbol.png style=width:14px;height:14px>. This operation will give us a way of combining two of the numbers 0, 1, 2, 3, 4, 5 to get another one of them back. Consider the hexagon at the right, where I've labeled each point with one of the numbers. To perform <img src=./images/hexagon_symbol.png style=width:14px;height:14px>, you can use the interactive diagram on the right, or perform the operation in your mind. Point the arrow at the first number on the hexagon by clicking, then click (or click and drag) to move the arrow the second number of points clockwise around the hexagon. The number the arrow arrives at is your result. (The operation is called <img src=./images/hexagon_symbol.png style=width:14px;height:14px> because it uses the hexagon, which has 6 sides.) <br /><br />For example, 3 <img src=./images/hexagon_symbol.png style=width:14px;height:14px> 5 =  2, becau se 5 steps clockwise from 3 on the hexagon brings us to 2. So 3 <img src=./images/hexagon_symbol.png style=width:14px;height:14px> 5 = 2.<br /><br />Similarly, 1 <img src=./images/hexagon_symbol.png style=width:14px;height:14px> 4 = 5, because 4 steps clockwise from 1 brings us to 5. <br /><br />Click Continue when you're ready to move on.","orientation_history":[0],"rt":1335,"trial_type":"polygon-arrow-instructions","trial_index":0,"trial_index_global":1,"time_elapsed":15688,"internal_chunk_id":"0-0"},{"nsides":6,"instructions":"Do you see how <img src=./images/hexagon_symbol.png style=width:14px;height:14px> works? By labeling the points of the hexagon with the numbers from 0 to 5, we ensure that when we combine two numbers under <img src=./images/hexagon_symbol.png style=width:14px;height:14px>, we only produce numbers between 0 and 5.<br /><br />Click Continue when you are ready to move on.","orientation_history":[0],"rt":1541,"trial_type":"polygon-arrow-instructions","trial_index":0,"trial_index_global":2,"time_elapsed":17232,"internal_chunk_id":"0-0"},{"nsides":6,"question":"Now try one on your own! What is 4 <img src=./images/hexagon_symbol.png style=width:14px;height:14px> 5? <br /><br /> (Remember, to perform <img src=./images/hexagon_symbol.png style=width:14px;height:14px>, you can use the interactive diagram on the right, or perform the operation in your mind. Point the arrow at the first number on the hexagon, then move the arrow the second number of points clockwise around the hexagon. The number the arrow arrives at is your result.)","response_type":"free","response_choices":[],"correct_response":"3","response":"3","orientation_history":[[0],[4.215420375505636,4.215420375505636,4.222431654130961,4.222431654130961,4.222431654130961,4.222431654130961,4.1887902047863905],[5.32640801739263,5.32640801739263,5.32640801739263,5.32640801739263,5.32640801739263,5.32640801739263,5.32640801739263,5.32640801739263,5.235987755982988],[6.015569002394824,6.015569002394824,6.015569002394824,6.015569002394824,6.015569002394824,6.283185307179586],[0.8818719385800352,0.8818719385800352,0.8818719385800352,0.8818719385800352,0.8818719385800352,1.0471975511965976],[1.8794471938717616,1.8794471938717616,1.8794471938717616,1.8794471938717616,1.8794471938717616,1.8794471938717616,2.0943951023931953],[3.116597859970873,3.116597859970873,3.116597859970873,3.116597859970873,3.116597859970873,3.116597859970873,3.141592653589793]],"response_history":["3"],"rt":7115,"trial_type":"polygon-arrow-question","trial_index":0,"trial_index_global":3,"time_elapsed":24353,"internal_chunk_id":"0-0.3-0"},{"nsides":6,"feedback":"Correct! 4 <img src=./images/hexagon_symbol.png style=width:14px;height:14px> 5 = 3 because 5 steps clockwise on the hexagon from 4 brings us to 3","orientation_history":[0],"rt":904,"trial_type":"polygon-arrow-feedback","trial_index":0,"trial_index_global":4,"time_elapsed":25263,"internal_chunk_id":"0-0.3-0"},{"nsides":6,"question":"What is 3 <img src=./images/hexagon_symbol.png style=width:14px;height:14px> 2? <br /><br /> (Remember, to perform <img src=./images/hexagon_symbol.png style=width:14px;height:14px>, you can use the interactive diagram on the right, or perform the operation in your mind. Point the arrow at the first number on the hexagon, then move the arrow the second number of points clockwise around the hexagon. The number the arrow arrives at is your result.)","response_type":"free","response_choices":[],"correct_response":"5","response":"5","orientation_history":[[0],[3.0348569809406576,3.0348569809406576,3.0348569809406576,3.0348569809406576,3.0348569809406576,3.0348569809406576,3.141592653589793],[5.277872868539514,5.277872868539514,5.277872868539514,5.277872868539514,5.277872868539514,5.235987755982988]],"response_history":["5"],"rt":3822,"trial_type":"polygon-arrow-question","trial_index":0,"trial_index_global":5,"time_elapsed":29088,"internal_chunk_id":"0-0.3-0"},{"nsides":6,"feedback":"Correct! 3 <img src=./images/hexagon_symbol.png style=width:14px;height:14px> 2 = 5 because 2 steps clockwise on the hexagon from 3 brings us to 5","orientation_history":[0],"rt":709,"trial_type":"polygon-arrow-feedback","trial_index":0,"trial_index_global":6,"time_elapsed":29800,"internal_chunk_id":"0-0.3-0"},{"nsides":6,"question":"What is 1 <img src=./images/hexagon_symbol.png style=width:14px;height:14px> 5? <br /><br /> (Remember, to perform <img src=./images/hexagon_symbol.png style=width:14px;height:14px>, you can use the interactive diagram on the right, or perform the operation in your mind. Point the arrow at the first number on the hexagon, then move the arrow the second number of points clockwise around the hexagon. The number the arrow arrives at is your result.)","response_type":"free","response_choices":[],"correct_response":"0","response":"0","orientation_history":[[0],[0.9983365129768454,0.9983365129768454,0.9983365129768454,0.9983365129768454,1.0471975511965976],[3.141592653589793,3.141592653589793,3.141592653589793,3.141592653589793,3.141592653589793,3.141592653589793,3.141592653589793],[5.233298761232906,5.233298761232906,5.233298761232906,5.233298761232906,5.233298761232906,5.235987755982988],[6.136701128786025,6.136701128786025,6.136701128786025,6.136701128786025,6.136701128786025,6.136701128786025,6.283185307179586]],"response_history":["0"],"rt":5419,"trial_type":"polygon-arrow-question","trial_index":0,"trial_index_global":7,"time_elapsed":35222,"internal_chunk_id":"0-0.3-0"},{"nsides":6,"feedback":"Correct! 1 <img src=./images/hexagon_symbol.png style=width:14px;height:14px> 5 = 0 because 5 steps clockwise on the hexagon from 1 brings us to 0","orientation_history":[0],"rt":845,"trial_type":"polygon-arrow-feedback","trial_index":0,"trial_index_global":8,"time_elapsed":36070,"internal_chunk_id":"0-0.3-0"},{"nsides":6,"question":"What  is 1 <img src=./images/hexagon_symbol.png style=width:14px;height:14px> 1? <br /><br /> (Remember, to perform <img src=./images/hexagon_symbol.png style=width:14px;height:14px>, you can use the interactive diagram on the right, or perform the operation in your mind. Point the arrow at the first number on the hexagon, then move the arrow the second number of points clockwise around the hexagon. The number the arrow arrives at is your result.)","response_type":"free","response_choices":[],"correct_response":"2","response":"2","orientation_history":[[0]],"response_history":["2"],"rt":2231,"trial_type":"polygon-arrow-question","trial_index":0,"trial_index_global":9,"time_elapsed":38303,"internal_chunk_id":"0-0.3-0"},{"nsides":6,"feedback":"Correct! 1 <img src=./images/hexagon_symbol.png style=width:14px;height:14px> 1 = 2 because 1 step clockwise on the hexagon from 1 brings us to 2","orientation_history":[0],"rt":710,"trial_type":"polygon-arrow-feedback","trial_index":0,"trial_index_global":10,"time_elapsed":39016,"internal_chunk_id":"0-0.3-0"},{"nsides":6,"question":"What is 3 <img src=./images/hexagon_symbol.png style=width:14px;height:14px> 0? <br /><br /> (Remember, to perform <img src=./images/hexagon_symbol.png style=width:14px;height:14px>, you can use the interactive diagram on the right, or perform the operation in your mind. Point the arrow at the first number on the hexagon, then move the arrow the second number of points clockwise around the hexagon. The number the arrow arrives at is your result.)","response_type":"free","response_choices":[],"correct_response":"3","response":"3","orientation_history":[[0]],"response_history":["3"],"rt":2558,"trial_type":"polygon-arrow-question","trial_index":0,"trial_index_global":11,"time_elapsed":41575,"internal_chunk_id":"0-0.3-0"},{"nsides":6,"feedback":"Correct! 3 <img src=./images/hexagon_symbol.png style=width:14px;height:14px> 0 = 3 because 0 steps cloc kwise on  the hexagon from 3 brings us to 3","orientation_history":[0],"rt":653,"trial_type":"polygon-arrow-feedback","trial_index":0,"trial_index_global":12,"time_elapsed":42231,"internal_chunk_id":"0-0.3-0"},{"nsides":6,"question":"What is 4 <img src=./images/hexagon_symbol.png style=width:14px;height:14px> 4? <br /><br /> (Remember, to perform <img src=./images/hexagon_symbol.png style=width:14px;height:14px>, you can use the interactive diagram on the right, or perform the operation in your mind. Point the arrow at the first number on the hexagon, then move the arrow the second number of points clockwise around the hexagon. The number the arrow arrives at is your result.)","response_type":"free","response_choices":[],"correct_response":"2","response":"2","orientation_history":[[0],[4.351822979906584,4.351822979906584,4.351822979906584,4.351822979906584,4.1887902047863905],[6.219778355212754,6.219778355212754,6.219778355212754,6.219778355212754,6.283185307179586],[2.1156602422464403,2.1156602422464403,2.1156602422464403,2.1156602422464403,2.1156602422464403,2.1156602422464403,2.0943951023931953]],"response_history":["2"],"rt":6861,"trial_type":"polygon-arrow-question","trial_index":0,"trial_index_global":13,"time_elapsed":49094,"internal_chunk_id":"0-0.3-0"},{"nsides":6,"feedback":"Correct! 4 <img src=./images/hexagon_symbol.png style=width:14px;height:14px> 4 = 2 because 4 steps clockwise on the hexagon from 4 brings us to 2","orientation_history":[0],"rt":678,"trial_type":"polygon-arrow-feedback","trial_index":0,"trial_index_global":14,"time_elapsed":49774,"internal_chunk_id":"0-0.3-0"},{"nsides":6,"question":"What is 1 <img src=./images/hexagon_symbol.png style=width:14px;height:14px> 3? <br /><br /> (Remember, to perform <img src=./images/hexagon_symbol.png style=width:14px;height:14px>, you can use the interactive diagram on the right, or perform the operation in your mind. Point the arrow at the first number on t he hexag on, then move the arrow the second number of points clockwise around the hexagon. The number the arrow arrives at is your result.)","response_type":"free","response_choices":[],"correct_response":"4","response":"4","orientation_history":[[0],[1.1737168815699142,1.1737168815699142,1.1737168815699142,1.1737168815699142,1.1737168815699142,1.1737168815699142,1.1737168815699142,1.0471975511965976]],"response_history":["4"],"rt":5247,"trial_type":"polygon-arrow-question","trial_index":0,"trial_index_global":15,"time_elapsed":55023,"internal_chunk_id":"0-0.3-0"},{"nsides":6,"feedback":"Correct! 1 <img src=./images/hexagon_symbol.png style=width:14px;height:14px> 3 = 4 because 3 steps clockwise on the hexagon from 1 brings us to 4","orientation_history":[0],"rt":1229,"trial_type":"polygon-arrow-feedback","trial_index":0,"trial_index_global":16,"time_elapsed":56255,"internal_chunk_id":"0-0.3-0"},{"nsides":6,"question":"What is 4 <img src=./images/hexagon_symbol.png style= width: 14px;height:14px> 3? <br /><br /> (Remember, to perform <img src=./images/hexagon_symbol.png style=width:14px;height:14px>, you can use the interactive diagram on the right, or perform the operation in your mind. Point the arrow at the first number on the hexagon, then move the arrow the second number of points clockwise around the hexagon. The number the arrow arrives at is your result.)","response_type":"free","response_choices":[],"correct_response":"1","response":"1","orientation_history":[[0],[4.110101634249725,4.110101634249725,4.110101634249725,4.110101634249725,4.110101634249725,4.110101634249725,4.1887902047863905],[6.0520946399836895,6.0520946399836895,6.0520946399836895,6.0520946399836895,6.0520946399836895,6.0520946399836895,6.283185307179586],[1.0447299077981331,1.0447299077981331,1.0447299077981331,1.0447299077981331,1.0447299077981331,1.0471975511965976]],"response_history":["1"],"rt":4846,"trial_type":"polygon-arrow-question","trial_index":0,"trial_index_global":17,"time_elapsed":61103,"internal_chunk_id":"0-0.3-0"},{"nsides":6,"feedback":"Correct! 4 <img src=./images/hexagon_symbol.png style=width:14px;height:14px> 3 = 1 because 3 steps clockwise on the hexagon from 4 brings us to 1","orientation_history":[0],"rt":702,"trial_type":"polygon-arrow-feedback","trial_index":0,"trial_index_global":18,"time_elapsed":61807,"internal_chunk_id":"0-0.3-0"},{"nsides":6,"question":"What is 0 <img src=./images/hexagon_symbol.png style=width:14px;height:14px> 5? <br /><br /> (Remember, to perform <img src=./images/hexagon_symbol.png style=width:14px;height:14px>, you can use the interactive diagram on the right, or perform the operation in your mind. Point the arrow at the first number on the hexagon, then move the arrow the second number of points clockwise around the hexagon. The number the arrow arrives at is your result.)","response_type":"free","response_choices":[],"correct_response":"5","response":"5","orientation_history":[[0]],"response_history":["5"],"rt":3351,"trial_type":"polygon-arrow-question","trial_index":0,"trial_index_global":19,"time_elapsed":65160,"internal_chunk_id":"0-0.3-0"},{"nsides":6,"feedback":"Correct! 0 <img src=./images/hexagon_symbol.png style=width:14px;height:14px> 5 = 5 because 5 steps clockwise on the hexagon from 0 brings us to 5","orientation_history":[0],"rt":741,"trial_type":"polygon-arrow-feedback","trial_index":0,"trial_index_global":20,"time_elapsed":65905,"internal_chunk_id":"0-0.3-0"},{"nsides":6,"question":"What is 2 <img src=./images/hexagon_symbol.png style=width:14px;height:14px> 5? <br /><br /> (Remember, to perform <img src=./images/hexagon_symbol.png style=width:14px;height:14px>, you can use the interactive diagram on the right, or perform the operation in your mind. Point the arrow at the first number on the hexagon, then move the arrow the second number of points clockwise around the hexagon. The number the arrow arri ves at i s your result.)","response_type":"free","response_choices":[],"correct_response":"1","response":"1","orientation_history":[[0],[2.267817704047496,2.267817704047496,2.267817704047496,2.267817704047496,2.267817704047496,2.267817704047496,2.0943951023931953],[4.2599140908226225,4.2599140908226225,4.2599140908226225,4.2599140908226225,4.2599140908226225,4.2599140908226225,4.2599140908226225,4.1887902047863905],[0.14392544938821628,0.14392544938821628,0.14392544938821628,0.14392544938821628,0.14392544938821628,0.14392544938821628,0.14392544938821628,0],[0.9730379352018145,0.9730379352018145,0.9730379352018145,0.9730379352018145,0.9730379352018145,1.0471975511965976]],"response_history":["1"],"rt":5467,"trial_type":"polygon-arrow-question","trial_index":0,"trial_index_global":21,"time_elapsed":71374,"internal_chunk_id":"0-0.3-0"},{"nsides":6,"feedback":"Correct! 2 <img src=./images/hexagon_symbol.png style=width:14px;height:14px> 5 = 1 because 5 steps clockwise on the hexa gon from  2 brings us to 1","orientation_history":[0],"rt":621,"trial_type":"polygon-arrow-feedback","trial_index":0,"trial_index_global":22,"time_elapsed":71998,"internal_chunk_id":"0-0.3-0"},{"nsides":6,"instructions":"Now we're going to discuss a couple special properties of this new operation, <img src=./images/hexagon_symbol.png style=width:14px;height:14px> that we've learned. First, notice that the number 0 behaves in a special way under <img src=./images/hexagon_symbol.png style=width:14px;height:14px>. Whenever we combine 0 with anything else, we get that same thing back. We'll say that 0 is the <i>identity</i> under <img src=./images/hexagon_symbol.png style=width:14px;height:14px>, because when you combine it with something it gives you that identical thing back.","orientation_history":[0],"rt":942,"trial_type":"polygon-arrow-instructions","trial_index":0,"trial_index_global":23,"time_elapsed":72949,"internal_chunk_id":"0-0"},{"nsides":6,"instructions":"Now  that we know 0 is the identity under <img src=./images/hexagon_symbol.png style=width:14px;height:14px>, we're going to make a new definition. We'll say that the <i>inverse</i> of a number is the element that you combine with it to produce the identity under our operation. For example, 5 <img src=./images/hexagon_symbol.png style=width:14px;height:14px> 1 = 0, so we say 1 is the inverse of 5 under <img src=./images/hexagon_symbol.png style=width:14px;height:14px>, (remember 0 is the identity under <img src=./images/hexagon_symbol.png style=width:14px;height:14px>). Similarly, 3 is its own inverse under <img src=./images/hexagon_symbol.png style=width:14px;height:14px>, because 3 <img src=./images/hexagon_symbol.png style=width:14px;height:14px> 3 = 0.","orientation_history":[0],"rt":664,"trial_type":"polygon-arrow-instructions","trial_index":0,"trial_index_global":24,"time_elapsed":73615,"internal_chunk_id":"0-0"},{"nsides":6,"question":"Now you try! What is the inverse of 4 under <img src=./images/hexagon_symbol.png style=width:14px;height:14px>? <br /><br /> (Remember, the inverse of an element is the thing which you combine with it to produce the identity.)","response_type":"free","response_choices":[],"correct_response":"2","response":"2","orientation_history":[[0],[4.2235366260569425,4.2235366260569425,4.2235366260569425,4.2235366260569425,4.2235366260569425,4.2235366260569425,4.1887902047863905]],"response_history":["2"],"rt":4222,"trial_type":"polygon-arrow-question","trial_index":0,"trial_index_global":25,"time_elapsed":77839,"internal_chunk_id":"0-0.7-0"},{"nsides":6,"feedback":"Correct! The inverse of 4 under <img src=./images/hexagon_symbol.png style=width:14px;height:14px> is 2 because 4 <img src=./images/hexagon_symbol.png style=width:14px;height:14px> 2 = 0, and 0 is the identity under <img src=./images/hexagon_symbol.png style=width:14px;height:14px>.","orientation_history":[0],"rt":652,"trial_type":"polygon-arrow-feedback","trial_index":0,"trial_index_global":26,"time_elapsed":78495,"internal_chunk_id":"0-0.7-0"},{"nsides":6,"question":"What is the inverse of 1 under <img src=./images/hexagon_symbol.png style=width:14px;height:14px>? <br /><br /> (Remember, the inverse of an element is the thing which you combine with it to produce the identity.)","response_type":"free","response_choices":[],"correct_response":"5","response":"5","orientation_history":[[0]],"response_history":["5"],"rt":5182,"trial_type":"polygon-arrow-question","trial_index":0,"trial_index_global":27,"time_elapsed":83679,"internal_chunk_id":"0-0.7-0"},{"nsides":6,"feedback":"Correct! The inverse of 1 under <img src=./images/hexagon_symbol.png style=width:14px;height:14px> is 5 because 1 <img src=./images/hexagon_symbol.png style=width:14px;height:14px> 5 = 0, and 0 is the identity under <img src=./images/hexagon_symbol.png style=width:14p x;height :14px>.","orientation_history":[0],"rt":687,"trial_type":"polygon-arrow-feedback","trial_index":0,"trial_index_global":28,"time_elapsed":84368,"internal_chunk_id":"0-0.7-0"},{"nsides":6,"question":"What is the inverse of 3 under <img src=./images/hexagon_symbol.png style=width:14px;height:14px>? <br /><br /> (Remember, the inverse of an element is the thing which you combine with it to produce the identity.)","response_type":"free","response_choices":[],"correct_response":"3","response":"3","orientation_history":[[0]],"response_history":["3"],"rt":2536,"trial_type":"polygon-arrow-question","trial_index":0,"trial_index_global":29,"time_elapsed":86910,"internal_chunk_id":"0-0.7-0"},{"nsides":6,"feedback":"Correct! The inverse of 3 under <img src=./images/hexagon_symbol.png style=width:14px;height:14px> is 3 because 3 <img src=./images/hexagon_symbol.png style=width:14px;height:14px> 3 = 0, and 0 is the identity under <img src=./images/hexagon_symbol .png s tyle=width:14px;height:14px>.","orientation_history":[0],"rt":607,"trial_type":"polygon-arrow-feedback","trial_index":0,"trial_index_global":30,"time_elapsed":87519,"internal_chunk_id":"0-0.7-0"},{"nsides":6,"question":"What is the inverse of 2 under <img src=./images/hexagon_symbol.png style=width:14px;height:14px>? <br /><br /> (Remember, the inverse of an element is the thing which you combine with it to produce the identity.)","response_type":"free","response_choices":[],"correct_response":"4","response":"4","orientation_history":[[0]],"response_history":["4"],"rt":3467,"trial_type":"polygon-arrow-question","trial_index":0,"trial_index_global":31,"time_elapsed":90988,"internal_chunk_id":"0-0.7-0"},{"nsides":6,"feedback":"Correct! The inverse of 2 under <img src=./images/hexagon_symbol.png style=width:14px;height:14px> is 4 because 2 <img src=./images/hexagon_symbol.png style=width:14px;height:14px> 4 = 0, and 0 is the identity under <img src=./image s/hexagon_symbol.png style=width:14px;height:14px>.","orientation_history":[0],"rt":713,"trial_type":"polygon-arrow-feedback","trial_index":0,"trial_index_global":32,"time_elapsed":91703,"internal_chunk_id":"0-0.7-0"},{"nsides":6,"question":"What is the inverse of 0 under <img src=./images/hexagon_symbol.png style=width:14px;height:14px>? <br /><br /> (Remember, the inverse of an element is the thing which you combine with it to produce the identity.)","response_type":"free","response_choices":[],"correct_response":"0","response":"0","orientation_history":[[0]],"response_history":["0"],"rt":2173,"trial_type":"polygon-arrow-question","trial_index":0,"trial_index_global":33,"time_elapsed":93878,"internal_chunk_id":"0-0.7-0"},{"nsides":6,"feedback":"Correct! The inverse of 0 under <img src=./images/hexagon_symbol.png style=width:14px;height:14px> is 0 because 0 <img src=./images/hexagon_symbol.png style=width:14px;height:14px> 0 = 0, and 0 is the i dentity  under <img src=./images/hexagon_symbol.png style=width:14px;height:14px>.","orientation_history":[0],"rt":658,"trial_type":"polygon-arrow-feedback","trial_index":0,"trial_index_global":34,"time_elapsed":94539,"internal_chunk_id":"0-0.7-0"},{"instructions":"It is also possible to successively apply <img src=./images/hexagon_symbol.png style=width:14px;height:14px>, and the operation can simply be performed starting with the left-most pair. For example, 2 <img src=./images/hexagon_symbol.png style=width:14px;height:14px> 3 <img src=./images/hexagon_symbol.png style=width:14px;height:14px> 4 = 5 <img src=./images/hexagon_symbol.png style=width:14px;height:14px> 4 = 3.","rt":977,"trial_type":"instructions","trial_index":0,"trial_index_global":35,"time_elapsed":95518,"internal_chunk_id":"0-0"},{"nsides":6,"instructions":"We have one last definition to learn today. Let's start with an example. Under our operation <img src=./images/hexagon_ symbol.p ng style=width:14px;height:14px> we can make every other number using just 1: 2 = 1 <img src=./images/hexagon_symbol.png style=width:14px;height:14px> 1, 3 = 1 <img src=./images/hexagon_symbol.png style=width:14px;height:14px> 1 <img src=./images/hexagon_symbol.png style=width:14px;height:14px> 1, 4 = 1 <img src=./images/hexagon_symbol.png style=width:14px;height:14px> 1 <img src=./images/hexagon_symbol.png style=width:14px;height:14px> 1 <img src=./images/hexagon_symbol.png style=width:14px;height:14px> 1, 5 = 1 <img src=./images/hexagon_symbol.png style=width:14px;height:14px> 1 <img src=./images/hexagon_symbol.png style=width:14px;height:14px> 1 <img src=./images/hexagon_symbol.png style=width:14px;height:14px> 1 <img src=./images/hexagon_symbol.png style=width:14px;height:14px> 1, and 0 = 1 <img src=./images/hexagon_symbol.png style=width:14px;height:14px> 1 <img src=./images/ hexagon_ symbol.png style=width:14px;height:14px> 1 <img src=./images/hexagon_symbol.png style=width:14px;height:14px> 1 <img src=./images/hexagon_symbol.png style=width:14px;height:14px> 1 <img src=./images/hexagon_symbol.png style=width:14px;height:14px> 1. Because 1 can make every other element under <img src=./images/hexagon_symbol.png style=width:14px;height:14px>, we say that 1 is a <i>generator</i> under <img src=./images/hexagon_symbol.png style=width:14px;height:14px>. <br /><br /> However, 2 is not a generator under <img src=./images/hexagon_symbol.png style=width:14px;height:14px>, because 4 = 2 <img src=./images/hexagon_symbol.png style=width:14px;height:14px> 2, and 0 = 2 <img src=./images/hexagon_symbol.png style=width:14px;height:14px> 2 <img src=./images/hexagon_symbol.png style=width:14px;height:14px> 2, but there is no way to make 1, 3, or 5 using just 2.","orientation_history":[0],"rt":1214,"trial_type":"polygon-arrow-instructions","trial_index":0,"trial_index_global":36,"time_elapsed":96736,"internal_chunk_id":"0-0"},{"nsides":6,"question":"Now you try! Is 3 a generator under <img src=./images/hexagon_symbol.png style=width:14px;height:14px>? <br /><br /> (Remember, a generator is an element which can make every other element.)","response_type":"multi","response_choices":["Yes","No"],"correct_response":"No","response":"Yes","orientation_history":[[0]],"response_history":["Yes"],"rt":3027,"trial_type":"polygon-arrow-question","trial_index":0,"trial_index_global":37,"time_elapsed":99767,"internal_chunk_id":"0-0.10-0"},{"nsides":6,"feedback":"Sorry, that's incorrect. 3 is not a generator under <img src=./images/hexagon_symbol.png style=width:14px;height:14px>, because 3 = 3, 0 = 3 <img src=./images/hexagon_symbol.png style=width:14px;height:14px> 3, but there is no way to make 1, 2, 4, or 5 using just 3.","orientation_history":[0],"rt":933,"trial_type":"polygon-arrow-feedback","trial_index":0,"trial_index_global":38,"time_elapsed":100702,"internal_chunk_id":"0-0.10-0"},{"nsides":6,"question":"Is 5 a generator under <img src=./images/hexagon_symbol.png style=width:14px;height:14px>? <br /><br /> (Remember, a generator is an element which can make every other element.)","response_type":"multi","response_choices":["Yes","No"],"correct_response":"Yes","response":"No","orientation_history":[[0]],"response_history":["No"],"rt":2159,"trial_type":"polygon-arrow-question","trial_index":0,"trial_index_global":39,"time_elapsed":102863,"internal_chunk_id":"0-0.10-0"},{"nsides":6,"feedback":"Sorry, that's incorrect. 5 is a generator under <img src=./images/hexagon_symbol.png style=width:14px;height:14px>, because 5 = 5, 4 = 5 <img src=./images/hexagon_symbol.png style=width:14px;height:14px> 5, 3 = 5 <img src=./images/hexagon_symbol.png style=width:14px;height:14px> 5 <img src=./images/hexagon_symbol. png st yle=width:14px;height:14px> 5, 2 = 5 <img src=./images/hexagon_symbol.png style=width:14px;height:14px> 5 <img src=./images/hexagon_symbol.png style=width:14px;height:14px> 5 <img src=./images/hexagon_symbol.png style=width:14px;height:14px> 5, 1 = 5 <img src=./images/hexagon_symbol.png style=width:14px;height:14px> 5 <img src=./images/hexagon_symbol.png style=width:14px;height:14px> 5 <img src=./images/hexagon_symbol.png style=width:14px;height:14px> 5 <img src=./images/hexagon_symbol.png style=width:14px;height:14px> 5, and 0 = 5 <img src=./images/hexagon_symbol.png style=width:14px;height:14px> 5 <img src=./images/hexagon_symbol.png style=width:14px;height:14px> 5 <img src=./images/hexagon_symbol.png style=width:14px;height:14px> 5 <img src=./images/hexagon_symbol.png style=width:14px;height:14px> 5 <img src=./images/hexagon_symbol.png style=width:14px;height:14px> 5, so yo u can ma ke all of the numbers under <img src=./images/hexagon_symbol.png style=width:14px;height:14px> using 5","orientation_history":[0],"rt":813,"trial_type":"polygon-arrow-feedback","trial_index":0,"trial_index_global":40,"time_elapsed":103679,"internal_chunk_id":"0-0.10-0"},{"nsides":6,"question":"Is 4 a generator under <img src=./images/hexagon_symbol.png style=width:14px;height:14px>? <br /><br /> (Remember, a generator is an element which can make every other element.)","response_type":"multi","response_choices":["Yes","No"],"correct_response":"No","response":"No","orientation_history":[[0]],"response_history":["Yes","No"],"rt":4342,"trial_type":"polygon-arrow-question","trial_index":0,"trial_index_global":41,"time_elapsed":108023,"internal_chunk_id":"0-0.10-0"},{"nsides":6,"feedback":"Correct! 4 is not a generator under <img src=./images/hexagon_symbol.png style=width:14px;height:14px>, because 4 = 4, 2 = 4 <img src=./images/hexagon_symbol.png sty le=wid th:14px;height:14px> 4, and 0 = 4 <img src=./images/hexagon_symbol.png style=width:14px;height:14px> 4 <img src=./images/hexagon_symbol.png style=width:14px;height:14px> 4, but there is no way to make 1, 3, or 5 using just 4.","orientation_history":[0],"rt":890,"trial_type":"polygon-arrow-feedback","trial_index":0,"trial_index_global":42,"time_elapsed":108918,"internal_chunk_id":"0-0.10-0"},{"nsides":6,"question":"Is 0 a generator under <img src=./images/hexagon_symbol.png style=width:14px;height:14px>? <br /><br /> (Remember, a generator is an element which can make every other element.)","response_type":"multi","response_choices":["Yes","No"],"correct_response":"No","response":"Yes","orientation_history":[[0]],"response_history":["Yes"],"rt":1528,"trial_type":"polygon-arrow-question","trial_index":0,"trial_index_global":43,"time_elapsed":110447,"internal_chunk_id":"0-0.10-0"},{"nsides":6,"feedback":"Sorry, that's incorrect. 0 is not a generator un der <img  src=./images/hexagon_symbol.png style=width:14px;height:14px>, because 0 = 0, but there is no way to make 1, 2, 3, 4, or 5 using just 0.","orientation_history":[0],"rt":748,"trial_type":"polygon-arrow-feedback","trial_index":0,"trial_index_global":44,"time_elapsed":111199,"internal_chunk_id":"0-0.10-0"},{"nsides":9,"instructions":"Now we are going to ask you some questions about a new operation, <img src=./images/nonagon_symbol.png style=width:14px;height:14px>, on the numbers 0, 1, 2, 3, 4, 5, 6, 7, 8. It works exactly like <img src=./images/hexagon_symbol.png style=width:14px;height:14px>, except now you use the nonagon shown at the right. <br /><br />Do you see how <img src=./images/nonagon_symbol.png style=width:14px;height:14px> works just like <img src=./images/hexagon_symbol.png style=width:14px;height:14px>? By labeling the points of the nonagon with the numbers from 0 to 8, we ensure that when we combine two numbers under <im g src= ./images/nonagon_symbol.png style=width:14px;height:14px>, we only produce numbers between 0 and 8. <br /><br />We'll give you one practice question with feedback to make sure you understand the new operation. After that, try to complete the remaining questions as accurately as possible.","orientation_history":[0],"rt":1166,"trial_type":"polygon-arrow-instructions","trial_index":0,"trial_index_global":45,"time_elapsed":112367,"internal_chunk_id":"0-0"},{"nsides":9,"question":"Practice: What is 5 <img src=./images/nonagon_symbol.png style=width:14px;height:14px> 5?","response_type":"free","response_choices":[],"correct_response":"1","response":"1","orientation_history":[[0],[3.586011863490892,3.586011863490892,3.586011863490892,3.586011863490892,3.586011863490892,3.586011863490892,3.490658503988659],[4.87194070131795,4.87194070131795,4.87194070131795,4.87194070131795,4.87194070131795,4.87194070131795,4.87194070131795,4.87194070131795,4.886921905584122],[0.15741687272659055,0.15741687272659055,0.15741687272659055,0.15741687272659055,0.15741687272659055,0.15741687272659055,0.15741687272659055,0.15741687272659055,0],[0.5472843809874368,0.5472843809874368,0.5697564534829784,0.5697564534829784,0.5697564534829784,0.5697564534829784,0.5697564534829784,0.6981317007977318]],"response_history":["1"],"rt":6932,"trial_type":"polygon-arrow-question","trial_index":0,"trial_index_global":46,"time_elapsed":119301,"internal_chunk_id":"0-0.12-0"},{"nsides":9,"feedback":"Correct! 5 <img src=./images/nonagon_symbol.png style=width:14px;height:14px> 5 = 1 because 5 steps clockwise on the nonagon from 5 brings us to 1","orientation_history":[0],"rt":718,"trial_type":"polygon-arrow-feedback","trial_index":0,"trial_index_global":47,"time_elapsed":120021,"internal_chunk_id":"0-0.12-0"},{"nsides":9,"question":"What is 3 <img src=./images/nonagon_symbol.png style=width:14px;height:14px> 3?","response_type":"free","response_choices":[],"correct_response":"6","response":"6","orientation_history":[[0],[2.1362802149497213,2.1362802149497213,2.1362802149497213,2.1362802149497213,2.1362802149497213,2.0943951023931953],[3.6291877795128067,3.6291877795128067,3.6291877795128067,3.6291877795128067,3.490658503988659],[4.3361469697473165,4.3361469697473165,4.3361469697473165,4.3361469697473165,4.3361469697473165,4.3361469697473165,4.1887902047863905]],"response_history":["6"],"rt":4618,"trial_type":"polygon-arrow-question","trial_index":0,"trial_index_global":48,"time_elapsed":124640,"internal_chunk_id":"0-0.12-0"},{"nsides":9,"question":"What is 7 <img src=./images/nonagon_symbol.png style=width:14px;height:14px> 4?","response_type":"free","response_choices":[],"correct_response":"2","response":"2","orientation_history":[[0],[4.9434796475805864,4.9434796475805864,4.9434796475805864,4.9434796475805864,4.9434796475805864,4.886921905584122],[6.169393300035878,6.169393300035878,6.169393300035878,6.169393300035878,6.169393300035878,6.283185307179586],[1.4056476493802696,1.4056476493802696,1.4056476493802696,1.4056476493802696,1.4226363060630651,1.4226363060630651,1.4226363060630651,1.3962634015954636]],"response_history":["2"],"rt":4602,"trial_type":"polygon-arrow-question","trial_index":0,"trial_index_global":49,"time_elapsed":129246,"internal_chunk_id":"0-0.12-0"},{"nsides":9,"question":"What is 1 <img src=./images/nonagon_symbol.png style=width:14px;height:14px> 8?","response_type":"free","response_choices":[],"correct_response":"0","response":"0","orientation_history":[[0],[0.4133304045393278,0.4133304045393278,0.4133304045393278,0.4133304045393278,0.42794849632148213,0.4492601126118805,0.6981317007977318],[1.9480453864372556,1.9480453864372556,1.9480453864372556,1.9480453864372556,1.9480453864372556,2.0943951023931953],[3.5047396635359696,3.5047396635359696,3.5047396635359696,3.5047396635359696,3.5047396635359696,3.5047396635359696,3.5047396635359696,3.5047396635359696,3.490658503988659],[4.829497724951554,4.829497724951554,4.829497724951554,4.829497724951554,4.829497724951554,4.829497724951554,4.829497724951554,4.886921905584122],[6.124530044993184,6.124530044993184,6.124530044993184,6.124530044993184,6.124530044993184,6.283185307179586]],"response_history":["0"],"rt":5750,"trial_type":"polygon-arrow-question","trial_index":0,"trial_index_global":50,"time_elapsed":134997,"internal_chunk_id":"0-0.12-0"},{"nsides":9,"question":"What is 5 <img src=./images/nonagon_symbol.png style=width:14px;height:14px> 4?","response_type":"free","response_choices":[],"correct_response":"0","response":"0","orientation_history":[[0],[3.917090150399253,3.917090150399253,3.917090150399253,3.917090150399253,3.917090150399253,4.1887902047863905],[3.660738767836316,3.660738767836316,3.660738767836316,3.660738767836316,3.660738767836316,3.660738767836316,3.490658503988659],[4.927746680082428,4.927746680082428,4.927746680082428,4.927746680082428,4.927746680082428,4.927746680082428,4.886921905584122],[0.02596818721155625,0.02596818721155625,0.02596818721155625,0.02596818721155625,0.02596818721155625,0]],"response_history":["0"],"rt":4782,"trial_type":"polygon-arrow-question","trial_index":0,"trial_index_global":51,"time_elapsed":139781,"internal_chunk_id":"0-0.12-0"},{"nsides":9,"question":"What is 6 <img src=./images/nonagon_symbol.png style=width:14px;height:14px> 6?","response_type":"free","response_choices":[],"correct_response":"3","response":"3","orientation_history":[[0],[4.200832853214385,4.200832853214385,4.200832853214385,4.200832853214385,4.200832853214385,4.1887902047863905],[5.654389020764153,5.654389020764153,5.654389020764153,5.654389020764153,5.654389020764153,5.654389020764153,5.654389020764153,5.585053606381854],[0.6146629519221655,0.6146629519221655,0.6146629519221655,0.6146629519221655,0.6146629519221655,0.6146629519221655,0.6146629519221655,0.6146629519221655,0.6981317007977318],[1.965587446494658,1.965587446494658,1.965587446494658,1.965587446494658,1.965587446494658,1.965587446494658,2.0943951023931953]],"response_history":["3"],"rt":5146,"trial_type":"polygon-arrow-question","trial_index":0,"trial_index_global":52,"time_elapsed":144928,"internal_chunk_id":"0-0.12-0"},{"nsides":9,"question":"What is 4 <img src=./images/nonagon_symbol.png style=width:14px;height:14px> 1? Please explain in words how you got your answer.","response_type":"free","response_choices":[],"correct_response":"","response":"moving the arrow at 4, then moving the arrow 1 points is 5 ","orientation_history":[[0],[2.77324373218083,2.77324373218083,2.77324373218083,2.77324373218083,2.792526803190927]],"response_history":["when you combine 3 and 6 produces the identity. ","moving the arrow ar ","moving the arrow ar","moving the arrow at 4 ","moving the arrow at 4, then moving the arrow 1 points give","moving the arrow at 4, then moving the arrow 1 points giv","moving the arrow at 4, then moving the arrow 1 points gi","moving the arrow at 4, then  moving  the arrow 1 points g","moving the arrow at 4, then moving the arrow 1 points is5 ","moving the arrow at 4, then moving the arrow 1 points is 5 "],"rt":62891,"trial_type":"polygon-arrow-question","trial_index":0,"trial_index_global":53,"time_elapsed":207821,"internal_chunk_id":"0-0.12-0"},{"nsides":9,"question":"What is 8 <img src=./images/nonagon_symbol.png style=width:14px;height:14px> 4? Please explain in words how you got your answer.","response_type":"free","response_choices":[],"correct_response":"","response":"moving the arrow at 8 and then moving the arrow with 4 points is  3 ","orientation_history":[[0],[5.566983422400721,5.566983422400721,5.566983422400721,5.566983422400721,5.566983422400721,5.566983422400721,5.566983422400721,5.585053606381854],[0.5247957716501073,0.5247957716501073,0.5247957716501073,0.5247957716501073,0.5247957716501073,0.5247957716501073,0.5247957716501073,0.6981317007977318],[5.62437927106211,5.62437927106211,5.62437927106211,5.62437927106211,5.62437927106211,5.62437927106211,5.62437927106211,5.62437927106211,5.585053606381854],[0.5331557055076299,0.5331557055076299,0.5331557055076299,0.5331557055076299,0.5331557055076299,0.5331557055076299,0.5331557055076299,0.6981317007977318],[1.8094056493030974,1.8094056493030974,1.8094056493030974,1.8094056493030974,1.8094056493030974,1.8094056493030974,1.8094056493030974,2.0943951023931953]],"response_history":["mi","mob","moving tehe ","moving tehe","moving teh","moving te","moving the arrow at 8 and them","moving the arrow at 8 and then moving the arrow at 4 is ","moving the arrow at 8 and then moving the arrow w ","moving the arrow at 8 and then moving the arrow wi ","moving the arrow at 8 and then moving the arrow wit ","moving the arrow at 8 and then moving the arrow with  ","moving the arrow at 8 and then moving the arrow with 4  ","moving the arrow at 8 and then moving the arrow with 4 p ","moving the arrow at 8 and then moving the arrow with 4 po ","moving the arrow  at 8 and  then moving the arrow with 4 poi ","moving the arrow at 8 and then moving the arrow with 4 poin ","moving the arrow at 8 and then moving the arrow with 4 point ","moving the arrow at 8 and then moving the arrow with 4 points ","moving the arrow at 8 and then moving the arrow with 4 pointsi ","moving the arrow at 8 and then moving the arrow with 4 pointsis ","moving the arrow at 8 and then moving the arrow with 4 pointsi ","moving the arrow at 8 and then moving the arrow with 4 points  ","moving the arrow at 8 and then moving the arrow with 4 points i ","moving the arrow at 8 and then moving the arrow with 4 points is  3 "],"rt":45822,"trial_type":"polygon-arrow-question","trial_index":0,"trial_index_global":54,"time_elapsed":253646,"internal_chunk_id":"0-0.12-0"},{"nsides":9,"question":"What is the identity under <img src=./images/nonagon_symbol.png style=width:14px;height:14px>? Please explain in words how you got your answer.","response_type":"free","response_choices":[],"correct_response":"0","response":"0 because when you combine 0 with any number it gives you that number back ","orientation_history":[[0]],"response_history":["0 because when you combine 0 with any nuber ","0 because when you combine 0 with any nuber","0 because when you combine 0 with any nube","0 because when you combine 0 with any nub","0 because when you combine 0 with any number it givea","0 because when you combine 0 with any number it gives you that number back "],"rt":77994,"trial_type":"polygon-arrow-question","trial_index":0,"trial_index_global":55,"time_elapsed":331644,"internal_chunk_id":"0-0.12-0"},{"nsides":9,"question":"What is the inverse of 5 under <img src=./images/nonagon_symbol.png style=width:14px;height:14px>?","response_type":"free","response_choices":[],"correct_response":"4","response":"4","orientation_history":[[0],[3.7578895909858643,3.7578895909858643,3.7578895909858643,3.7578895909858643,3.7578895909858643,3.7578895909858643,3.7578895909858643,3.490658503988659],[4.862760408391824,4.862760408391824,4.862760408391824,4.862760408391824,4.862760408391824,4.862760408391824,4.862760408391824,4.886921905584122],[5.88973466925065,5.88973466925065,5.88973466925065,5.88973466925065,5.88973466925065,5.88973466925065,5.88973466925065,5.88973466925065,5.88973466925065,5.585053606381854],[5.88973466925065,5.88973466925065,5.88973466925065,5.88973466925065,5.88973466925065,5.88973466925065,5.88973466925065,5.585053606381854],[6.245467354712722,6.245467354712722,6.245467354712722,6.245467354712722,6.245467354712722,6.245467354712722,6.245467354712722,6.245467354712722,6.283185307179586]],"response_history":["4"],"rt":9729,"trial_type":"polygon-arrow-question","trial_index":0,"trial_index_global":56,"time_elapsed":341376,"internal_chunk_id":"0-0.12-0"},{"nsides":9,"question":"What is the inverse of 2 under <img src=./images/nonagon_symbol.png style=width:14px;height:14px>?","response_type":"free","response_choices":[],"correct_response":"7","response":"7","orientation_history":[[0]],"response_history":["7"],"rt":8238,"trial_type":"polygon-arrow-question","trial_index":0,"trial_index_global":57,"time_elapsed":349615,"internal_chunk_id":"0-0.12-0"},{"nsides":9,"question":"What is the inverse of 0 under <img src=./images/nonagon_symbol.png style=width:14px;height:14px>?","response_type":"free","response_choices":[],"correct_response":"0","response":"0","orientation_history":[[0]],"response_history":["0"],"rt":2626,"trial_type":"polygon-arrow-question","trial_index":0,"trial_index_global":58,"time_elapsed":352242,"internal_chunk_id":"0-0.12-0"},{"nsides":9,"question":"What is the inverse of 3 under <img src=./images/nonagon_symbol.png style=width:14px;height:14px>? Please explain in words how you got your answer.","response_type":"free","response_choices":[],"correct_response":"","response":"when you combine 3 and 6 produces the identity. ","orientation_history":[[0],[2.3462938236043565,2.3462938236043565,2.3462938236043565,2.3462938236043565,2.3462938236043565,2.3462938236043565,2.3462938236043565,2.3462938236043565,2.0943951023931953]],"response_history":["when you combine 3 and 6 produces the identity. "],"rt":8323,"trial_type":"polygon-arrow-question","trial_index":0,"trial_index_global":59,"time_elapsed":360567,"internal_chunk_id":"0-0.12-0"},{"nsides":9,"question":"Is 2 a generator under <img src=./images/nonagon_symbol.png style=width:14px;height:14px>? Please explain in words how you got your answer.","response_type":"free","response_choices":[],"correct_response":"","response":"no because using 2 I can't get 1,3,5 ","orientation_history":[[0]],"response_history":["no becuase ","no becuase","no becuas","no becua","no becu","no because using 2 I g","no because using 2 I can't get 1,3,5 "],"rt":30372,"trial_type":"polygon-arrow-question","trial_index":0,"trial_index_global":60,"time_elapsed":390941,"internal_chunk_id":"0-0.12-0"},{"nsides":9,"question":"Is 3 a  generator under <img src=./images/nonagon_symbol.png style=width:14px;height:14px>? Please explain in words how you got your answer.","response_type":"free","response_choices":[],"correct_response":"","response":"no, using 3 I can't get 1,2,4,5,7,8","orientation_history":[[0],[2.0486273817870115,2.0486273817870115,2.0486273817870115,2.0486273817870115,2.0486273817870115,2.0486273817870115,2.0486273817870115,2.0486273817870115,2.0943951023931953],[4.203659156069136,4.203659156069136,4.203659156069136,4.203659156069136,4.203659156069136,4.203659156069136,4.203659156069136,4.1887902047863905],[6.22889089527128,6.22889089527128,6.22889089527128,6.22889089527128,6.22889089527128,6.22889089527128,6.22889089527128,6.22889089527128,6.283185307179586],[2.049148758173554,2.049148758173554,2.049148758173554,2.049148758173554,2.049148758173554,2.049148758173554,2.049148758173554,2.0943951023931953],[4.025571330626045,4.025571330626045,4.025571330626045,4.025571330626045,4.025571330626045,4.025571330626045,4.025571330626045,4.1887902047863905],[6.141288252575422,6.141288252575422,6.141288252575422,6.141288252575422,6.141288252575422,6.141288252575422,6.141288252575422,6.283185307179586],[2.2950463275430435,2.2950463275430435,2.2950463275430435,2.2950463275430435,2.2950463275430435,2.2950463275430435,2.2950463275430435,2.0943951023931953]],"response_history":["no, using 3 I can't get 1,2,4,5,7,8"],"rt":39011,"trial_type":"polygon-arrow-question","trial_index":0,"trial_index_global":61,"time_elapsed":429954,"internal_chunk_id":"0-0.12-0"},{"nsides":9,"question":"Is 5 a generator under <img src=./images/nonagon_symbol.png style=width:14px;height:14px>? Please explain in words how you got your answer.","response_type":"free","response_choices":[],"correct_response":"","response":"yes, I can get all the numbers ","orientation_history":[[0],[4.191660588977619,4.191660588977619,4.191660588977619,4.191660588977619,4.191660588977619,4.191660588977619,4.191660588977619,4.1887902047863905],[5.443295687541406,5.443295687541406,5.443295687541406,5.443295687541406,5.443295687541406,5.443295687541406,5.443295687541406,5.585053606381854],[0.5307734972029068,0.5307734972029068,0.5307734972029068,0.5307734972029068,0.5307734972029068,0.5307734972029068,0.5307734972029068,0.6981317007977318],[1.3426936985149538,1.3426936985149538,1.3426936985149538,1.3426936985149538,1.3426936985149538,1.3426936985149538,1.3426936985149538,1.3962634015954636]],"response_history":["yes, i","yes, I can get all the numers ","yes, I can get all the numbers "],"rt":22798,"trial_type":"polygon-arrow-question","trial_index":0,"trial_index_global":62,"time_elapsed":452758,"internal_chunk_id":"0-0.12-0"},{"nsides":9,"question":"Is 6 a generator under <img src=./images/nonagon_symbol.png style=width:14px;height:14px>? Please explain in words how you got your answer.","response_type":"free","response_choices":[],"correct_response":"","response":"no ","orientation_history":[[0]],"response_history":["no "],"rt":3929,"trial_type":"polygon-arrow-question","trial_index":0,"trial_index_global":63,"time_elapsed":456689,"internal_chunk_id":"0-0.12-0"},{"nsides":"n","instructions":"Now we'd like to ask you some questions about <img src=./images/ngon_symbol.png style=width:14px;height:14px>, where n could be any positive counting number. For example, n could be 3, and the polygon a triangle, or n could be any other counting number you can think of. If you need to write the operation, you can use (n), and your answers can include n to stand in for the arbitrary value if necessary. (You can use the polygon at the right to think, but it doesn't necessarily correspond to the real polygon, which is why we've left most of it dashed.)","orientation_history":[0],"rt":1457,"trial_type":"polygon-arrow-instructions","trial_index":0,"trial_index_global":64,"time_elapsed":458152,"internal_chunk_id":"0-0"},{"nsides":"n","question":"What is the formula f or the i nverse of 1 under <img src=./images/ngon_symbol.png style=width:14px;height:14px>?","response_type":"free","response_choices":[],"correct_response":"n-1","response":"I think is 0-1 ","orientation_history":[[0]],"response_history":["I think is 0-1 "],"rt":19433,"trial_type":"polygon-arrow-question","trial_index":0,"trial_index_global":65,"time_elapsed":477587,"internal_chunk_id":"0-0.14-0"},{"nsides":"n","question":"What is the formula for the inverse of an element x under <img src=./images/ngon_symbol.png style=width:14px;height:14px>? Please explain in words why your answer is correct.","response_type":"free","response_choices":[],"correct_response":"n-x","response":"if you have 2 the inverse is 0-2 so the answer is 0-x ","orientation_history":[[0]],"response_history":["if you have 2 the inverse is 1","if you have 2 the inverse is 0-2 so the answer is 0-x "],"rt":40755,"trial_type":"polygon-arrow-question","trial_index":0,"trial_index_global":66,"time_elapsed":518345,"internal_chunk_id":"0-0.14-0"},{"nsides":"n","question":"Is there a pattern to which elements are generators? How can you know if an element x is a generator under <img src=./images/ngon_symbol.png style=width:14px;height:14px> without seeing whether it can make all the elements?.","response_type":"free","response_choices":[],"correct_response":"","response":"no, I see no pattern ","orientation_history":[[0]],"response_history":["no ","no, I see no pattern "],"rt":18391,"trial_type":"polygon-arrow-question","trial_index":0,"trial_index_global":67,"time_elapsed":536738,"internal_chunk_id":"0-0.14-0"},{"nsides":"n","question":"True or false: If x is an odd number, it must be a generator under <img src=./images/ngon_symbol.png style=width:14px;height:14px>.","response_type":"multi","response_choices":["True","False"],"correct_response":"False","response":"True","orientation_history":[[0]],"response_history":["True"],"rt":10553,"trial_type":"polygon-arrow-ques tion","trial_index":0,"trial_index_global":68,"time_elapsed":547293,"internal_chunk_id":"0-0.14-0"},{"nsides":"n","question":"True or false: If x is an even number, it must not be a generator under <img src=./images/ngon_symbol.png style=width:14px;height:14px>.","response_type":"multi","response_choices":["True","False"],"correct_response":"False","response":"True","orientation_history":[[0]],"response_history":["False","True"],"rt":15907,"trial_type":"polygon-arrow-question","trial_index":0,"trial_index_global":69,"time_elapsed":563202,"internal_chunk_id":"0-0.14-0"},{"nsides":"n","question":"True or false: If x is not a generator under <img src=./images/ngon_symbol.png style=width:14px;height:14px>, x must be a divisor of n, that is, x must divide n evenly, with no remainder.","response_type":"multi","response_choices":["True","False"],"correct_response":"False","response":"False","orientation_history":[[0]],"response_history":["False"],"rt":9808,"trial_type":"pol ygon-arr ow-question","trial_index":0,"trial_index_global":70,"time_elapsed":573012,"internal_chunk_id":"0-0.14-0"},{"nsides":"n","question":"True or false: If x is not a generator under <img src=./images/ngon_symbol.png style=width:14px;height:14px>, x must be a multiple of a divisor of n. Please explain in words why your answer is correct.","response_type":"free","response_choices":[],"correct_response":"True","response":"I don't know the answer to this question. ","orientation_history":[[0]],"response_history":["I don't know the answer to this questo","I don't know the answer to this question. "],"rt":80643,"trial_type":"polygon-arrow-question","trial_index":0,"trial_index_global":71,"time_elapsed":653658,"internal_chunk_id":"0-0.14-0"},{"nsides":"n","question":"If an element x is a generator under <img src=./images/ngon_symbol.png style=width:14px;height:14px>, is its inverse a generator under <img src=./images/ngon_symbol.png style=width:14px;height:14px>  always,  sometimes, or never?","response_type":"multi","response_choices":["Always","Sometimes","Never"],"correct_response":"Always","response":"Never","orientation_history":[[0]],"response_history":["Never"],"rt":5664,"trial_type":"polygon-arrow-question","trial_index":0,"trial_index_global":72,"time_elapsed":659327,"internal_chunk_id":"0-0.14-0"},{"nsides":"n","question":"If an element x is a generator under <img src=./images/ngon_symbol.png style=width:14px;height:14px>, is x <img src=./images/ngon_symbol.png style=width:14px;height:14px> x a generator under <img src=./images/ngon_symbol.png style=width:14px;height:14px> always, sometimes, or never? Please explain in words why your answer is correct.","response_type":"free","response_choices":[],"correct_response":"Sometimes","response":"I don't know the answer to this question. ","orientation_history":[[0]],"response_history":["I don't know the answer to this question. "],"rt":3512,"trial_type":"polygon-a rrow-que stion","trial_index":0,"trial_index_global":73,"time_elapsed":662840,"internal_chunk_id":"0-0.14-0"},{"nsides":"n","question":"If an element x is not a generator under <img src=./images/ngon_symbol.png style=width:14px;height:14px>, is x <img src=./images/ngon_symbol.png style=width:14px;height:14px> x a generator under <img src=./images/ngon_symbol.png style=width:14px;height:14px> always, sometimes, or never?","response_type":"multi","response_choices":["Always","Sometimes","Never"],"correct_response":"Never","response":"Never","orientation_history":[[0]],"response_history":["Never"],"rt":4445,"trial_type":"polygon-arrow-question","trial_index":0,"trial_index_global":74,"time_elapsed":667287,"internal_chunk_id":"0-0.14-0"},{"instructions":"We would like to ask you some questions about your background. Please press Continue to continue.","rt":1372,"trial_type":"instructions","trial_index":0,"trial_index_global":75,"time_elapsed":668661,"internal_chunk_id":"0-0.15-0"},{"question":"What is your age?","response_type":"free","response_choices":[],"correct_response":"","response":"36","response_history":["36"],"rt":5500,"trial_type":"question","trial_index":0,"trial_index_global":76,"time_elapsed":674163,"internal_chunk_id":"0-0.15-0"},{"question":"What is your level of education?","response_type":"multi","response_choices":["Did not graduate high school","High school diploma","Some college, no degree","Associates Degree","Bachelors Degree","Some graduate school, no degree","Masters Degree","Doctorate, M.D., etc."],"correct_response":"","response":"High school diploma","response_history":["High school diploma"],"rt":7692,"trial_type":"question","trial_index":0,"trial_index_global":77,"time_elapsed":681858,"internal_chunk_id":"0-0.15-0"},{"question":"What is the most advanced math class you've completed? If you have multiple classes and you're not sure which one is most advanced, please list them.","response_type":"free","response_choices":[],"correct_response":"","response":" Algebra 1 and 2 and Geometry","response_history":[" Algebra 1 and 2 back-to-back then move on to Geometry"," Algebra 1 and 2  Geometry"," Algebra 1 and 2 a Geometry"," Algebra 1 and 2 an Geometry"," Algebra 1 and 2 and Geometry"],"rt":48421,"trial_type":"question","trial_index":0,"trial_index_global":78,"time_elapsed":730282,"internal_chunk_id":"0-0.15-0"},{"question":"How familiar are you with the concept of modular arithmetic?","response_type":"multi","response_choices":["1 - never heard of it","2 - heard of it but didn't know what it was","3 - seen it used or explained","4 - used it but not often or recently","5 - used it, remember and understand it"],"correct_response":"1","response":"1 - never heard of it","response_history":["1 - never heard of it"],"rt":2222,"trial_type":"question","trial_index":0,"trial_index_global":79,"time_elapsed":732505,"internal_chunk_id":"0-0.15-0"},{"question":"How familiar are you with the concept of  a mathem atical group?","response_type":"multi","response_choices":["1 - never heard of it","2 - heard of it but didn't know what it was","3 - seen it used or explained","4 - used it but not often or recently","5 - used it, remember and understand it"],"correct_response":"1","response":"1 - never heard of it","response_history":["1 - never heard of it"],"rt":2102,"trial_type":"question","trial_index":0,"trial_index_global":80,"time_elapsed":734609,"internal_chunk_id":"0-0.15-0"},{"question":"Do you feel you learned something from this HIT?","response_type":"multi","response_choices":["1 - not at all","2 - somewhat","3 - definitely"],"correct_response":"1","response":"3 - definitely","response_history":["2 - somewhat","3 - definitely"],"rt":3678,"trial_type":"question","trial_index":0,"trial_index_global":81,"time_elapsed":738289,"internal_chunk_id":"0-0.15-0"},{"question":"Do you feel you understood the concepts in this HIT?","response_type":"multi","response_choices":["1 - not at al l","2 -  somewhat","3 - definitely"],"correct_response":"1","response":"2 - somewhat","response_history":["2 - somewhat"],"rt":2543,"trial_type":"question","trial_index":0,"trial_index_global":82,"time_elapsed":740834,"internal_chunk_id":"0-0.15-0"},{"question":"Did you enjoy this HIT?","response_type":"multi","response_choices":["1 - not at all","2 - somewhat","3 - definitely"],"correct_response":"1","response":"2 - somewhat","response_history":["2 - somewhat"],"rt":2573,"trial_type":"question","trial_index":0,"trial_index_global":83,"time_elapsed":743410,"internal_chunk_id":"0-0.15-0"},{"question":"What is your gender?","response_type":"multi","response_choices":["Female","Male","Other"],"correct_response":"","response":"Male","response_history":["Male"],"rt":5325,"trial_type":"question","trial_index":0,"trial_index_global":84,"time_elapsed":748737,"internal_chunk_id":"0-0.15-0"},{"question":"What is/are your native language(s)? (The languages spoken in your household when you were  a child .)","response_type":"free","response_choices":[],"correct_response":"","response":"english, romanian ","response_history":["english, romania ","english, romanian "],"rt":15205,"trial_type":"question","trial_index":0,"trial_index_global":85,"time_elapsed":763946,"internal_chunk_id":"0-0.15-0"},{"question":"Did you use pen and paper at any point on this HIT?","response_type":"free","response_choices":[],"correct_response":"","response":"at the beginning","response_history":["at the beggining ","at the beginning"],"rt":40109,"trial_type":"question","trial_index":0,"trial_index_global":86,"time_elapsed":804057,"internal_chunk_id":"0-0.15-0"},{"question":"Do you have any comments on this HIT?","response_type":"free","response_choices":[],"correct_response":"","response":"none ","response_history":["none "],"rt":3629,"trial_type":"question","trial_index":0,"trial_index_global":87,"time_elapsed":807689,"internal_chunk_id":"0-0.15-0"}]