[{"nsides":6,"instructions":"Let's define a new operation <img src=./images/hexagon_symbol.png style=width:14px;height:14px>. This operation will give us a way of combining two of the numbers 0, 1, 2, 3, 4, 5 to get another one of them back. Consider the hexagon at the right, where I've labeled each point with one of the numbers. To perform <img src=./images/hexagon_symbol.png style=width:14px;height:14px>, you can use the interactive diagram on the right, or perform the operation in your mind. Point the arrow at the first number on the hexagon by clicking, then click (or click and drag) to move the arrow the second number of points clockwise around the hexagon. The number the arrow arrives at is your result. (The operation is called <img src=./images/hexagon_symbol.png style=width:14px;height:14px> because it uses the hexagon, which has 6 sides.) <br /><br />For example, 3 <img src=./images/hexagon_symbol.png style=width:14px;height:14px> 5 =  2, becau se 5 steps clockwise from 3 on the hexagon brings us to 2. So 3 <img src=./images/hexagon_symbol.png style=width:14px;height:14px> 5 = 2.<br /><br />Similarly, 1 <img src=./images/hexagon_symbol.png style=width:14px;height:14px> 4 = 5, because 4 steps clockwise from 1 brings us to 5. <br /><br />Click Continue when you're ready to move on.","orientation_history":[0,[1.0303768265243125,1.0303768265243125,1.0303768265243125,1.0303768265243125,1.0303768265243125,1.0303768265243125,1.0303768265243125,1.0303768265243125,1.0303768265243125,1.0303768265243125,1.0303768265243125,1.0471975511965976],[2.0915247182019674,2.0915247182019674,2.0915247182019674,2.0915247182019674,2.0915247182019674,2.0915247182019674,2.0915247182019674,2.0915247182019674,2.0915247182019674,2.0915247182019674,2.0915247182019674,2.0915247182019674,2.0915247182019674,2.0943951023931953],[3.107897546243777,3.107897546243777,3.107897546243777,3.107897546243777,3.107897546243777,3.107897546243777,3.107897546243777,3.141592653589793],[4.171969480114106,4.171969480114106,4.1818310933552425,4.1818310933552425,4.1818310933552425,4.1818310933552425,4.1818310933552425,4.1818310933552425,4.19180814689303,4.212108552159838,4.1887902047863905],[5.330355365311615,5.330355365311615,5.330355365311615,5.330355365311615,5.336090696611581,5.235987755982988],[0.06656816377582375,0.06656816377582375,0.06656816377582375,0.06656816377582375,0.06656816377582375,0.06656816377582375,0.06656816377582375,0],[0.8621700546672263,0.8621700546672263,0.8621700546672263,0.8621700546672263,0.8621700546672263,0.8621700546672263,0.8621700546672263,1.0471975511965976],[2.1995926132103296,2.1995926132103296,2.2058230621852104,2.2058230621852104,2.2058230621852104,2.2058230621852104,2.2058230621852104,2.2058230621852104,2.0943951023931953],[1.076070644310648,1.076070644310648,1.076070644310648,1.076070644310648,1.076070644310648,1.076070644310648,1.076070644310648,1.076070644310648,1.0471975511965976]],"rt":92344,"trial_type":"polygon-arrow-instructions","trial_index":0,"trial_index_global":1,"time_elapsed":106230,"internal_chunk_id":"0-0"},{"nsides":6,"instructions":"Do you see how <img src=./images/hexagon_symbol.png style=width:14px;height:14px> works? By labeling the points of the hexagon with the numbers from 0 to 5, we ensure that when we combine two numbers under <img src=./images/hexagon_symbol.png style=width:14px;height:14px>, we only produce numbers between 0 and 5.<br /><br />Click Continue when you are ready to move on.","orientation_history":[0],"rt":8623,"trial_type":"polygon-arrow-instructions","trial_index":0,"trial_index_global":2,"time_elapsed":114861,"internal_chunk_id":"0-0"},{"nsides":6,"question":"Now try one on your own! What is 4 <img src=./images/hexagon_symbol.png style=width:14px;height:14px> 5? <br /><br /> (Remember, to perform <img src=./images/hexagon_symbol.png style=width:14px;height:14px>, you can use the intera ctive di agram on the right, or perform the operation in your mind. Point the arrow at the first number on the hexagon, then move the arrow the second number of points clockwise around the hexagon. The number the arrow arrives at is your result.)","response_type":"free","response_choices":[],"correct_response":"3","response":"3","orientation_history":[[0],[4.258791284276918,4.258791284276918,4.258791284276918,4.258791284276918,4.258791284276918,4.258791284276918,4.258791284276918,4.258791284276918,4.1887902047863905],[5.311985267353707,5.311985267353707,5.311985267353707,5.311985267353707,5.311985267353707,5.311985267353707,5.311985267353707,5.311985267353707,5.311985267353707,5.235987755982988],[0.08964671632148646,0.08964671632148646,0.08964671632148646,0.08964671632148646,0.08964671632148646,0],[1.0169419343230985,1.0169419343230985,1.0169419343230985,1.0074800653029286,1.0074800653029286,1.0074800653029286,1.0074800653029286,1.0471975511965976],[2.152701444934782,2.152701444934782,2.152701444934782,2.152701444934782,2.152701444934782,2.152701444934782,2.152701444934782,2.0943951023931953],[3.3322315595038887,3.3322315595038887,3.3322315595038887,3.3322315595038887,3.3322315595038887,3.3322315595038887,3.3322315595038887,3.141592653589793]],"response_history":["3"],"rt":15837,"trial_type":"polygon-arrow-question","trial_index":0,"trial_index_global":3,"time_elapsed":130702,"internal_chunk_id":"0-0.3-0"},{"nsides":6,"feedback":"Correct! 4 <img src=./images/hexagon_symbol.png style=width:14px;height:14px> 5 = 3 because 5 steps clockwise on the hexagon from 4 brings us to 3","orientation_history":[0],"rt":4413,"trial_type":"polygon-arrow-feedback","trial_index":0,"trial_index_global":4,"time_elapsed":135118,"internal_chunk_id":"0-0.3-0"},{"nsides":6,"question":"What is 3 <img src=./images/hexagon_symbol.png style=width:14px;height:14px> 2? <br /><br /> (Remember, to perform <img src=./images/hexagon_symbol.png style=width:14px;height:14px>, you  can use the interactive diagram on the right, or perform the operation in your mind. Point the arrow at the first number on the hexagon, then move the arrow the second number of points clockwise around the hexagon. The number the arrow arrives at is your result.)","response_type":"free","response_choices":[],"correct_response":"5","response":"5","orientation_history":[[0],[3.20104631289845,3.20104631289845,3.20104631289845,3.20104631289845,3.20104631289845,3.20104631289845,3.20104631289845,3.20104631289845,3.141592653589793],[4.201900658467914,4.201900658467914,4.201900658467914,4.201900658467914,4.201900658467914,4.201900658467914,4.201900658467914,4.1887902047863905],[5.155837316804428,5.155837316804428,5.155837316804428,5.155837316804428,5.155837316804428,5.155837316804428,5.155837316804428,5.155837316804428,5.235987755982988]],"response_history":["5"],"rt":12653,"trial_type":"polygon-arrow-question","trial_index":0,"trial_index_global":5,"time_elapsed":147773,"internal_chunk_id":"0-0.3-0"},{"nsides":6,"feedback":"Correct! 3 <img src=./images/hexagon_symbol.png style=width:14px;height:14px> 2 = 5 because 2 steps clockwise on the hexagon from 3 brings us to 5","orientation_history":[0,[3.018620784025496,3.018620784025496,3.018620784025496,3.018620784025496,3.018620784025496,3.018620784025496,3.018620784025496,3.018620784025496,3.018620784025496,3.018620784025496,3.018620784025496,3.141592653589793],[4.243933716117192,4.243933716117192,4.243933716117192,4.243933716117192,4.243933716117192,4.243933716117192,4.243933716117192,4.243933716117192,4.1887902047863905],[5.151651180212777,5.151651180212777,5.151651180212777,5.151651180212777,5.151651180212777,5.151651180212777,5.151651180212777,5.151651180212777,5.151651180212777,5.151651180212777,5.151651180212777,5.151651180212777,5.151651180212777,5.151651180212777,5.235987755982988]],"rt":7286,"trial_type":"polygon-arrow-feedback","trial_index":0,"trial_index_global":6,"time_elapsed":155061,"internal_chunk_id":"0-0.3-0"},{"nsides":6,"question":"What is 1 <img src=./images/hexagon_symbol.png style=width:14px;height:14px> 5? <br /><br /> (Remember, to perform <img src=./images/hexagon_symbol.png style=width:14px;height:14px>, you can use the interactive diagram on the right, or perform the operation in your mind. Point the arrow at the first number on the hexagon, then move the arrow the second number of points clockwise around the hexagon. The number the arrow arrives at is your result.)","response_type":"free","response_choices":[],"correct_response":"0","response":"0","orientation_history":[[0],[1.0417658557152478,1.0417658557152478,1.0417658557152478,1.0417658557152478,1.0417658557152478,1.0417658557152478,1.0417658557152478,1.0417658557152478,1.0471975511965976],[2.1650100305953304,2.1650100305953304,2.1650100305953304,2.1650100305953304,2.1650100305953304,2.1650100305953304,2.1650100305953304,2.1650100305953304,2.1650100305953304,2.0943951023931953],[3.141592653589793,3.141592653589793,3.141592653589793,3.141592653589793,3.141592653589793,3.141592653589793,3.141592653589793,3.141592653589793],[4.22122538209843,4.22122538209843,4.22122538209843,4.22122538209843,4.22122538209843,4.22122538209843,4.1887902047863905],[5.176036589385496,5.176036589385496,5.176036589385496,5.176036589385496,5.176036589385496,5.176036589385496,5.176036589385496,5.235987755982988],[6.232595598410201,6.232595598410201,6.232595598410201,6.232595598410201,6.232595598410201,6.232595598410201,6.283185307179586]],"response_history":["0"],"rt":7623,"trial_type":"polygon-arrow-question","trial_index":0,"trial_index_global":7,"time_elapsed":162685,"internal_chunk_id":"0-0.3-0"},{"nsides":6,"feedback":"Correct! 1 <img src=./images/hexagon_symbol.png style=width:14px;height:14px> 5 = 0 because 5 steps clockwise on the hexagon from 1 brings us to 0","orientation_history":[0],"rt":1375,"trial_type":"polygon-arrow-feedback","trial_index":0,"trial_index_global":8,"time_elapsed":164061,"internal_chunk_id":"0-0.3-0"},{"nsides":6,"question":"What is 1 <img src=./images/hexagon_symbol.png style=width:14px;height:14px> 1? <br /><br /> (Remember, to perform <img src=./images/hexagon_symbol.png style=width:14px;height:14px>, you can use the interactive diagram on the right, or perform the operation in your mind. Point the arrow at the first number on the hexagon, then move the arrow the second number of points clockwise around the hexagon. The number the arrow arrives at is your result.)","response_type":"free","response_choices":[],"correct_response":"2","response":"2","orientation_history":[[0],[0.8794593980254346,0.8794593980254346,0.8794593980254346,0.8794593980254346,0.8794593980254346,0.8794593980254346,0.8794593980254346,0.8794593980254346,0.8794593980254346,1.0471975511965976]],"response_history":["2"],"rt":5218,"trial_type":"polygon-arrow-question","trial_index":0,"trial_index_global":9,"time_elapsed":169281,"internal_chunk_id":"0-0 .3-0"},{"nsides":6,"feedback":"Correct! 1 <img src=./images/hexagon_symbol.png style=width:14px;height:14px> 1 = 2 because 1 step clockwise on the hexagon from 1 brings us to 2","orientation_history":[0],"rt":962,"trial_type":"polygon-arrow-feedback","trial_index":0,"trial_index_global":10,"time_elapsed":170245,"internal_chunk_id":"0-0.3-0"},{"nsides":6,"question":"What is 3 <img src=./images/hexagon_symbol.png style=width:14px;height:14px> 0? <br /><br /> (Remember, to perform <img src=./images/hexagon_symbol.png style=width:14px;height:14px>, you can use the interactive diagram on the right, or perform the operation in your mind. Point the arrow at the first number on the hexagon, then move the arrow the second number of points clockwise around the hexagon. The number the arrow arrives at is your result.)","response_type":"free","response_choices":[],"correct_response":"3","response":"3","orientation_history":[[0],[3.241261306080955,3.241261306080955,3.241261306080955,3.241261306080955,3.241261306080955,3.241261306080955,3.241261306080955,3.241261306080955,3.141592653589793]],"response_history":["3"],"rt":24871,"trial_type":"polygon-arrow-question","trial_index":0,"trial_index_global":11,"time_elapsed":195117,"internal_chunk_id":"0-0.3-0"},{"nsides":6,"feedback":"Correct! 3 <img src=./images/hexagon_symbol.png style=width:14px;height:14px> 0 = 3 because 0 steps clockwise on the hexagon from 3 brings us to 3","orientation_history":[0],"rt":4094,"trial_type":"polygon-arrow-feedback","trial_index":0,"trial_index_global":12,"time_elapsed":199213,"internal_chunk_id":"0-0.3-0"},{"nsides":6,"question":"What is 4 <img src=./images/hexagon_symbol.png style=width:14px;height:14px> 4? <br /><br /> (Remember, to perform <img src=./images/hexagon_symbol.png style=width:14px;height:14px>, you can use the interactive diagram on the right, or perform the operation in your mind. Point the arrow at the first number on th e hexago n, then move the arrow the second number of points clockwise around the hexagon. The number the arrow arrives at is your result.)","response_type":"free","response_choices":[],"correct_response":"2","response":"2","orientation_history":[[0],[3.9269908169872414,3.9269908169872414,3.9269908169872414,3.9269908169872414,3.9269908169872414,3.9269908169872414,3.9269908169872414,3.9269908169872414,3.9269908169872414,3.9269908169872414,4.1887902047863905],[5.224127822700048,5.224127822700048,5.224127822700048,5.224127822700048,5.224127822700048,5.224127822700048,5.224127822700048,5.224127822700048,5.2300380897614644,5.235987755982988],[0.19468553938394972,0.19468553938394972,0.19468553938394972,0.18948015788114736,0.18948015788114736,0.18948015788114736,0.18948015788114736,0.18948015788114736,0.18948015788114736,0],[1.0703555136476024,1.0703555136476024,1.0703555136476024,1.0703555136476024,1.0703555136476024,1.0703555136476024,1.0703555136476024,1.0471975511965976],[2.1396441852162553,2.1396441852162553,2.181522291184105,2.20354516179708,2.300695984946628,2.3383392450527922,2.347345163676087,2.347345163676087,2.347345163676087,2.347345163676087,2.0943951023931953]],"response_history":["2"],"rt":6128,"trial_type":"polygon-arrow-question","trial_index":0,"trial_index_global":13,"time_elapsed":205343,"internal_chunk_id":"0-0.3-0"},{"nsides":6,"feedback":"Correct! 4 <img src=./images/hexagon_symbol.png style=width:14px;height:14px> 4 = 2 because 4 steps clockwise on the hexagon from 4 brings us to 2","orientation_history":[0],"rt":1325,"trial_type":"polygon-arrow-feedback","trial_index":0,"trial_index_global":14,"time_elapsed":206670,"internal_chunk_id":"0-0.3-0"},{"nsides":6,"question":"What is 1 <img src=./images/hexagon_symbol.png style=width:14px;height:14px> 3? <br /><br /> (Remember, to perform <img src=./images/hexagon_symbol.png style=width:14px;height:14px>, you can use the interactive diagram on the right, or perform the operatio n in you r mind. Point the arrow at the first number on the hexagon, then move the arrow the second number of points clockwise around the hexagon. The number the arrow arrives at is your result.)","response_type":"free","response_choices":[],"correct_response":"4","response":"4","orientation_history":[[0],[0.8760580505981934,0.8760580505981934,0.8760580505981934,0.8760580505981934,0.8760580505981934,0.8760580505981934,0.8760580505981934,0.8760580505981934,1.0471975511965976],[2.059130277851302,2.059130277851302,2.065683769225971,2.065683769225971,2.065683769225971,2.065683769225971,2.065683769225971,2.065683769225971,2.0943951023931953],[3.063827713987061,3.063827713987061,3.0767486260365864,3.0767486260365864,3.0767486260365864,3.0767486260365864,3.0767486260365864,3.08969125513162,3.141592653589793],[3.656043966648821,3.656043966648821,3.6798143552012714,3.7083218711132995,3.7083218711132995,3.7083218711132995,3.7083218711132995,3.7083218711132995,4.1887902047863905]],"response_history":[" 4"],"rt":5997,"trial_type":"polygon-arrow-question","trial_index":0,"trial_index_global":15,"time_elapsed":212671,"internal_chunk_id":"0-0.3-0"},{"nsides":6,"feedback":"Correct! 1 <img src=./images/hexagon_symbol.png style=width:14px;height:14px> 3 = 4 because 3 steps clockwise on the hexagon from 1 brings us to 4","orientation_history":[0],"rt":1022,"trial_type":"polygon-arrow-feedback","trial_index":0,"trial_index_global":16,"time_elapsed":213695,"internal_chunk_id":"0-0.3-0"},{"nsides":6,"question":"What is 4 <img src=./images/hexagon_symbol.png style=width:14px;height:14px> 3? <br /><br /> (Remember, to perform <img src=./images/hexagon_symbol.png style=width:14px;height:14px>, you can use the interactive diagram on the right, or perform the operation in your mind. Point the arrow at the first number on the hexagon, then move the arrow the second number of points clockwise around the hexagon. The number the arrow arrives at is your result.)","response_type":"free","response_choices":[],"correct_response":"1","response":"1","orientation_history":[[0],[4.197504203980465,4.197504203980465,4.197504203980465,4.197504203980465,4.197504203980465,4.197504203980465,4.197504203980465,4.197504203980465,4.197504203980465,4.1887902047863905],[5.237184752034796,5.237184752034796,5.237184752034796,5.237184752034796,5.237184752034796,5.237184752034796,5.231535094631212,5.237184752034796,5.235987755982988],[0.09827395325600907,0.09827395325600907,0.09827395325600907,0.09827395325600907,0.09827395325600907,0.09827395325600907,0.09966865249116186,0],[1.2172543670437779,1.2172543670437779,1.2172543670437779,1.2172543670437779,1.2172543670437779,1.2172543670437779,1.2172543670437779,1.2172543670437779,1.0471975511965976]],"response_history":["1"],"rt":5102,"trial_type":"polygon-arrow-question","trial_index":0,"trial_index_global":17,"time_elapsed":218799,"internal_chunk_id":"0-0.3-0"},{"nsides":6,"feedback":"Correct! 4 <img src=./images/hexago n_symbol .png style=width:14px;height:14px> 3 = 1 because 3 steps clockwise on the hexagon from 4 brings us to 1","orientation_history":[0,[4.175953522779959,4.175953522779959,4.175953522779959,4.175953522779959,4.175953522779959,4.175953522779959,4.175953522779959,4.175953522779959,4.1887902047863905],[5.323806507595876,5.323806507595876,5.323806507595876,5.328685917780761,5.328685917780761,5.328685917780761,5.33363349091475,5.235987755982988],[0.1507463811204215,0.1507463811204215,0.1507463811204215,0.1507463811204215,0.1507463811204215,0.1507463811204215,0],[1.1029470618472186,1.1029470618472186,1.1029470618472186,1.1029470618472186,1.1029470618472186,1.1029470618472186,1.1029470618472186,1.0471975511965976]],"rt":57253,"trial_type":"polygon-arrow-feedback","trial_index":0,"trial_index_global":18,"time_elapsed":276053,"internal_chunk_id":"0-0.3-0"},{"nsides":6,"question":"What is 0 <img src=./images/hexagon_symbol.png style=width:14px;height:14px> 5? <br /><br /> (Re member,  to perform <img src=./images/hexagon_symbol.png style=width:14px;height:14px>, you can use the interactive diagram on the right, or perform the operation in your mind. Point the arrow at the first number on the hexagon, then move the arrow the second number of points clockwise around the hexagon. The number the arrow arrives at is your result.)","response_type":"free","response_choices":[],"correct_response":"5","response":"5","orientation_history":[[0],[0.8636693039187262,0.8636693039187262,0.8636693039187262,0.8636693039187262,0.8636693039187262,0.8636693039187262,1.0471975511965976],[2.130736123909285,2.130736123909285,2.130736123909285,2.130736123909285,2.130736123909285,2.130736123909285,2.130736123909285,2.0943951023931953],[3.0564332609700866,3.0564332609700866,3.0564332609700866,3.0564332609700866,3.0564332609700866,3.0564332609700866,3.0564332609700866,3.141592653589793],[3.8516619261589016,3.8516619261589016,3.8516619261589016,3.8516619261589016,3.8516619261589016,3.8516619261589016,3.8516619261589016,3.8516619261589016,4.1887902047863905],[4.809642178636255,4.809642178636255,4.809642178636255,4.809642178636255,4.809642178636255,4.809642178636255,4.809642178636255,5.235987755982988]],"response_history":["5"],"rt":9951,"trial_type":"polygon-arrow-question","trial_index":0,"trial_index_global":19,"time_elapsed":286005,"internal_chunk_id":"0-0.3-0"},{"nsides":6,"feedback":"Correct! 0 <img src=./images/hexagon_symbol.png style=width:14px;height:14px> 5 = 5 because 5 steps clockwise on the hexagon from 0 brings us to 5","orientation_history":[0],"rt":3406,"trial_type":"polygon-arrow-feedback","trial_index":0,"trial_index_global":20,"time_elapsed":289413,"internal_chunk_id":"0-0.3-0"},{"nsides":6,"question":"What is 2 <img src=./images/hexagon_symbol.png style=width:14px;height:14px> 5? <br /><br /> (Remember, to perform <img src=./images/hexagon_symbol.png style=width:14px;height:14px>, you can use the interactive d iagram o n the right, or perform the operation in your mind. Point the arrow at the first number on the hexagon, then move the arrow the second number of points clockwise around the hexagon. The number the arrow arrives at is your result.)","response_type":"free","response_choices":[],"correct_response":"1","response":"1","orientation_history":[[0],[2.5844682634303977,2.5844682634303977,2.5844682634303977,2.577023259921693,2.577023259921693,2.577023259921693,2.0943951023931953],[3.0380679790792486,3.0380679790792486,3.0380679790792486,3.0380679790792486,3.0380679790792486,3.0380679790792486,3.0380679790792486,3.0380679790792486,3.141592653589793],[4.210482537332696,4.210482537332696,4.210482537332696,4.210482537332696,4.210482537332696,4.210482537332696,4.210482537332696,4.1887902047863905],[5.018873545234552,5.018873545234552,5.018873545234552,5.018873545234552,5.018873545234552,5.018873545234552,5.018873545234552,5.022557041172675,5.235987755982988],[5.861766100291782,5.861766100291782,5.861766100291782,5.861766100291782,5.861766100291782,5.861766100291782,5.861766100291782,5.876214521810815,6.283185307179586],[0.6747409422235526,0.6747409422235526,0.6747409422235526,0.6747409422235526,1.0471975511965976]],"response_history":["1"],"rt":7943,"trial_type":"polygon-arrow-question","trial_index":0,"trial_index_global":21,"time_elapsed":297357,"internal_chunk_id":"0-0.3-0"},{"nsides":6,"feedback":"Correct! 2 <img src=./images/hexagon_symbol.png style=width:14px;height:14px> 5 = 1 because 5 steps clockwise on the hexagon from 2 brings us to 1","orientation_history":[0],"rt":1022,"trial_type":"polygon-arrow-feedback","trial_index":0,"trial_index_global":22,"time_elapsed":298381,"internal_chunk_id":"0-0.3-0"},{"nsides":6,"instructions":"Now we're going to discuss a couple special properties of this new operation, <img src=./images/hexagon_symbol.png style=width:14px;height:14px> that we've learned. First, notice that the number 0 behaves in a special  way unde r <img src=./images/hexagon_symbol.png style=width:14px;height:14px>. Whenever we combine 0 with anything else, we get that same thing back. We'll say that 0 is the <i>identity</i> under <img src=./images/hexagon_symbol.png style=width:14px;height:14px>, because when you combine it with something it gives you that identical thing back.","orientation_history":[0],"rt":19583,"trial_type":"polygon-arrow-instructions","trial_index":0,"trial_index_global":23,"time_elapsed":317970,"internal_chunk_id":"0-0"},{"nsides":6,"instructions":"Now that we know 0 is the identity under <img src=./images/hexagon_symbol.png style=width:14px;height:14px>, we're going to make a new definition. We'll say that the <i>inverse</i> of a number is the element that you combine with it to produce the identity under our operation. For example, 5 <img src=./images/hexagon_symbol.png style=width:14px;height:14px> 1 = 0, so we say 1 is the inverse of 5 under <img src=./imag es/hexag on_symbol.png style=width:14px;height:14px>, (remember 0 is the identity under <img src=./images/hexagon_symbol.png style=width:14px;height:14px>). Similarly, 3 is its own inverse under <img src=./images/hexagon_symbol.png style=width:14px;height:14px>, because 3 <img src=./images/hexagon_symbol.png style=width:14px;height:14px> 3 = 0.","orientation_history":[0],"rt":17811,"trial_type":"polygon-arrow-instructions","trial_index":0,"trial_index_global":24,"time_elapsed":335782,"internal_chunk_id":"0-0"},{"nsides":6,"question":"Now you try! What is the inverse of 4 under <img src=./images/hexagon_symbol.png style=width:14px;height:14px>? <br /><br /> (Remember, the inverse of an element is the thing which you combine with it to produce the identity.)","response_type":"free","response_choices":[],"correct_response":"2","response":"2","orientation_history":[[0]],"response_history":["2"],"rt":11455,"trial_type":"polygon-arrow-question","trial_index":0,"trial_index_global":25,"time_elapsed":347238,"internal_chunk_id":"0-0.7-0"},{"nsides":6,"feedback":"Correct! The inverse of 4 under <img src=./images/hexagon_symbol.png style=width:14px;height:14px> is 2 because 4 <img src=./images/hexagon_symbol.png style=width:14px;height:14px> 2 = 0, and 0 is the identity under <img src=./images/hexagon_symbol.png style=width:14px;height:14px>.","orientation_history":[0],"rt":1286,"trial_type":"polygon-arrow-feedback","trial_index":0,"trial_index_global":26,"time_elapsed":348526,"internal_chunk_id":"0-0.7-0"},{"nsides":6,"question":"What is the inverse of 1 under <img src=./images/hexagon_symbol.png style=width:14px;height:14px>? <br /><br /> (Remember, the inverse of an element is the thing which you combine with it to produce the identity.)","response_type":"free","response_choices":[],"correct_response":"5","response":"5","orientation_history":[[0],[1.2011120379995952,1.2011120379995952,1.2011120379995952,1.2011120379995952,1.2011120379995952,1.2011120379995952,1.0471975511965976],[2.0294934811868592,2.0294934811868592,2.0294934811868592,2.0294934811868592,2.0294934811868592,2.0294934811868592,2.0294934811868592,2.044393856188508,2.0943951023931953],[3.2614966389548172,3.2614966389548172,3.260082612747931,3.260082612747931,3.260082612747931,3.260082612747931,3.260082612747931,3.141592653589793],[4.219903214512765,4.219903214512765,4.219903214512765,4.219903214512765,4.219903214512765,4.219903214512765,4.219903214512765,4.1887902047863905],[4.937427266877295,4.937427266877295,4.937427266877295,4.937427266877295,4.937427266877295,4.937427266877295,4.937427266877295,4.937427266877295,5.235987755982988]],"response_history":["4","5"],"rt":10070,"trial_type":"polygon-arrow-question","trial_index":0,"trial_index_global":27,"time_elapsed":358598,"internal_chunk_id":"0-0.7-0"},{"nsides":6,"feedback":"Correct! The inverse of 1 under <img src=./images/hexagon_symbol.png style=width:14 px;heigh t:14px> is 5 because 1 <img src=./images/hexagon_symbol.png style=width:14px;height:14px> 5 = 0, and 0 is the identity under <img src=./images/hexagon_symbol.png style=width:14px;height:14px>.","orientation_history":[0],"rt":958,"trial_type":"polygon-arrow-feedback","trial_index":0,"trial_index_global":28,"time_elapsed":359558,"internal_chunk_id":"0-0.7-0"},{"nsides":6,"question":"What is the inverse of 3 under <img src=./images/hexagon_symbol.png style=width:14px;height:14px>? <br /><br /> (Remember, the inverse of an element is the thing which you combine with it to produce the identity.)","response_type":"free","response_choices":[],"correct_response":"3","response":"3","orientation_history":[[0],[4.144722556012811,4.144722556012811,4.144722556012811,4.144722556012811,4.144722556012811,4.1887902047863905],[5.087659803240647,5.087659803240647,5.087659803240647,5.087659803240647,5.087659803240647,5.087659803240647,5.235987755982988],[0.035073330533225366,0.035073330533225366,0.035073330533225366,0.035073330533225366,0.035073330533225366,0.035073330533225366,0.035073330533225366,0.035073330533225366,0]],"response_history":["3"],"rt":4462,"trial_type":"polygon-arrow-question","trial_index":0,"trial_index_global":29,"time_elapsed":364022,"internal_chunk_id":"0-0.7-0"},{"nsides":6,"feedback":"Correct! The inverse of 3 under <img src=./images/hexagon_symbol.png style=width:14px;height:14px> is 3 because 3 <img src=./images/hexagon_symbol.png style=width:14px;height:14px> 3 = 0, and 0 is the identity under <img src=./images/hexagon_symbol.png style=width:14px;height:14px>.","orientation_history":[0],"rt":927,"trial_type":"polygon-arrow-feedback","trial_index":0,"trial_index_global":30,"time_elapsed":364951,"internal_chunk_id":"0-0.7-0"},{"nsides":6,"question":"What is the inverse of 2 under <img src=./images/hexagon_symbol.png style=width:14px;height:14px>? <br /><br /> (Remember, the inverse of an e lement i s the thing which you combine with it to produce the identity.)","response_type":"free","response_choices":[],"correct_response":"4","response":"4","orientation_history":[[0]],"response_history":["4"],"rt":5012,"trial_type":"polygon-arrow-question","trial_index":0,"trial_index_global":31,"time_elapsed":369964,"internal_chunk_id":"0-0.7-0"},{"nsides":6,"feedback":"Correct! The inverse of 2 under <img src=./images/hexagon_symbol.png style=width:14px;height:14px> is 4 because 2 <img src=./images/hexagon_symbol.png style=width:14px;height:14px> 4 = 0, and 0 is the identity under <img src=./images/hexagon_symbol.png style=width:14px;height:14px>.","orientation_history":[0],"rt":1001,"trial_type":"polygon-arrow-feedback","trial_index":0,"trial_index_global":32,"time_elapsed":370967,"internal_chunk_id":"0-0.7-0"},{"nsides":6,"question":"What is the inverse of 0 under <img src=./images/hexagon_symbol.png style=width:14px;height:14px>? <br /><br /> (Re member,  the inverse of an element is the thing which you combine with it to produce the identity.)","response_type":"free","response_choices":[],"correct_response":"0","response":"0","orientation_history":[[0]],"response_history":["0"],"rt":4055,"trial_type":"polygon-arrow-question","trial_index":0,"trial_index_global":33,"time_elapsed":375023,"internal_chunk_id":"0-0.7-0"},{"nsides":6,"feedback":"Correct! The inverse of 0 under <img src=./images/hexagon_symbol.png style=width:14px;height:14px> is 0 because 0 <img src=./images/hexagon_symbol.png style=width:14px;height:14px> 0 = 0, and 0 is the identity under <img src=./images/hexagon_symbol.png style=width:14px;height:14px>.","orientation_history":[0],"rt":1063,"trial_type":"polygon-arrow-feedback","trial_index":0,"trial_index_global":34,"time_elapsed":376087,"internal_chunk_id":"0-0.7-0"},{"instructions":"It is also possible to successively apply <img src=./images/hexagon_symbol.png style=width:14px;h eight:14 px>, and the operation can simply be performed starting with the left-most pair. For example, 2 <img src=./images/hexagon_symbol.png style=width:14px;height:14px> 3 <img src=./images/hexagon_symbol.png style=width:14px;height:14px> 4 = 5 <img src=./images/hexagon_symbol.png style=width:14px;height:14px> 4 = 3.","rt":7692,"trial_type":"instructions","trial_index":0,"trial_index_global":35,"time_elapsed":383780,"internal_chunk_id":"0-0"},{"nsides":6,"instructions":"We have one last definition to learn today. Let's start with an example. Under our operation <img src=./images/hexagon_symbol.png style=width:14px;height:14px> we can make every other number using just 1: 2 = 1 <img src=./images/hexagon_symbol.png style=width:14px;height:14px> 1, 3 = 1 <img src=./images/hexagon_symbol.png style=width:14px;height:14px> 1 <img src=./images/hexagon_symbol.png style=width:14px;height:14px> 1, 4 = 1 <img src=./images/hexagon_sym bol.png style=width:14px;height:14px> 1 <img src=./images/hexagon_symbol.png style=width:14px;height:14px> 1 <img src=./images/hexagon_symbol.png style=width:14px;height:14px> 1, 5 = 1 <img src=./images/hexagon_symbol.png style=width:14px;height:14px> 1 <img src=./images/hexagon_symbol.png style=width:14px;height:14px> 1 <img src=./images/hexagon_symbol.png style=width:14px;height:14px> 1 <img src=./images/hexagon_symbol.png style=width:14px;height:14px> 1, and 0 = 1 <img src=./images/hexagon_symbol.png style=width:14px;height:14px> 1 <img src=./images/hexagon_symbol.png style=width:14px;height:14px> 1 <img src=./images/hexagon_symbol.png style=width:14px;height:14px> 1 <img src=./images/hexagon_symbol.png style=width:14px;height:14px> 1 <img src=./images/hexagon_symbol.png style=width:14px;height:14px> 1. Because 1 can make every other element under <img src=./images/hexagon_symbol.png  style=width:14px;height:14px>, we say that 1 is a <i>generator</i> under <img src=./images/hexagon_symbol.png style=width:14px;height:14px>. <br /><br /> However, 2 is not a generator under <img src=./images/hexagon_symbol.png style=width:14px;height:14px>, because 4 = 2 <img src=./images/hexagon_symbol.png style=width:14px;height:14px> 2, and 0 = 2 <img src=./images/hexagon_symbol.png style=width:14px;height:14px> 2 <img src=./images/hexagon_symbol.png style=width:14px;height:14px> 2, but there is no way to make 1, 3, or 5 using just 2.","orientation_history":[0],"rt":18046,"trial_type":"polygon-arrow-instructions","trial_index":0,"trial_index_global":36,"time_elapsed":401828,"internal_chunk_id":"0-0"},{"nsides":6,"question":"Now you try! Is 3 a generator under <img src=./images/hexagon_symbol.png style=width:14px;height:14px>? <br /><br /> (Remember, a generator is an element which can make every other element.)","response_type":"multi","response_choices":["Yes","No"],"correct_response":"No","response":"No","orientation_history":[[0],[3.1790750902814544,3.1790750902814544,3.1790750902814544,3.1790750902814544,3.1790750902814544,3.1790750902814544,3.1790750902814544,3.1790750902814544,3.1790750902814544,3.1790750902814544,3.1790750902814544,3.141592653589793],[0.775089250251205,0.775089250251205,0.775089250251205,0.775089250251205,0.775089250251205,0.775089250251205,0.775089250251205,1.0471975511965976]],"response_history":["No"],"rt":11015,"trial_type":"polygon-arrow-question","trial_index":0,"trial_index_global":37,"time_elapsed":412845,"internal_chunk_id":"0-0.10-0"},{"nsides":6,"feedback":"Correct! 3 is not a generator under <img src=./images/hexagon_symbol.png style=width:14px;height:14px>, because 3 = 3, 0 = 3 <img src=./images/hexagon_symbol.png style=width:14px;height:14px> 3, but there is no way to make 1, 2, 4, or 5 using just 3.","orientation_history":[0],"rt":6055,"trial_type":"p olygon-a rrow-feedback","trial_index":0,"trial_index_global":38,"time_elapsed":418901,"internal_chunk_id":"0-0.10-0"},{"nsides":6,"question":"Is 5 a generator under <img src=./images/hexagon_symbol.png style=width:14px;height:14px>? <br /><br /> (Remember, a generator is an element which can make every other element.)","response_type":"multi","response_choices":["Yes","No"],"correct_response":"Yes","response":"No","orientation_history":[[0]],"response_history":["No"],"rt":3527,"trial_type":"polygon-arrow-question","trial_index":0,"trial_index_global":39,"time_elapsed":422429,"internal_chunk_id":"0-0.10-0"},{"nsides":6,"feedback":"Sorry, that's incorrect. 5 is a generator under <img src=./images/hexagon_symbol.png style=width:14px;height:14px>, because 5 = 5, 4 = 5 <img src=./images/hexagon_symbol.png style=width:14px;height:14px> 5, 3 = 5 <img src=./images/hexagon_symbol.png style=width:14px;height:14px> 5 <img src=./images/hexagon_symbol.png style =width :14px;height:14px> 5, 2 = 5 <img src=./images/hexagon_symbol.png style=width:14px;height:14px> 5 <img src=./images/hexagon_symbol.png style=width:14px;height:14px> 5 <img src=./images/hexagon_symbol.png style=width:14px;height:14px> 5, 1 = 5 <img src=./images/hexagon_symbol.png style=width:14px;height:14px> 5 <img src=./images/hexagon_symbol.png style=width:14px;height:14px> 5 <img src=./images/hexagon_symbol.png style=width:14px;height:14px> 5 <img src=./images/hexagon_symbol.png style=width:14px;height:14px> 5, and 0 = 5 <img src=./images/hexagon_symbol.png style=width:14px;height:14px> 5 <img src=./images/hexagon_symbol.png style=width:14px;height:14px> 5 <img src=./images/hexagon_symbol.png style=width:14px;height:14px> 5 <img src=./images/hexagon_symbol.png style=width:14px;height:14px> 5 <img src=./images/hexagon_symbol.png style=width:14px;height:14px> 5, so you can make  all of t he numbers under <img src=./images/hexagon_symbol.png style=width:14px;height:14px> using 5","orientation_history":[0],"rt":2016,"trial_type":"polygon-arrow-feedback","trial_index":0,"trial_index_global":40,"time_elapsed":424446,"internal_chunk_id":"0-0.10-0"},{"nsides":6,"question":"Is 4 a generator under <img src=./images/hexagon_symbol.png style=width:14px;height:14px>? <br /><br /> (Remember, a generator is an element which can make every other element.)","response_type":"multi","response_choices":["Yes","No"],"correct_response":"No","response":"No","orientation_history":[[0]],"response_history":["No"],"rt":2012,"trial_type":"polygon-arrow-question","trial_index":0,"trial_index_global":41,"time_elapsed":426460,"internal_chunk_id":"0-0.10-0"},{"nsides":6,"feedback":"Correct! 4 is not a generator under <img src=./images/hexagon_symbol.png style=width:14px;height:14px>, because 4 = 4, 2 = 4 <img src=./images/hexagon_symbol.png style=width:14px; height:1 4px> 4, and 0 = 4 <img src=./images/hexagon_symbol.png style=width:14px;height:14px> 4 <img src=./images/hexagon_symbol.png style=width:14px;height:14px> 4, but there is no way to make 1, 3, or 5 using just 4.","orientation_history":[0],"rt":926,"trial_type":"polygon-arrow-feedback","trial_index":0,"trial_index_global":42,"time_elapsed":427389,"internal_chunk_id":"0-0.10-0"},{"nsides":6,"question":"Is 0 a generator under <img src=./images/hexagon_symbol.png style=width:14px;height:14px>? <br /><br /> (Remember, a generator is an element which can make every other element.)","response_type":"multi","response_choices":["Yes","No"],"correct_response":"No","response":"Yes","orientation_history":[[0]],"response_history":["Yes"],"rt":2751,"trial_type":"polygon-arrow-question","trial_index":0,"trial_index_global":43,"time_elapsed":430141,"internal_chunk_id":"0-0.10-0"},{"nsides":6,"feedback":"Sorry, that's incorrect. 0 is not a generator under <img src=. /images/ hexagon_symbol.png style=width:14px;height:14px>, because 0 = 0, but there is no way to make 1, 2, 3, 4, or 5 using just 0.","orientation_history":[0],"rt":941,"trial_type":"polygon-arrow-feedback","trial_index":0,"trial_index_global":44,"time_elapsed":431085,"internal_chunk_id":"0-0.10-0"},{"nsides":9,"instructions":"Now we are going to ask you some questions about a new operation, <img src=./images/nonagon_symbol.png style=width:14px;height:14px>, on the numbers 0, 1, 2, 3, 4, 5, 6, 7, 8. It works exactly like <img src=./images/hexagon_symbol.png style=width:14px;height:14px>, except now you use the nonagon shown at the right. <br /><br />Do you see how <img src=./images/nonagon_symbol.png style=width:14px;height:14px> works just like <img src=./images/hexagon_symbol.png style=width:14px;height:14px>? By labeling the points of the nonagon with the numbers from 0 to 8, we ensure that when we combine two numbers under <img src=./images /nonagon _symbol.png style=width:14px;height:14px>, we only produce numbers between 0 and 8. <br /><br />We'll give you one practice question with feedback to make sure you understand the new operation. After that, try to complete the remaining questions as accurately as possible.","orientation_history":[0],"rt":8816,"trial_type":"polygon-arrow-instructions","trial_index":0,"trial_index_global":45,"time_elapsed":439902,"internal_chunk_id":"0-0"},{"nsides":9,"question":"Practice: What is 5 <img src=./images/nonagon_symbol.png style=width:14px;height:14px> 5?","response_type":"free","response_choices":[],"correct_response":"1","response":"1","orientation_history":[[0],[3.522099030702158,3.522099030702158,3.522099030702158,3.522099030702158,3.522099030702158,3.522099030702158,3.522099030702158,3.522099030702158,3.522099030702158,3.522099030702158,3.522099030702158,3.490658503988659],[4.225489748573421,4.225489748573421,4.225489748573421,4.225489748573421,4.225489748573421,4.225489748573421,4.225489748573421,4.1887902047863905],[4.936412627422613,4.933703422732481,4.933703422732481,4.945568781031506,4.945568781031506,4.945568781031506,4.945568781031506,4.886921905584122],[5.342034163030846,5.342034163030846,5.342034163030846,5.342034163030846,5.342034163030846,5.360445866315204,5.585053606381854],[5.933329705322488,5.933329705322488,5.933329705322488,5.933329705322488,5.933329705322488,5.945307118939308,6.283185307179586],[0.6510767214444797,0.6510767214444797,0.6510767214444797,0.6510767214444797,0.6510767214444797,0.6510767214444797,0.6510767214444797,0.6981317007977318]],"response_history":["1"],"rt":8188,"trial_type":"polygon-arrow-question","trial_index":0,"trial_index_global":46,"time_elapsed":448091,"internal_chunk_id":"0-0.12-0"},{"nsides":9,"feedback":"Correct! 5 <img src=./images/nonagon_symbol.png style=width:14px;height:14px> 5 = 1 because 5 steps clockwise on the nonagon from 5 brings us to 1","orientation_history":[0],"rt":1518728,"trial_type":"polygon-arrow-feedback","trial_index":0,"trial_index_global":47,"time_elapsed":1966821,"internal_chunk_id":"0-0.12-0"},{"nsides":9,"question":"What is 3 <img src=./images/nonagon_symbol.png style=width:14px;height:14px> 3?","response_type":"free","response_choices":[],"correct_response":"6","response":"6","orientation_history":[[0],[2.0710767550197486,2.0710767550197486,2.0710767550197486,2.0710767550197486,2.0710767550197486,2.0710767550197486,2.0943951023931953],[2.9648837975197564,2.9648837975197564,2.9648837975197564,2.9648837975197564,2.9648837975197564,2.9648837975197564,2.9648837975197564,2.792526803190927],[3.4706423484301325,3.4706423484301325,3.4706423484301325,3.4706423484301325,3.4706423484301325,3.4706423484301325,3.4706423484301325,3.490658503988659],[4.165600139495442,4.165600139495442,4.165600139495442,4.165600139495442,4.165600139495442,4.165600139495442,4.165600139495442,4.1887902047863905]],"response_history":["6"],"rt":9982,"trial_type":"p olygon-a rrow-question","trial_index":0,"trial_index_global":48,"time_elapsed":1976810,"internal_chunk_id":"0-0.12-0"},{"nsides":9,"question":"What is 7 <img src=./images/nonagon_symbol.png style=width:14px;height:14px> 4?","response_type":"free","response_choices":[],"correct_response":"2","response":"2","orientation_history":[[0],[4.957367643511554,4.957367643511554,4.979648078540601,4.979648078540601,4.979648078540601,4.979648078540601,4.979648078540601,4.886921905584122],[5.577617129494375,5.577617129494375,5.577617129494375,5.577617129494375,5.577617129494375,5.577617129494375,5.577617129494375,5.586661318595246,5.585053606381854],[5.974534440102721,5.974534440102721,5.974534440102721,5.974534440102721,5.974534440102721,5.974534440102721,5.974534440102721,6.283185307179586],[0.4576596566168929,0.4576596566168929,0.4576596566168929,0.4576596566168929,0.4576596566168929,0.4576596566168929,0.4576596566168929,0.4576596566168929,0.6981317007977318],[1.3952041648447162,1.3952041648447162,1.4108832036366774,1.4266419396817422,1.4266419396817422,1.4266419396817422,1.4266419396817422,1.4266419396817422,1.4266419396817422,1.4266419396817422,1.3962634015954636]],"response_history":["2"],"rt":7181,"trial_type":"polygon-arrow-question","trial_index":0,"trial_index_global":49,"time_elapsed":1983995,"internal_chunk_id":"0-0.12-0"},{"nsides":9,"question":"What is 1 <img src=./images/nonagon_symbol.png style=width:14px;height:14px> 8?","response_type":"free","response_choices":[],"correct_response":"0","response":"0","orientation_history":[[0],[0.4756952188549921,0.4756952188549921,0.4756952188549921,0.4756952188549921,0.4756952188549921,0.4756952188549921,0.4756952188549921,0.4756952188549921,0.4756952188549921,0.4756952188549921,0.6981317007977318],[1.3687711703913041,1.3687711703913041,1.3687711703913041,1.3687711703913041,1.3687711703913041,1.3687711703913041,1.3687711703913041,1.3962634015954636],[2.0710767550197486,2.0710767550197486,2.0710767550197486,2.0710767550197486,2.0710767550197486,2.0710767550197486,2.0710767550197486,2.0710767550197486,2.0710767550197486,2.0943951023931953],[2.816096798353315,2.816096798353315,2.816096798353315,2.816096798353315,2.792526803190927],[3.4633432079864352,3.4633432079864352,3.4633432079864352,3.4633432079864352,3.4633432079864352,3.4633432079864352,3.4633432079864352,3.490658503988659],[4.213929569918011,4.213929569918011,4.213929569918011,4.213929569918011,4.213929569918011,4.213929569918011,4.213929569918011,4.213929569918011,4.213929569918011,4.1887902047863905],[4.884149131712893,4.884149131712893,4.884149131712893,4.884149131712893,4.884149131712893,4.884149131712893,4.884149131712893,4.884149131712893,4.886921905584122],[5.441845572548576,5.441845572548576,5.441845572548576,5.441845572548576,5.441845572548576,5.441845572548576,5.450204040505154,5.457808456658848,5.585053606381854],[0.01162738295638377,0.01162738295638377,0,0,0,0,0,0,0]],"response_history":["0"],"rt":19071,"trial_type":"polygo n-arrow-question","trial_index":0,"trial_index_global":50,"time_elapsed":2003066,"internal_chunk_id":"0-0.12-0"},{"nsides":9,"question":"What is 5 <img src=./images/nonagon_symbol.png style=width:14px;height:14px> 4?","response_type":"free","response_choices":[],"correct_response":"0","response":"0","orientation_history":[[0],[3.524199867947593,3.524199867947593,3.524199867947593,3.524199867947593,3.524199867947593,3.524199867947593,3.524199867947593,3.524199867947593,3.490658503988659],[4.260235118098914,4.260235118098914,4.260235118098914,4.260235118098914,4.260235118098914,4.260235118098914,4.260235118098914,4.260235118098914,4.1887902047863905],[4.861948720258393,4.861948720258393,4.861948720258393,4.861948720258393,4.861948720258393,4.861948720258393,4.861948720258393,4.861948720258393,4.886921905584122],[5.387129922608242,5.387129922608242,5.387129922608242,5.387129922608242,5.387129922608242,5.585053606381854],[6.209246269521646,6.209246269521646,6.209246269521646,6.209246269521646,6.209246269521646,6.209246269521646,6.209246269521646,6.209246269521646,6.283185307179586]],"response_history":["0"],"rt":6231,"trial_type":"polygon-arrow-question","trial_index":0,"trial_index_global":51,"time_elapsed":2009299,"internal_chunk_id":"0-0.12-0"},{"nsides":9,"question":"What is 6 <img src=./images/nonagon_symbol.png style=width:14px;height:14px> 6?","response_type":"free","response_choices":[],"correct_response":"3","response":"3","orientation_history":[[0],[3.8775262483856503,3.8775262483856503,3.8870121298639515,3.8870121298639515,3.8870121298639515,3.8870121298639515,3.8870121298639515,3.8870121298639515,3.8870121298639515,4.1887902047863905],[5.0078298175284095,5.0078298175284095,5.0078298175284095,5.0078298175284095,5.0078298175284095,5.0078298175284095,5.034139534781332,5.051681594838734,4.886921905584122],[5.724585991836024,5.724585991836024,5.724585991836024,5.724585991836024,5.724585991836024,5.724585991836024,5.724585991836024,5.724585991836024,5.585053606381854],[6.192525419978841,6.192525419978841,6.192525419978841,6.192525419978841,6.192525419978841,6.192525419978841,6.283185307179586],[0.5364354576047312,0.5364354576047312,0.5364354576047312,0.5364354576047312,0.5364354576047312,0.5364354576047312,0.5364354576047312,0.5364354576047312,0.6981317007977318],[1.3363806510710858,1.3363806510710858,1.3363806510710858,1.3363806510710858,1.3363806510710858,1.3363806510710858,1.3363806510710858,1.3363806510710858,1.3962634015954636],[2.2167544331010074,2.2167544331010074,2.2167544331010074,2.2167544331010074,2.2167544331010074,2.2167544331010074,2.2167544331010074,2.0943951023931953]],"response_history":["3"],"rt":8145,"trial_type":"polygon-arrow-question","trial_index":0,"trial_index_global":52,"time_elapsed":2017446,"internal_chunk_id":"0-0.12-0"},{"nsides":9,"question":"What is 4 <img src=./images/nonagon_symbol.png style=width:14px;height:14px> 1? Please explain in words how you got your answer.","response_type":"free","response_choices":[],"correct_response":"","response":"5","orientation_history":[[0],[2.8078904770522426,2.8119682461690507,2.8119682461690507,2.8119682461690507,2.8119682461690507,2.8119682461690507,2.8119682461690507,2.792526803190927],[3.610559361362115,3.610559361362115,3.610559361362115,3.610559361362115,3.610559361362115,3.610559361362115,3.610559361362115,3.610559361362115,3.610559361362115,3.490658503988659]],"response_history":["5"],"rt":6575,"trial_type":"polygon-arrow-question","trial_index":0,"trial_index_global":53,"time_elapsed":2024022,"internal_chunk_id":"0-0.12-0"},{"nsides":9,"question":"What is 8 <img src=./images/nonagon_symbol.png style=width:14px;height:14px> 4? Please explain in words how you got your answer.","response_type":"free","response_choices":[],"correct_response":"","response":"3","orientation_history":[[0],[5.48893781726588,5.48893781726588,5.48893781726588,5.48893781726588,5.48893781726588,5.48893781726588,5.48893781726588,5.585053606381854],[6.098642509988972,6.098642509988972,6.098642509988972,6.098642509988972,6.098642509988972,6.098642509988972,6.098642509988972,6.098642509988972,6.283185307179586],[0.671390871004106,0.671390871004106,0.671390871004106,0.671390871004106,0.671390871004106,0.671390871004106,0.671390871004106,0.671390871004106,0.6981317007977318],[1.4789502005301591,1.4789502005301591,1.4789502005301591,1.4789502005301591,1.4789502005301591,1.4789502005301591,1.3962634015954636],[2.0449147573003996,2.0449147573003996,2.0449147573003996,2.0449147573003996,2.0449147573003996,2.0449147573003996,2.0449147573003996,2.0943951023931953]],"response_history":["3"],"rt":7038,"trial_type":"polygon-arrow-question","trial_index":0,"trial_index_global":54,"time_elapsed":2031062,"internal_chunk_id":"0-0.12-0"},{"nsides":9,"question":"What is the identity under <img src=./images/nonagon_symbol.png style=width:14px;height:14px>? Please explain in words how you got your answer.","response_type":"f ree","response_choices":[],"correct_response":"0","response":"The identity is 0, because it doesn't move. ","orientation_history":[[0]],"response_history":["The identity is 0. ","The identity is 0.","The identity is 0, because it doesn't move. "],"rt":37493,"trial_type":"polygon-arrow-question","trial_index":0,"trial_index_global":55,"time_elapsed":2068556,"internal_chunk_id":"0-0.12-0"},{"nsides":9,"question":"What is the inverse of 5 under <img src=./images/nonagon_symbol.png style=width:14px;height:14px>?","response_type":"free","response_choices":[],"correct_response":"4","response":"4","orientation_history":[[0],[3.277731614442934,3.277731614442934,3.277731614442934,3.277731614442934,3.277731614442934,3.277731614442934,3.277731614442934,3.277731614442934,3.277731614442934,3.490658503988659],[4.181358875540507,4.181358875540507,4.181358875540507,4.181358875540507,4.181358875540507,4.181358875540507,4.181358875540507,4.193242866138167,4.1887902047863905],[5.01527384875966,5.01527384875966,5.01527384875966,5.01527384875966,5.01527384875966,5.01527384875966,5.026620879469028,4.886921905584122],[5.435919297917758,5.435919297917758,5.435919297917758,5.435919297917758,5.435919297917758,5.435919297917758,5.435919297917758,5.444266875322823,5.585053606381854],[6.018142447282131,6.018142447282131,6.018142447282131,6.018142447282131,6.018142447282131,6.018142447282131,6.018142447282131,6.283185307179586]],"response_history":["4"],"rt":7381,"trial_type":"polygon-arrow-question","trial_index":0,"trial_index_global":56,"time_elapsed":2075940,"internal_chunk_id":"0-0.12-0"},{"nsides":9,"question":"What is the inverse of 2 under <img src=./images/nonagon_symbol.png style=width:14px;height:14px>?","response_type":"free","response_choices":[],"correct_response":"7","response":"7","orientation_history":[[0],[1.1606689862534056,1.1606689862534056,1.1606689862534056,1.1606689862534056,1.1606689862534056,1.1606689862534056,1.1606689862534056,1.1606689862534056,1.1606689862534056,1.3962634015954636],[2.2498016354934407,2.2498016354934407,2.2498016354934407,2.2498016354934407,2.2498016354934407,2.2498016354934407,2.0943951023931953],[2.875340604438868,2.875340604438868,2.875340604438868,2.875340604438868,2.875340604438868,2.792526803190927],[3.4358272187009806,3.4633432079864352,3.4633432079864352,3.4633432079864352,3.4633432079864352,3.4633432079864352,3.4633432079864352,3.4633432079864352,3.490658503988659],[4.167525064933146,4.167525064933146,4.167525064933146,4.167525064933146,4.167525064933146,4.167525064933146,4.167525064933146,4.167525064933146,4.178680788745428,4.1887902047863905],[5.034139534781332,5.034139534781332,5.034139534781332,5.034139534781332,5.034139534781332,5.034139534781332,5.045633281496363,4.886921905584122],[5.56311461340549,5.56311461340549,5.56311461340549,5.56311461340549,5.56311461340549,5.571726181440078,5.571726181440078,5.585053606381854],[6.047640326458723,6.047640326458723,6.047640326458723,6.047640326458723,6.047640326458723,6.283185307179586]],"response_history":["7"],"rt":8135,"trial_type":"polygon-arrow-question","trial_index":0,"trial_index_global":57,"time_elapsed":2084076,"internal_chunk_id":"0-0.12-0"},{"nsides":9,"question":"What is the inverse of 0 under <img src=./images/nonagon_symbol.png style=width:14px;height:14px>?","response_type":"free","response_choices":[],"correct_response":"0","response":"0","orientation_history":[[0]],"response_history":["0"],"rt":7230,"trial_type":"polygon-arrow-question","trial_index":0,"trial_index_global":58,"time_elapsed":2091308,"internal_chunk_id":"0-0.12-0"},{"nsides":9,"question":"What is the inverse of 3 under <img src=./images/nonagon_symbol.png style=width:14px;height:14px>? Please explain in words how you got your answer.","response_type":"free","response_choices":[],"correct_response":"","response":"6","orientation_history":[[0],[1.9942357329546159,1.9942357329546159,1.9942357329546159,1.9942357329546159,1.9942357329546159,1.9942357329546159,1.9942357329546159,1.9942357329546159,1.9942357329546159,1.9942357329546159,1.9942357329546159,1.9942357329546159,2.0943951023931953],[2.7367008673047097,2.7367008673047097,2.7367008673047097,2.7367008673047097,2.7367008673047097,2.7367008673047097,2.792526803190927],[3.572285164976301,3.572285164976301,3.572285164976301,3.572285164976301,3.572285164976301,3.572285164976301,3.490658503988659],[4.116604432761631,4.116604432761631,4.116604432761631,4.116604432761631,4.116604432761631,4.116604432761631,4.116604432761631,4.116604432761631,4.1887902047863905],[4.928155176791732,4.928155176791732,4.928155176791732,4.928155176791732,4.928155176791732,4.928155176791732,4.928155176791732,4.928155176791732,4.886921905584122],[5.448322575180546,5.448322575180546,5.448322575180546,5.448322575180546,5.448322575180546,5.448322575180546,5.585053606381854],[6.238439075724971,6.238439075724971,6.238439075724971,6.238439075724971,6.238439075724971,6.238439075724971,6.283185307179586]],"response_history":["6"],"rt":16024,"trial_type":"polygon-arrow-question","trial_index":0,"trial_index_global":59,"time_elapsed":2107333,"internal_chunk_id":"0-0.12-0"},{"nsides":9,"question":"Is 2 a generator under <img src=./images/nonagon_symbol.png style=width:14px;height:14px>? Please explain in words how you got your answer.","response_type":"free","response_choices":[],"correct_response":"","response":"No because it doesn't generate. ","orientation_history":[[0],[1.1332865546774435,1.1270136540452553,1.1270136540452553,1.1270136540452553,1.1270136540452553,1.1270136540452553,1.1270136540452553,1.1270136540452553,1.1270136540452553,1.1270136540452553,1.1270136540452553,1.3962634015954636]],"response_history":["No because it doesn't generate. "],"rt":21351,"trial_type":"polygon-arrow-question","trial_index":0,"trial_index_global":60,"time_elapsed":2128685,"internal_chunk_id":"0-0.12-0"},{"nsides":9,"question":"Is 3 a generator under <img src=./imag es/nonag on_symbol.png style=width:14px;height:14px>? Please explain in words how you got your answer.","response_type":"free","response_choices":[],"correct_response":"","response":"Yes because it does generate. ","orientation_history":[[0]],"response_history":["Yes e","Yes because it does generate. "],"rt":10559,"trial_type":"polygon-arrow-question","trial_index":0,"trial_index_global":61,"time_elapsed":2139246,"internal_chunk_id":"0-0.12-0"},{"nsides":9,"question":"Is 5 a generator under <img src=./images/nonagon_symbol.png style=width:14px;height:14px>? Please explain in words how you got your answer.","response_type":"free","response_choices":[],"correct_response":"","response":"No because it doesn't generate.","orientation_history":[[0]],"response_history":["No because it doesn't generate."],"rt":36814,"trial_type":"polygon-arrow-question","trial_index":0,"trial_index_global":62,"time_elapsed":2176062,"internal_chunk_id":"0-0.12-0"},{"nsides":9,"question":"Is 6 a  generato r under <img src=./images/nonagon_symbol.png style=width:14px;height:14px>? Please explain in words how you got your answer.","response_type":"free","response_choices":[],"correct_response":"","response":"No because it doesn't generate.","orientation_history":[[0]],"response_history":["No because it doesn't generate."],"rt":2750,"trial_type":"polygon-arrow-question","trial_index":0,"trial_index_global":63,"time_elapsed":2178814,"internal_chunk_id":"0-0.12-0"},{"nsides":"n","instructions":"Now we'd like to ask you some questions about <img src=./images/ngon_symbol.png style=width:14px;height:14px>, where n could be any positive counting number. For example, n could be 3, and the polygon a triangle, or n could be any other counting number you can think of. If you need to write the operation, you can use (n), and your answers can include n to stand in for the arbitrary value if necessary. (You can use the polygon at the right to think, but it doesn't necessa rily cor respond to the real polygon, which is why we've left most of it dashed.)","orientation_history":[0],"rt":13456,"trial_type":"polygon-arrow-instructions","trial_index":0,"trial_index_global":64,"time_elapsed":2192273,"internal_chunk_id":"0-0"},{"nsides":"n","question":"What is the formula for the inverse of 1 under <img src=./images/ngon_symbol.png style=width:14px;height:14px>?","response_type":"free","response_choices":[],"correct_response":"n-1","response":"1 n 26","orientation_history":[[0],[0.48312566481733366,0.48312566481733366,0.48312566481733366,0.48312566481733366,0.48312566481733366,0.48312566481733366,0.48312566481733366,0.48312566481733366,0.48312566481733366],[0.21711131473490508,0.21711131473490508,0.21711131473490508,0.21711131473490508,0.21711131473490508,0.21711131473490508,0.21711131473490508,0.21711131473490508,0.21711131473490508,0.21711131473490508,0.21711131473490508,0.21711131473490508,0.21711131473490508],[0.043450895391530686,0.043450895391530686,0.043450895391530686,0.043450895391530686,0.043450895391530686,0.043450895391530686,0.043450895391530686,0.043450895391530686,0.043450895391530686,0.043450895391530686,0.043450895391530686,0.043450895391530686],[0.5649044020307765,0.5649044020307765,0.5649044020307765,0.5649044020307765,0.5649044020307765,0.5649044020307765,0.5649044020307765,0.5649044020307765,0.5649044020307765],[1.120135000714263,1.120135000714263,1.120135000714263,1.120135000714263,1.120135000714263,1.120135000714263,1.120135000714263],[1.4618543698050308,1.4618543698050308,1.4618543698050308,1.4618543698050308,1.4618543698050308,1.4618543698050308,1.4618543698050308,1.4618543698050308,1.4618543698050308],[1.666394445458737,1.666394445458737,1.666394445458737,1.666394445458737,1.666394445458737,1.666394445458737,1.666394445458737],[1.8799952391219712,1.8799952391219712,1.8799952391219712,1.8799952391219712,1.8799952391219712,1.8799952391219712,1.8799952391219712,1.8799952391219712,1.8799952391219712],[2.1393208745259367,2.1393208745259367,2.1393208745259367,2.1393208745259367,2.1393208745259367,2.1393208745259367,2.1393208745259367,2.1393208745259367],[2.331406180155045,2.3395293664784043,2.3395293664784043,2.3395293664784043,2.3395293664784043,2.3479302155326938],[2.5661680030545084,2.5661680030545084,2.5661680030545084,2.5661680030545084,2.5661680030545084,2.5661680030545084,2.5722794624891314,2.5722794624891314],[2.7319465449649556,2.7319465449649556,2.7319465449649556,2.7319465449649556,2.7319465449649556,2.7319465449649556,2.7367008673047097,2.7367008673047097],[2.8732264426838863,2.8732264426838863,2.8732264426838863,2.8848843231564074,2.8848843231564074,2.8879185574511506,2.899520959018674,2.899520959018674],[3.2104491428908375,3.2104491428908375,3.2104491428908375,3.2104491428908375,3.2104491428908375,3.2104491428908375,3.2104491428908375],[3.4198923125949046,3.4198923125949046,3.4198923125949046,3.430863659198935,3.430863659198935,3.430863659198935,3.430863659198935,3.430863659198935,3.430863659198935,3.430863659198935,3.430863659198935],[3.6245615294463547,3.6245615294463547,3.6245615294463547,3.6245615294463547,3.6245615294463547,3.6245615294463547,3.6245615294463547,3.6245615294463547,3.6245615294463547],[3.7850937623830774,3.7850937623830774,3.79346176789537,3.79346176789537,3.79346176789537,3.79346176789537,3.79346176789537,3.79346176789537,3.79346176789537,3.79346176789537,3.79346176789537,3.799860621424518],[4.004957450818784,4.004957450818784,4.004957450818784,4.004957450818784,4.004957450818784,4.004957450818784,4.004957450818784,4.004957450818784],[4.203087836382678,4.203087836382678,4.203087836382678,4.203087836382678,4.203087836382678,4.203087836382678,4.203087836382678],[4.488912379244057,4.488912379244057,4.488912379244057,4.488912379244057,4.488912379244057,4.488912379244057,4.488912379244057,4.488912379244057,4.488912379244057],[4.655631822562596,4.655631822562596,4.655631822562596,4.655631822562596,4.655631822562596,4.655631822562596,4.655631822562596,4.655631822562596,4.655631822562596,4.655631822562596],[4.870157717980644,4.870157717980644,4.870157717980644,4.870157717980644,4.8812208823958105,4.8812208823958105],[5.034139534781332,5.034139534781332,5.034139534781332,5.034139534781332,5.034139534781332,5.034139534781332,5.034139534781332,5.034139534781332,5.034139534781332],[5.243566599610454,5.243566599610454,5.243566599610454,5.243566599610454,5.243566599610454,5.243566599610454,5.243566599610454,5.243566599610454,5.243566599610454],[5.522991889109079,5.522991889109079,5.522991889109079,5.522991889109079,5.522991889109079,5.522991889109079,5.522991889109079,5.522991889109079,5.522991889109079,5.522991889109079],[5.635373880252487,5.635373880252487,5.635373880252487,5.635373880252487,5.635373880252487,5.635373880252487,5.635373880252487,5.635373880252487,5.635373880252487,5.635373880252487],[5.7981505853270505,5.7981505853270505,5.7981505853270505,5.7981505853270505,5.7981505853270505,5.7981505853270505,5.7981505853270505,5.7981505853270505,5.808785424387679],[6.029919540948834,6.029919540948834,6.029919540948834,6.029919540948834,6.029919540948834,6.029919540948834,6.029919540948834,6.029919540948834,6.029919540948834,6.029919540948834,6.029919540948834,6.029919540948834],[0.0117641631497587,0.0117641631497587,0.0117641631497587,0.0117641631497587,0,0,0,0,0,0,0,0]],"response_history":["1n26","1n2","1n","1","1 ","1","1 n 26"],"rt":60422,"trial_type":"polygon-arrow-question","trial_index":0,"trial_index_global":65,"time_elapsed":2252697,"internal_chunk_id":"0-0.14-0"},{"nsides":"n","question":"What is the formula for the inverse of an element x under <img src=./images/ngon_symbol.png style=width:14px;height:14px>? Please explain in words why your answer is correct.","response_type":"free","response_choices":[],"correct_response":"n-x","response":"I really don't know","orientation_history":[[0]],"response_history":["I really don't know"],"rt":22184,"trial_type":"polygon-arrow-questi on","trial_index":0,"trial_index_global":66,"time_elapsed":2274882,"internal_chunk_id":"0-0.14-0"},{"nsides":"n","question":"Is there a pattern to which elements are generators? How can you know if an element x is a generator under <img src=./images/ngon_symbol.png style=width:14px;height:14px> without seeing whether it can make all the elements?.","response_type":"free","response_choices":[],"correct_response":"","response":"By counting the steps.","orientation_history":[[0]],"response_history":["By counting the steps."],"rt":13238,"trial_type":"polygon-arrow-question","trial_index":0,"trial_index_global":67,"time_elapsed":2288122,"internal_chunk_id":"0-0.14-0"},{"nsides":"n","question":"True or false: If x is an odd number, it must be a generator under <img src=./images/ngon_symbol.png style=width:14px;height:14px>.","response_type":"multi","response_choices":["True","False"],"correct_response":"False","response":"False","orientation_history":[[0]],"response_history":["Fal se"],"rt":5983,"trial_type":"polygon-arrow-question","trial_index":0,"trial_index_global":68,"time_elapsed":2294106,"internal_chunk_id":"0-0.14-0"},{"nsides":"n","question":"True or false: If x is an even number, it must not be a generator under <img src=./images/ngon_symbol.png style=width:14px;height:14px>.","response_type":"multi","response_choices":["True","False"],"correct_response":"False","response":"False","orientation_history":[[0]],"response_history":["False"],"rt":3343,"trial_type":"polygon-arrow-question","trial_index":0,"trial_index_global":69,"time_elapsed":2297450,"internal_chunk_id":"0-0.14-0"},{"nsides":"n","question":"True or false: If x is not a generator under <img src=./images/ngon_symbol.png style=width:14px;height:14px>, x must be a divisor of n, that is, x must divide n evenly, with no remainder.","response_type":"multi","response_choices":["True","False"],"correct_response":"False","response":"True","orientation_history":[[0]],"response_history":["True"],"rt":14237,"trial_type":"polygon-arrow-question","trial_index":0,"trial_index_global":70,"time_elapsed":2311688,"internal_chunk_id":"0-0.14-0"},{"nsides":"n","question":"True or false: If x is not a generator under <img src=./images/ngon_symbol.png style=width:14px;height:14px>, x must be a multiple of a divisor of n. Please explain in words why your answer is correct.","response_type":"free","response_choices":[],"correct_response":"True","response":"Because it must be able to fit into n.","orientation_history":[[0]],"response_history":["Because it must be able to fit into n."],"rt":25303,"trial_type":"polygon-arrow-question","trial_index":0,"trial_index_global":71,"time_elapsed":2336993,"internal_chunk_id":"0-0.14-0"},{"nsides":"n","question":"If an element x is a generator under <img src=./images/ngon_symbol.png style=width:14px;height:14px>, is its inverse a generator under <img src=./images/ngon_symbol.png style=width:14px;height:14px> alway s, sometimes, or never?","response_type":"multi","response_choices":["Always","Sometimes","Never"],"correct_response":"Always","response":"Sometimes","orientation_history":[[0]],"response_history":["Sometimes"],"rt":8111,"trial_type":"polygon-arrow-question","trial_index":0,"trial_index_global":72,"time_elapsed":2345105,"internal_chunk_id":"0-0.14-0"},{"nsides":"n","question":"If an element x is a generator under <img src=./images/ngon_symbol.png style=width:14px;height:14px>, is x <img src=./images/ngon_symbol.png style=width:14px;height:14px> x a generator under <img src=./images/ngon_symbol.png style=width:14px;height:14px> always, sometimes, or never? Please explain in words why your answer is correct.","response_type":"free","response_choices":[],"correct_response":"Sometimes","response":"It sometimes might, depending on the number. ","orientation_history":[[0]],"response_history":["It sometimes might, depending on the number. "],"rt":37622,"trial_type":"polygon-arrow-question","trial_index":0,"trial_index_global":73,"time_elapsed":2382728,"internal_chunk_id":"0-0.14-0"},{"nsides":"n","question":"If an element x is not a generator under <img src=./images/ngon_symbol.png style=width:14px;height:14px>, is x <img src=./images/ngon_symbol.png style=width:14px;height:14px> x a generator under <img src=./images/ngon_symbol.png style=width:14px;height:14px> always, sometimes, or never?","response_type":"multi","response_choices":["Always","Sometimes","Never"],"correct_response":"Never","response":"Never","orientation_history":[[0]],"response_history":["Sometimes","Never"],"rt":9309,"trial_type":"polygon-arrow-question","trial_index":0,"trial_index_global":74,"time_elapsed":2392039,"internal_chunk_id":"0-0.14-0"},{"instructions":"We would like to ask you some questions about your background. Please press Continue to continue.","rt":2126,"trial_type":"instructions","trial_index":0,"trial_index_global":75,"time_elapsed":2394167,"internal_chunk_id":"0-0.15-0"},{"question":"What is your age?","response_type":"free","response_choices":[],"correct_response":"","response":"32","response_history":["32"],"rt":3056,"trial_type":"question","trial_index":0,"trial_index_global":76,"time_elapsed":2397225,"internal_chunk_id":"0-0.15-0"},{"question":"What is your level of education?","response_type":"multi","response_choices":["Did not graduate high school","High school diploma","Some college, no degree","Associates Degree","Bachelors Degree","Some graduate school, no degree","Masters Degree","Doctorate, M.D., etc."],"correct_response":"","response":"High school diploma","response_history":["High school diploma"],"rt":4731,"trial_type":"question","trial_index":0,"trial_index_global":77,"time_elapsed":2401959,"internal_chunk_id":"0-0.15-0"},{"question":"What is the most advanced math class you've completed? If you have multiple classes and you're not sure which one is most advanced, please list the m.","response_type":"free","response_choices":[],"correct_response":"","response":"algebra 3","response_history":["algebra 3"],"rt":13710,"trial_type":"question","trial_index":0,"trial_index_global":78,"time_elapsed":2415671,"internal_chunk_id":"0-0.15-0"},{"question":"How familiar are you with the concept of modular arithmetic?","response_type":"multi","response_choices":["1 - never heard of it","2 - heard of it but didn't know what it was","3 - seen it used or explained","4 - used it but not often or recently","5 - used it, remember and understand it"],"correct_response":"1","response":"1 - never heard of it","response_history":["1 - never heard of it"],"rt":4759,"trial_type":"question","trial_index":0,"trial_index_global":79,"time_elapsed":2420431,"internal_chunk_id":"0-0.15-0"},{"question":"How familiar are you with the concept of a mathematical group?","response_type":"multi","response_choices":["1 - never heard of it","2 - heard of it but didn't know what it was","3 - seen it  used or  explained","4 - used it but not often or recently","5 - used it, remember and understand it"],"correct_response":"1","response":"4 - used it but not often or recently","response_history":["4 - used it but not often or recently"],"rt":6995,"trial_type":"question","trial_index":0,"trial_index_global":80,"time_elapsed":2427429,"internal_chunk_id":"0-0.15-0"},{"question":"Do you feel you learned something from this HIT?","response_type":"multi","response_choices":["1 - not at all","2 - somewhat","3 - definitely"],"correct_response":"1","response":"2 - somewhat","response_history":["2 - somewhat"],"rt":118726,"trial_type":"question","trial_index":0,"trial_index_global":81,"time_elapsed":2546156,"internal_chunk_id":"0-0.15-0"},{"question":"Do you feel you understood the concepts in this HIT?","response_type":"multi","response_choices":["1 - not at all","2 - somewhat","3 - definitely"],"correct_response":"1","response":"2 - somewhat","response_history":["2 - somewhat"],"rt":2958,"trial_type":"question","trial_index":0,"trial_index_global":82,"time_elapsed":2549116,"internal_chunk_id":"0-0.15-0"},{"question":"Did you enjoy this HIT?","response_type":"multi","response_choices":["1 - not at all","2 - somewhat","3 - definitely"],"correct_response":"1","response":"3 - definitely","response_history":["3 - definitely"],"rt":38368,"trial_type":"question","trial_index":0,"trial_index_global":83,"time_elapsed":2587485,"internal_chunk_id":"0-0.15-0"},{"question":"What is your gender?","response_type":"multi","response_choices":["Female","Male","Other"],"correct_response":"","response":"Female","response_history":["Female"],"rt":2438,"trial_type":"question","trial_index":0,"trial_index_global":84,"time_elapsed":2589925,"internal_chunk_id":"0-0.15-0"},{"question":"What is/are your native language(s)? (The languages spoken in your household when you were a child.)","response_type":"free","response_choices":[],"correct_response":"","response":"English","response_history":[" English"],"rt":7621,"trial_type":"question","trial_index":0,"trial_index_global":85,"time_elapsed":2597548,"internal_chunk_id":"0-0.15-0"},{"question":"Did you use pen and paper at any point on this HIT?","response_type":"free","response_choices":[],"correct_response":"","response":"no","response_history":["no"],"rt":3927,"trial_type":"question","trial_index":0,"trial_index_global":86,"time_elapsed":2601477,"internal_chunk_id":"0-0.15-0"},{"question":"Do you have any comments on this HIT?","response_type":"free","response_choices":[],"correct_response":"","response":"nice HIT","response_history":["nice HIT"],"rt":5111,"trial_type":"question","trial_index":0,"trial_index_global":87,"time_elapsed":2606589,"internal_chunk_id":"0-0.15-0"}]