[{"nsides":6,"instructions":"Let's define a new operation <img src=./images/hexagon_symbol.png style=width:14px;height:14px>. This operation will give us a way of combining two of the numbers 0, 1, 2, 3, 4, 5 to get another one of them back. To perform <img src=./images/hexagon_symbol.png style=width:14px;height:14px>, you can either use a method based on the hexagon at right, or a method based on arithmetic.<br /><b>Hexagon method:</b> you can use the interactive diagram on the right, or perform the operation in your mind. Point the arrow at the first number on the hexagon by clicking, then click (or click and drag) to move the arrow the second number of points clockwise around the hexagon. The number the arrow arrives at is your result. (The operation is called <img src=./images/hexagon_symbol.png style=width:14px;height:14px> because it uses the hexagon, which has 6 sides.) <br ><b>Arithmetic method:</b> you start with the first number, and then add  the sec ond one to it. If the sum is smaller than 6, that's your result. If the sum is 6 or bigger, you subtract 6 to get your result. <br /><br />For example, 3 <img src=./images/hexagon_symbol.png style=width:14px;height:14px> 5 = 2, because 5 steps clockwise from 3 on the hexagon brings us to 2. Equivalently, 3 + 5 = 8, and 8 is bigger than 6, so we subtract 6, and 8 - 6 = 2. So 3 <img src=./images/hexagon_symbol.png style=width:14px;height:14px> 5 = 2.<br /><br />Similarly, 1 <img src=./images/hexagon_symbol.png style=width:14px;height:14px> 4 = 5, because 1 + 4 = 5, and 5 is less than 6 so we leave it alone. Equivalently, 4 steps clockwise from 1 on the hexagon brings us to 5. <br /><br />Click Continue when you're ready to move on.","orientation_history":[0],"rt":79106,"trial_type":"polygon-arrow-instructions","trial_index":0,"trial_index_global":1,"time_elapsed":91702,"internal_chunk_id":"0-0"},{"nsides":6,"instructions":"Do you see how the differe nt ways  of performing <img src=./images/hexagon_symbol.png style=width:14px;height:14px> give the same result? By labeling the points of the hexagon with the numbers from 0 to 5, we ensure that when we combine two numbers using the hexagon, we only produce numbers between 0 and 5. When we use the arithmetic strategy, adding the second number to the first mimics counting around the hexagon, and subtracting 6 each time we get above 5 makes sure the results correspond to the numbers on the points of the hexagon. <br /><br />Click Continue when you're ready to move on.","orientation_history":[0],"rt":905662,"trial_type":"polygon-arrow-instructions","trial_index":0,"trial_index_global":2,"time_elapsed":997370,"internal_chunk_id":"0-0"},{"nsides":6,"question":"Now try one on your own! What is 4 <img src=./images/hexagon_symbol.png style=width:14px;height:14px> 5? <br /><br /> (Remember, to perform <img src=./images/hexagon_symbol.png style=width:14px;height:14px>, you  can either use a method based on the hexagon at right, or a method based on arithmetic.<br /><br /><b>Hexagon method:</b> you can use the interactive diagram on the right, or perform the operation in your mind. Point the arrow at the first number, then move the arrow the second number of points clockwise around the hexagon. The number the arrow arrives at is your result. <br /><br /><b>Arithmetic method:</b> you start with the first number, and then add the second one to it. If the sum is smaller than 6, that's your result. If the sum is 6 or bigger, you subtract 6 to get your result.)","response_type":"free","response_choices":[],"correct_response":"3","response":"3","orientation_history":[[0],[1.0695320619233142,1.0695320619233142,1.0695320619233142,1.0695320619233142,1.0695320619233142,1.0695320619233142,1.0695320619233142,1.0695320619233142,1.0471975511965976],[2.0614643849829672,2.0614643849829672,2.0614643849829672,2.0614643849829672,2.0614643849829672,2.0614643849829672,2.0614643849829672,2.0614643849829672,2.0614643849829672,2.0943951023931953],[4.153789665041128,4.153789665041128,4.153789665041128,4.153789665041128,4.153789665041128,4.153789665041128,4.153789665041128,4.153789665041128,4.153789665041128,4.1887902047863905],[4.992496955682743,4.992496955682743,4.992496955682743,4.992496955682743,4.992496955682743,4.992496955682743,4.992496955682743,4.992496955682743,4.992496955682743,5.235987755982988],[4.201900658467914,4.201900658467914,4.201900658467914,4.201900658467914,4.201900658467914,4.201900658467914,4.201900658467914,4.201900658467914,4.201900658467914,4.1887902047863905],[5.2360736413809335,5.2360736413809335,5.2360736413809335,5.2360736413809335,5.2360736413809335,5.2360736413809335,5.2360736413809335,5.2360736413809335,5.2360736413809335,5.235987755982988]],"response_history":["3"],"rt":247626,"trial_type":"polygon-arrow-question","trial_index":0,"trial_index_global":3,"time_elapsed":1245003,"internal_chunk_id":"0-0.3-0"},{"nsides":6,"feedback":"Correct! 4 <img src=./images/hexagon_symbol.png style=width:14px;height:14px> 5 = 3 because 5 steps clockwise on the hexagon from 4 brings us to 3. Equivalently, 4 + 5 = 9 and 9 - 6 = 3.","orientation_history":[0],"rt":6411,"trial_type":"polygon-arrow-feedback","trial_index":0,"trial_index_global":4,"time_elapsed":1251421,"internal_chunk_id":"0-0.3-0"},{"nsides":6,"question":"What is 3 <img src=./images/hexagon_symbol.png style=width:14px;height:14px> 2? Try to solve this problem using the hexagon. <br /><br /> (Remember, to perform <img src=./images/hexagon_symbol.png style=width:14px;height:14px> on the hexagon, you can use the interactive diagram on the right, or perform the operation in your mind. Point the arrow at the first number on the hexagon, and then move the arrow the second number of points clockwise around the hexagon.)","response_type":"free","response_choices":[],"correct_response":"5","response":"5","orientation_history":[[0],[3.075897852037328,3.075897852037328,3.075897852037328,3.075897852037328,3.075897852037328,3.075897852037328,3.075897852037328,3.075897852037328,3.075897852037328,3.141592653589793],[2.108382973453643,2.108382973453643,2.108382973453643,2.108382973453643,2.108382973453643,2.108382973453643,2.108382973453643,2.108382973453643,2.108382973453643,2.0943951023931953]],"response_history":["5"],"rt":55376,"trial_type":"polygon-arrow-question","trial_index":0,"trial_index_global":5,"time_elapsed":1306800,"internal_chunk_id":"0-0.3-0"},{"nsides":6,"feedback":"Correct! 3 <img src=./images/hexagon_symbol.png style=width:14px;height:14px> 2 = 5 because 2 steps clockwise on the hexagon from 3 brings us to 5. Equivalently, 3 + 2 = 5 and 5 is less than 6.","orientation_history":[0],"rt":6297,"trial_type":"polygon-arrow-feedback","trial_index":0,"trial_index_global":6,"time_elapsed":1313100,"internal_chunk_id":"0-0.3-0"},{"nsides":6,"question":"What is 1 <img src=./images/hexagon_symbol.pn g styl e=width:14px;height:14px> 5? Try to solve this probem using the arithmetic technique. <br /><br /> (Remember, to perform <img src=./images/hexagon_symbol.png style=width:14px;height:14px> by arithmetic, you start with the first number, and then add the second one to it. If the sum is smaller than 6, that's your result. If the sum is 6 or bigger, you subtract 6 to get your result.)","response_type":"free","response_choices":[],"correct_response":"0","response":"9","orientation_history":[[0],[0.9933567106503823,0.9933567106503823,0.9933567106503823,0.9933567106503823,0.9933567106503823,0.9933567106503823,0.9933567106503823,0.9933567106503823,0.9933567106503823,1.0471975511965976],[2.0701430484750265,2.0701430484750265,2.0701430484750265,2.0701430484750265,2.0701430484750265,2.0701430484750265,2.0701430484750265,2.0701430484750265,2.0701430484750265,2.0943951023931953],[3.3336406708305235,3.3336406708305235,3.3336406708305235,3.3336406708305235,3.3336406708305235,3.3336406708305235,3.3336406708305235,3.3336406708305235,3.3336406708305235,3.141592653589793],[4.207828541608444,4.207828541608444,4.207828541608444,4.207828541608444,4.207828541608444,4.207828541608444,4.207828541608444,4.207828541608444,4.1887902047863905],[4.9468046561085,4.9468046561085,4.9468046561085,4.9468046561085,4.9468046561085,4.9468046561085,4.9468046561085,4.9468046561085,4.9468046561085,5.235987755982988]],"response_history":["9"],"rt":35925,"trial_type":"polygon-arrow-question","trial_index":0,"trial_index_global":7,"time_elapsed":1349025,"internal_chunk_id":"0-0.3-0"},{"nsides":6,"feedback":"Sorry, that was incorrect. 1 <img src=./images/hexagon_symbol.png style=width:14px;height:14px> 5 = 0 because 1 + 5 = 6 and 6 - 6 = 0.  Equivalently, 5 steps clockwise on the hexagon from 1 brings us to 0.","orientation_history":[0,[1.0199387922631802,1.0199387922631802,1.0199387922631802,1.0199387922631802,1.0199387922631802,1.0199387922631802,1.0199387922631802,1.0199387922631802,1.0199387922631802,1.0471975511965976],[2.1251038229964476,2.1251038229964476,2.1251038229964476,2.1251038229964476,2.1251038229964476,2.1251038229964476,2.1251038229964476,2.1251038229964476,2.1251038229964476,2.0943951023931953],[3.115957245068116,3.115957245068116,3.115957245068116,3.115957245068116,3.115957245068116,3.115957245068116,3.115957245068116,3.115957245068116,3.141592653589793],[4.065875832507455,4.065875832507455,4.065875832507455,4.065875832507455,4.065875832507455,4.065875832507455,4.065875832507455,4.065875832507455,4.065875832507455,4.1887902047863905],[5.323114944773899,5.323114944773899,5.323114944773899,5.323114944773899,5.323114944773899,5.323114944773899,5.323114944773899,5.323114944773899,5.323114944773899,5.235987755982988],[0.9242831789176613,0.9242831789176613,0.9242831789176613,0.9242831789176613,0.9242831789176613,0.9242831789176613,0.9242831789176613,0.9242831789176613,0.9242831789176613,1.0471975511965976]],"rt":49102,"trial_type":"polygon-a rrow-fee dback","trial_index":0,"trial_index_global":8,"time_elapsed":1398130,"internal_chunk_id":"0-0.3-0"},{"nsides":6,"question":"What is 1 <img src=./images/hexagon_symbol.png style=width:14px;height:14px> 1? Try to solve this problem using the hexagon. <br /><br /> (Remember, to perform <img src=./images/hexagon_symbol.png style=width:14px;height:14px> on the hexagon, you can use the interactive diagram on the right, or perform the operation in your mind. Point the arrow at the first number on the hexagon, and then move the arrow the second number of points clockwise around the hexagon.)","response_type":"free","response_choices":[],"correct_response":"2","response":"2","orientation_history":[[0],[0.9678135704799591,0.9678135704799591,0.9678135704799591,0.9678135704799591,0.9678135704799591,0.9678135704799591,0.9678135704799591,0.9678135704799591,0.9678135704799591,1.0471975511965976]],"response_history":["2"],"rt":10537,"trial_type":"polygon-arrow-question","trial_index":0,"trial_index_global":9,"time_elapsed":1408667,"internal_chunk_id":"0-0.3-0"},{"nsides":6,"feedback":"Correct! 1 <img src=./images/hexagon_symbol.png style=width:14px;height:14px> 1 = 2 because 1 step clockwise on the hexagon from 1 brings us to 2. Equivalently, 1 + 1 = 2 and 2 is less than 6.","orientation_history":[0],"rt":3196,"trial_type":"polygon-arrow-feedback","trial_index":0,"trial_index_global":10,"time_elapsed":1411866,"internal_chunk_id":"0-0.3-0"},{"nsides":6,"question":"What is 3 <img src=./images/hexagon_symbol.png style=width:14px;height:14px> 0? Try to solve this problem using the arithmetic technique. <br /><br /> (Remember, to perform <img src=./images/hexagon_symbol.png style=width:14px;height:14px> using arithmetic, you start with the first number, and then add the second one to it. If the sum is smaller than 6, that's your result. If the sum is 6 or bigger, you subtract 6 to get your result.)","response_type":"free","response_choices":[],"correct_response":"3","response":"3","orientation_history":[[0]],"response_history":["3"],"rt":4865,"trial_type":"polygon-arrow-question","trial_index":0,"trial_index_global":11,"time_elapsed":1416733,"internal_chunk_id":"0-0.3-0"},{"nsides":6,"feedback":"Correct! 3 <img src=./images/hexagon_symbol.png style=width:14px;height:14px> 0 = 3 because 3 + 0 = 3 and 3 - 6 = 3.  Equivalently, 0 steps clockwise on the hexagon from 3 brings us to 3.","orientation_history":[0],"rt":1614,"trial_type":"polygon-arrow-feedback","trial_index":0,"trial_index_global":12,"time_elapsed":1418349,"internal_chunk_id":"0-0.3-0"},{"nsides":6,"question":"What is 4 <img src=./images/hexagon_symbol.png style=width:14px;height:14px> 4? Try to solve this problem using the hexagon. <br /><br /> (Remember, to perform <img src=./images/hexagon_symbol.png style=width:14px;height:14px> on the hexagon, you can use the interactive diagram on the right, or perform the operation in you r mind.  Point the arrow at the first number on the hexagon, and then move the arrow the second number of points clockwise around the hexagon.)","response_type":"free","response_choices":[],"correct_response":"2","response":"2","orientation_history":[[0]],"response_history":["2"],"rt":5989,"trial_type":"polygon-arrow-question","trial_index":0,"trial_index_global":13,"time_elapsed":1424341,"internal_chunk_id":"0-0.3-0"},{"nsides":6,"feedback":"Correct! 4 <img src=./images/hexagon_symbol.png style=width:14px;height:14px> 4 = 2 because 4 steps clockwise on the hexagon from 4 brings us to 2. Equivalently, 4 + 4 = 8 and 8 - 6 = 2.","orientation_history":[0],"rt":1335,"trial_type":"polygon-arrow-feedback","trial_index":0,"trial_index_global":14,"time_elapsed":1425679,"internal_chunk_id":"0-0.3-0"},{"nsides":6,"question":"What is 1 <img src=./images/hexagon_symbol.png style=width:14px;height:14px> 3? Try to solve this problem using the arithmetic technique. <br /><br /> (Rem ember, t o perform <img src=./images/hexagon_symbol.png style=width:14px;height:14px> by arithmetic, you start with the first number, and then add the second one to it. If the sum is smaller than 6, that's your result. If the sum is 6 or bigger, you subtract 6 to get your result.)","response_type":"free","response_choices":[],"correct_response":"4","response":"4","orientation_history":[[0]],"response_history":["4"],"rt":4820,"trial_type":"polygon-arrow-question","trial_index":0,"trial_index_global":15,"time_elapsed":1430501,"internal_chunk_id":"0-0.3-0"},{"nsides":6,"feedback":"Correct! 1 <img src=./images/hexagon_symbol.png style=width:14px;height:14px> 3 = 4 because 1 + 3 = 4 and 4 - 6 = 4.  Equivalently, 3 steps clockwise on the hexagon from 1 brings us to 4.","orientation_history":[0],"rt":1392,"trial_type":"polygon-arrow-feedback","trial_index":0,"trial_index_global":16,"time_elapsed":1431895,"internal_chunk_id":"0-0.3-0"},{"nsides":6,"question":"What is 4 <img s rc=./i mages/hexagon_symbol.png style=width:14px;height:14px> 3? <br /><br /> (Remember, to perform <img src=./images/hexagon_symbol.png style=width:14px;height:14px>, you can either use a method based on the hexagon at right, or a method based on arithmetic.<br /><br /><b>Hexagon method:</b> you can use the interactive diagram on the right, or perform the operation in your mind. Point the arrow at the first number, then move the arrow the second number of points clockwise around the hexagon. The number the arrow arrives at is your result. <br /><br /><b>Arithmetic method:</b> you start with the first number, and then add the second one to it. If the sum is smaller than 6, that's your result. If the sum is 6 or bigger, you subtract 6 to get your result.)","response_type":"free","response_choices":[],"correct_response":"1","response":"1","orientation_history":[[0]],"response_history":["1"],"rt":5946,"trial_type":"polygon-arrow-question","trial_index":0,"trial_index_global":17,"time_elapsed":1437845,"internal_chunk_id":"0-0.3-0"},{"nsides":6,"feedback":"Correct! 4 <img src=./images/hexagon_symbol.png style=width:14px;height:14px> 3 = 1 because 3 steps clockwise on the hexagon from 4 brings us to 1. Equivalently, 4 + 3 = 7 and 7 - 6 = 1.","orientation_history":[0],"rt":1280,"trial_type":"polygon-arrow-feedback","trial_index":0,"trial_index_global":18,"time_elapsed":1439127,"internal_chunk_id":"0-0.3-0"},{"nsides":6,"question":"What is 0 <img src=./images/hexagon_symbol.png style=width:14px;height:14px> 5? <br /><br /> (Remember, to perform <img src=./images/hexagon_symbol.png style=width:14px;height:14px>, you can either use a method based on the hexagon at right, or a method based on arithmetic.<br /><br /><b>Hexagon method:</b> you can use the interactive diagram on the right, or perform the operation in your mind. Point the arrow at the first number, then move the arrow the second number of points clockwise around the hex agon. Th e number the arrow arrives at is your result. <br /><br /><b>Arithmetic method:</b> you start with the first number, and then add the second one to it. If the sum is smaller than 6, that's your result. If the sum is 6 or bigger, you subtract 6 to get your result.)","response_type":"free","response_choices":[],"correct_response":"5","response":"5","orientation_history":[[0]],"response_history":["5"],"rt":3380,"trial_type":"polygon-arrow-question","trial_index":0,"trial_index_global":19,"time_elapsed":1442510,"internal_chunk_id":"0-0.3-0"},{"nsides":6,"feedback":"Correct! 0 <img src=./images/hexagon_symbol.png style=width:14px;height:14px> 5 = 5 because 5 steps clockwise on the hexagon from 0 brings us to 5. Equivalently, 0 + 5 = 5 and 5 is less than 6.","orientation_history":[0],"rt":6674,"trial_type":"polygon-arrow-feedback","trial_index":0,"trial_index_global":20,"time_elapsed":1449187,"internal_chunk_id":"0-0.3-0"},{"nsides":6,"question":"What is 2 <img src=./ima ges/hexa gon_symbol.png style=width:14px;height:14px> 5? <br /><br /> (Remember, to perform <img src=./images/hexagon_symbol.png style=width:14px;height:14px>, you can either use a method based on the hexagon at right, or a method based on arithmetic.<br /><br /><b>Hexagon method:</b> you can use the interactive diagram on the right, or perform the operation in your mind. Point the arrow at the first number, then move the arrow the second number of points clockwise around the hexagon. The number the arrow arrives at is your result. <br /><br /><b>Arithmetic method:</b> you start with the first number, and then add the second one to it. If the sum is smaller than 6, that's your result. If the sum is 6 or bigger, you subtract 6 to get your result.)","response_type":"free","response_choices":[],"correct_response":"1","response":"1","orientation_history":[[0]],"response_history":["1"],"rt":5546,"trial_type":"polygon-arrow-question","trial_index":0,"trial_index_global":21,"time_elapsed":1454736,"internal_chunk_id":"0-0.3-0"},{"nsides":6,"feedback":"Correct! 2 <img src=./images/hexagon_symbol.png style=width:14px;height:14px> 5 = 1 because 5 steps clockwise on the hexagon from 2 brings us to 1. Equivalently, 2 + 5 = 7 and 7 - 6 = 1.","orientation_history":[0],"rt":1283,"trial_type":"polygon-arrow-feedback","trial_index":0,"trial_index_global":22,"time_elapsed":1456021,"internal_chunk_id":"0-0.3-0"},{"nsides":6,"instructions":"Now we're going to discuss a couple special properties of this new operation, <img src=./images/hexagon_symbol.png style=width:14px;height:14px> that we've learned. First, notice that the number 0 behaves in a special way under <img src=./images/hexagon_symbol.png style=width:14px;height:14px>. Whenever we combine 0 with anything else, we get that same thing back. We'll say that 0 is the <i>identity</i> under <img src=./images/hexagon_symbol.png style=width:14px;height:14px>, because when you combine  it with  something it gives you that identical thing back.","orientation_history":[0],"rt":17710,"trial_type":"polygon-arrow-instructions","trial_index":0,"trial_index_global":23,"time_elapsed":1473736,"internal_chunk_id":"0-0"},{"nsides":6,"instructions":"Now that we know 0 is the identity under <img src=./images/hexagon_symbol.png style=width:14px;height:14px>, we're going to make a new definition. We'll say that the <i>inverse</i> of a number is the element that you combine with it to produce the identity. For example, 5 <img src=./images/hexagon_symbol.png style=width:14px;height:14px> 1 = 0, so we say 1 is the inverse of 5 under <img src=./images/hexagon_symbol.png style=width:14px;height:14px>, (remember 0 is the identity under <img src=./images/hexagon_symbol.png style=width:14px;height:14px>). Similarly, 3 is its own inverse under <img src=./images/hexagon_symbol.png style=width:14px;height:14px>, because 3 <img src=./images/hexagon_ symbol.p ng style=width:14px;height:14px> 3 = 0.","orientation_history":[0],"rt":21515,"trial_type":"polygon-arrow-instructions","trial_index":0,"trial_index_global":24,"time_elapsed":1495253,"internal_chunk_id":"0-0"},{"nsides":6,"question":"Now you try! What is the inverse of 4 under <img src=./images/hexagon_symbol.png style=width:14px;height:14px>? <br /><br /> (Remember, the inverse of an element is the thing which you combine with it to produce the identity.)","response_type":"free","response_choices":[],"correct_response":"2","response":"0","orientation_history":[[0]],"response_history":["0"],"rt":26589,"trial_type":"polygon-arrow-question","trial_index":0,"trial_index_global":25,"time_elapsed":1521844,"internal_chunk_id":"0-0.7-0"},{"nsides":6,"feedback":"Sorry, that was incorrect. The inverse of 4 under <img src=./images/hexagon_symbol.png style=width:14px;height:14px> is 2 because 4 <img src=./images/hexagon_symbol.png style=width:14px;height:14p x> 2 =  0, and 0 is the identity under <img src=./images/hexagon_symbol.png style=width:14px;height:14px>.","orientation_history":[0],"rt":11755,"trial_type":"polygon-arrow-feedback","trial_index":0,"trial_index_global":26,"time_elapsed":1533600,"internal_chunk_id":"0-0.7-0"},{"nsides":6,"question":"What is the inverse of 1 under <img src=./images/hexagon_symbol.png style=width:14px;height:14px>? <br /><br /> (Remember, the inverse of an element is the thing which you combine with it to produce the identity.)","response_type":"free","response_choices":[],"correct_response":"5","response":"1","orientation_history":[[0]],"response_history":["1"],"rt":3943,"trial_type":"polygon-arrow-question","trial_index":0,"trial_index_global":27,"time_elapsed":1537546,"internal_chunk_id":"0-0.7-0"},{"nsides":6,"feedback":"Sorry, that was incorrect. The inverse of 1 under <img src=./images/hexagon_symbol.png style=width:14px;height:14px> is 5 because 1 <img src=./images/he xagon_sy mbol.png style=width:14px;height:14px> 5 = 0, and 0 is the identity under <img src=./images/hexagon_symbol.png style=width:14px;height:14px>.","orientation_history":[0],"rt":8737,"trial_type":"polygon-arrow-feedback","trial_index":0,"trial_index_global":28,"time_elapsed":1546286,"internal_chunk_id":"0-0.7-0"},{"nsides":6,"question":"What is the inverse of 3 under <img src=./images/hexagon_symbol.png style=width:14px;height:14px>? <br /><br /> (Remember, the inverse of an element is the thing which you combine with it to produce the identity.)","response_type":"free","response_choices":[],"correct_response":"3","response":"0","orientation_history":[[0]],"response_history":["3","0"],"rt":18595,"trial_type":"polygon-arrow-question","trial_index":0,"trial_index_global":29,"time_elapsed":1564883,"internal_chunk_id":"0-0.7-0"},{"nsides":6,"feedback":"Sorry, that was incorrect. The inverse of 3 under <img src=./images/hexagon_symbol.png style=width:14px; height:1 4px> is 3 because 3 <img src=./images/hexagon_symbol.png style=width:14px;height:14px> 3 = 0, and 0 is the identity under <img src=./images/hexagon_symbol.png style=width:14px;height:14px>.","orientation_history":[0],"rt":3283,"trial_type":"polygon-arrow-feedback","trial_index":0,"trial_index_global":30,"time_elapsed":1568168,"internal_chunk_id":"0-0.7-0"},{"nsides":6,"question":"What is the inverse of 2 under <img src=./images/hexagon_symbol.png style=width:14px;height:14px>? <br /><br /> (Remember, the inverse of an element is the thing which you combine with it to produce the identity.)","response_type":"free","response_choices":[],"correct_response":"4","response":"4","orientation_history":[[0]],"response_history":["4"],"rt":6173,"trial_type":"polygon-arrow-question","trial_index":0,"trial_index_global":31,"time_elapsed":1574343,"internal_chunk_id":"0-0.7-0"},{"nsides":6,"feedback":"Correct! The inverse of 2 under <img src=./images/hexagon_sym bol.png style=width:14px;height:14px> is 4 because 2 <img src=./images/hexagon_symbol.png style=width:14px;height:14px> 4 = 0, and 0 is the identity under <img src=./images/hexagon_symbol.png style=width:14px;height:14px>.","orientation_history":[0],"rt":1306,"trial_type":"polygon-arrow-feedback","trial_index":0,"trial_index_global":32,"time_elapsed":1575652,"internal_chunk_id":"0-0.7-0"},{"nsides":6,"question":"What is the inverse of 0 under <img src=./images/hexagon_symbol.png style=width:14px;height:14px>? <br /><br /> (Remember, the inverse of an element is the thing which you combine with it to produce the identity.)","response_type":"free","response_choices":[],"correct_response":"0","response":"6","orientation_history":[[0]],"response_history":["6"],"rt":4752,"trial_type":"polygon-arrow-question","trial_index":0,"trial_index_global":33,"time_elapsed":1580406,"internal_chunk_id":"0-0.7-0"},{"nsides":6,"feedback":"Sorry, that was incorrect. The inv erse of  0 under <img src=./images/hexagon_symbol.png style=width:14px;height:14px> is 0 because 0 <img src=./images/hexagon_symbol.png style=width:14px;height:14px> 0 = 0, and 0 is the identity under <img src=./images/hexagon_symbol.png style=width:14px;height:14px>.","orientation_history":[0],"rt":2071,"trial_type":"polygon-arrow-feedback","trial_index":0,"trial_index_global":34,"time_elapsed":1582477,"internal_chunk_id":"0-0.7-0"},{"nsides":6,"instructions":"It is also possible to successively apply <img src=./images/hexagon_symbol.png style=width:14px;height:14px>, and the operation can simply be performed starting with the left-most pair. For example, 2 <img src=./images/hexagon_symbol.png style=width:14px;height:14px> 3 <img src=./images/hexagon_symbol.png style=width:14px;height:14px> 4 = 5 <img src=./images/hexagon_symbol.png style=width:14px;height:14px> 4 = 3.","orientation_history":[0],"rt":7671,"trial_type":"polygon- arrow-in structions","trial_index":0,"trial_index_global":35,"time_elapsed":1590150,"internal_chunk_id":"0-0"},{"nsides":6,"instructions":"We have one last definition to learn today, using the successive operations we just learned. Let's start with an example. Under our operation <img src=./images/hexagon_symbol.png style=width:14px;height:14px> we can make every other number using just 1: 2 = 1 <img src=./images/hexagon_symbol.png style=width:14px;height:14px> 1, 3 = 1 <img src=./images/hexagon_symbol.png style=width:14px;height:14px> 1 <img src=./images/hexagon_symbol.png style=width:14px;height:14px> 1, 4 = 1 <img src=./images/hexagon_symbol.png style=width:14px;height:14px> 1 <img src=./images/hexagon_symbol.png style=width:14px;height:14px> 1 <img src=./images/hexagon_symbol.png style=width:14px;height:14px> 1, 5 = 1 <img src=./images/hexagon_symbol.png style=width:14px;height:14px> 1 <img src=./images/hexagon_sym bol.png style=width:14px;height:14px> 1 <img src=./images/hexagon_symbol.png style=width:14px;height:14px> 1 <img src=./images/hexagon_symbol.png style=width:14px;height:14px> 1, and 0 = 1 <img src=./images/hexagon_symbol.png style=width:14px;height:14px> 1 <img src=./images/hexagon_symbol.png style=width:14px;height:14px> 1 <img src=./images/hexagon_symbol.png style=width:14px;height:14px> 1 <img src=./images/hexagon_symbol.png style=width:14px;height:14px> 1 <img src=./images/hexagon_symbol.png style=width:14px;height:14px> 1. Because 1 can make every other element under <img src=./images/hexagon_symbol.png style=width:14px;height:14px>, we say that 1 is a <i>generator</i> under <img src=./images/hexagon_symbol.png style=width:14px;height:14px>. <br /><br /> However, 2 is not a generator under <img src=./images/hexagon_symbol.png style=width:14px;height:14px>, because 4 = 2 <img src=./images/he xagon_sy mbol.png style=width:14px;height:14px> 2, and 0 = 2 <img src=./images/hexagon_symbol.png style=width:14px;height:14px> 2 <img src=./images/hexagon_symbol.png style=width:14px;height:14px> 2, but there is no way to make 1, 3, or 5 using just 2.","orientation_history":[0],"rt":142824,"trial_type":"polygon-arrow-instructions","trial_index":0,"trial_index_global":36,"time_elapsed":1732976,"internal_chunk_id":"0-0"},{"nsides":6,"question":"Now you try! Is 3 a generator under <img src=./images/hexagon_symbol.png style=width:14px;height:14px>? <br /><br /> (Remember, a generator is an element which can make every other element.)","response_type":"multi","response_choices":["Yes","No"],"correct_response":"No","response":"No","orientation_history":[[0]],"response_history":["No"],"rt":11493,"trial_type":"polygon-arrow-question","trial_index":0,"trial_index_global":37,"time_elapsed":1744472,"internal_chunk_id":"0-0.10-0"},{"nsides":6,"feedback":"Correct! 3  is not  a generator under <img src=./images/hexagon_symbol.png style=width:14px;height:14px>, because 3 = 3, 0 = 3 <img src=./images/hexagon_symbol.png style=width:14px;height:14px> 3, but there is no way to make 1, 2, 4, or 5 using just 3.","orientation_history":[0],"rt":1405,"trial_type":"polygon-arrow-feedback","trial_index":0,"trial_index_global":38,"time_elapsed":1745880,"internal_chunk_id":"0-0.10-0"},{"nsides":6,"question":"Is 5 a generator under <img src=./images/hexagon_symbol.png style=width:14px;height:14px>? <br /><br /> (Remember, a generator is an element which can make every other element.)","response_type":"multi","response_choices":["Yes","No"],"correct_response":"Yes","response":"No","orientation_history":[[0]],"response_history":["No"],"rt":6341,"trial_type":"polygon-arrow-question","trial_index":0,"trial_index_global":39,"time_elapsed":1752222,"internal_chunk_id":"0-0.10-0"},{"nsides":6,"feedback":"Sorry, that's incorrect. 5 is a generator  under < img src=./images/hexagon_symbol.png style=width:14px;height:14px>, because 5 = 5, 4 = 5 <img src=./images/hexagon_symbol.png style=width:14px;height:14px> 5, 3 = 5 <img src=./images/hexagon_symbol.png style=width:14px;height:14px> 5 <img src=./images/hexagon_symbol.png style=width:14px;height:14px> 5, 2 = 5 <img src=./images/hexagon_symbol.png style=width:14px;height:14px> 5 <img src=./images/hexagon_symbol.png style=width:14px;height:14px> 5 <img src=./images/hexagon_symbol.png style=width:14px;height:14px> 5, 1 = 5 <img src=./images/hexagon_symbol.png style=width:14px;height:14px> 5 <img src=./images/hexagon_symbol.png style=width:14px;height:14px> 5 <img src=./images/hexagon_symbol.png style=width:14px;height:14px> 5 <img src=./images/hexagon_symbol.png style=width:14px;height:14px> 5, and 0 = 5 <img src=./images/hexagon_symbol.png style=width:14px;height:14px> 5 <img src=./i mages/he xagon_symbol.png style=width:14px;height:14px> 5 <img src=./images/hexagon_symbol.png style=width:14px;height:14px> 5 <img src=./images/hexagon_symbol.png style=width:14px;height:14px> 5 <img src=./images/hexagon_symbol.png style=width:14px;height:14px> 5, so you can make all of the numbers under <img src=./images/hexagon_symbol.png style=width:14px;height:14px> using 5","orientation_history":[0],"rt":16053,"trial_type":"polygon-arrow-feedback","trial_index":0,"trial_index_global":40,"time_elapsed":1768278,"internal_chunk_id":"0-0.10-0"},{"nsides":6,"question":"Is 4 a generator under <img src=./images/hexagon_symbol.png style=width:14px;height:14px>? <br /><br /> (Remember, a generator is an element which can make every other element.)","response_type":"multi","response_choices":["Yes","No"],"correct_response":"No","response":"No","orientation_history":[[0]],"response_history":["No"],"rt":12183,"trial_type":"polygon-arrow-questio n","trial_index":0,"trial_index_global":41,"time_elapsed":1780464,"internal_chunk_id":"0-0.10-0"},{"nsides":6,"feedback":"Correct! 4 is not a generator under <img src=./images/hexagon_symbol.png style=width:14px;height:14px>, because 4 = 4, 2 = 4 <img src=./images/hexagon_symbol.png style=width:14px;height:14px> 4, and 0 = 4 <img src=./images/hexagon_symbol.png style=width:14px;height:14px> 4 <img src=./images/hexagon_symbol.png style=width:14px;height:14px> 4, but there is no way to make 1, 3, or 5 using just 4.","orientation_history":[0],"rt":4307,"trial_type":"polygon-arrow-feedback","trial_index":0,"trial_index_global":42,"time_elapsed":1784776,"internal_chunk_id":"0-0.10-0"},{"nsides":6,"question":"Is 0 a generator under <img src=./images/hexagon_symbol.png style=width:14px;height:14px>? <br /><br /> (Remember, a generator is an element which can make every other element.)","response_type":"multi","response_choices":["Yes","No"],"correct_response":"No","response":"Yes","orientation_history":[[0]],"response_history":["Yes"],"rt":8617,"trial_type":"polygon-arrow-question","trial_index":0,"trial_index_global":43,"time_elapsed":1793393,"internal_chunk_id":"0-0.10-0"},{"nsides":6,"feedback":"Sorry, that's incorrect. 0 is not a generator under <img src=./images/hexagon_symbol.png style=width:14px;height:14px>, because 0 = 0, but there is no way to make 1, 2, 3, 4, or 5 using just 0.","orientation_history":[0],"rt":16101,"trial_type":"polygon-arrow-feedback","trial_index":0,"trial_index_global":44,"time_elapsed":1809496,"internal_chunk_id":"0-0.10-0"},{"nsides":9,"instructions":"Now we are going to ask you some questions about a new operation, <img src=./images/nonagon_symbol.png style=width:14px;height:14px>, on the numbers 0, 1, 2, 3, 4, 5, 6, 7, 8. It works exactly like <img src=./images/hexagon_symbol.png style=width:14px;height:14px>, except now you use the nonagon shown at the right. Equivalen tly, aft er adding the two numbers you subtract 9 if your result is 9 or greater.<br /><br />Do you see how the different ways of performing <img src=./images/nonagon_symbol.png style=width:14px;height:14px> give the same result, just like with <img src=./images/hexagon_symbol.png style=width:14px;height:14px>? By labeling the points of the nonagon with the numbers from 0 to 8, we ensure that when we combine two numbers under <img src=./images/nonagon_symbol.png style=width:14px;height:14px>, we only produce numbers between 0 and 8. When we use the arithmetic strategy, adding the second number to the first mimics counting around the nonagon, and subtracting 9 each time we get above 8 makes sure the results correspond to the numbers on the points of the nonagon.<br /><br />We'll give you one practice question with feedback to make sure you understand the new operation. After that, try to complete the remaining questions as accurately as possible.","orientation_history":[0],"rt":55050,"trial_type":"polygon-arrow-instructions","trial_index":0,"trial_index_global":45,"time_elapsed":1864546,"internal_chunk_id":"0-0"},{"nsides":9,"question":"Practice: What is 5 <img src=./images/nonagon_symbol.png style=width:14px;height:14px> 5?","response_type":"free","response_choices":[],"correct_response":"1","response":"1","orientation_history":[[0]],"response_history":["1"],"rt":3506,"trial_type":"polygon-arrow-question","trial_index":0,"trial_index_global":46,"time_elapsed":1868055,"internal_chunk_id":"0-0.12-0"},{"nsides":9,"feedback":"Correct! 5 <img src=./images/nonagon_symbol.png style=width:14px;height:14px> 5 = 1 because 5 steps clockwise on the nonagon from 5 brings us to 1. Equivalently, 5 + 5 = 10 and 10 - 9 = 1.","orientation_history":[0],"rt":1059,"trial_type":"polygon-arrow-feedback","trial_index":0,"trial_index_global":47,"time_elapsed":1869117,"internal_chunk_id":"0-0.12-0"},{"nsides":9,"question":"What is 3 <img src=./i mages/no nagon_symbol.png style=width:14px;height:14px> 3?","response_type":"free","response_choices":[],"correct_response":"6","response":"6","orientation_history":[[0]],"response_history":["6"],"rt":2559,"trial_type":"polygon-arrow-question","trial_index":0,"trial_index_global":48,"time_elapsed":1871676,"internal_chunk_id":"0-0.12-0"},{"nsides":9,"question":"What is 7 <img src=./images/nonagon_symbol.png style=width:14px;height:14px> 4?","response_type":"free","response_choices":[],"correct_response":"2","response":"2","orientation_history":[[0]],"response_history":["2"],"rt":7292,"trial_type":"polygon-arrow-question","trial_index":0,"trial_index_global":49,"time_elapsed":1878968,"internal_chunk_id":"0-0.12-0"},{"nsides":9,"question":"What is 1 <img src=./images/nonagon_symbol.png style=width:14px;height:14px> 8?","response_type":"free","response_choices":[],"correct_response":"0","response":"0","orientation_history":[[0]],"response_history":["0"],"rt":6750,"trial_type":"polygon-arrow-question","trial_index":0,"trial_index_global":50,"time_elapsed":1885718,"internal_chunk_id":"0-0.12-0"},{"nsides":9,"question":"What is 5 <img src=./images/nonagon_symbol.png style=width:14px;height:14px> 4?","response_type":"free","response_choices":[],"correct_response":"0","response":"0","orientation_history":[[0]],"response_history":["0"],"rt":3702,"trial_type":"polygon-arrow-question","trial_index":0,"trial_index_global":51,"time_elapsed":1889420,"internal_chunk_id":"0-0.12-0"},{"nsides":9,"question":"What is 6 <img src=./images/nonagon_symbol.png style=width:14px;height:14px> 6?","response_type":"free","response_choices":[],"correct_response":"3","response":"3","orientation_history":[[0]],"response_history":["3"],"rt":6291,"trial_type":"polygon-arrow-question","trial_index":0,"trial_index_global":52,"time_elapsed":1895714,"internal_chunk_id":"0-0.12-0"},{"nsides":9,"question":"What is 4 <img src=./images/nonagon_symbol.png style=width:1 4px;height:14px> 1? Please explain in words how you got your answer.","response_type":"free","response_choices":[],"correct_response":"","response":"Add 4 +1 which = 5 and since it is less than 9 the answer is 5","orientation_history":[[0]],"response_history":["Add 4 +1 which = 5 and since it is less than 9 the answer is 5"],"rt":22170,"trial_type":"polygon-arrow-question","trial_index":0,"trial_index_global":53,"time_elapsed":1917886,"internal_chunk_id":"0-0.12-0"},{"nsides":9,"question":"What is 8 <img src=./images/nonagon_symbol.png style=width:14px;height:14px> 4? Please explain in words how you got your answer.","response_type":"free","response_choices":[],"correct_response":"","response":"The answer is 3 because 8+4=12. Then I subtract 9 from 12 which gave me 3. ","orientation_history":[[0]],"response_history":["3","The answer is 3 because 8+4=12 -9= 3/","The answer is 3 because 8+4=12 -9= 3","The answer is 3 because 8+4=12 -9= ","The answer is 3 because 8+4= 12 -9=","The answer is 3 because 8+4=12 -9","The answer is 3 because 8+4=12 -","The answer is 3 because 8+4=12 ","The answer is 3 because 8+4=12. Then I subtract 9 from 122 w","The answer is 3 because 8+4=12. Then I subtract 9 from 122 ","The answer is 3 because 8+4=12. Then I subtract 9 from 122","The answer is 3 because 8+4=12. Then I subtract 9 from 12 which gae","The answer is 3 because 8+4=12. Then I subtract 9 from 12 which gave me 3. "],"rt":56520,"trial_type":"polygon-arrow-question","trial_index":0,"trial_index_global":54,"time_elapsed":1974408,"internal_chunk_id":"0-0.12-0"},{"nsides":9,"question":"What is the identity under <img src=./images/nonagon_symbol.png style=width:14px;height:14px>? Please explain in words how you got your answer.","response_type":"free","response_choices":[],"correct_response":"0","response":"The identity number under 9 is 0 because when you add it to any number, you get the number back","orientation_history":[[0]],"response_history":["0  ","0","T he identity number under 9 is 0 because when you add it to any umber y","The identity number under 9 is 0 because when you add it to any umber ","The identity number under 9 is 0 because when you add it to any umber","The identity number under 9 is 0 because when you add it to any umbe","The identity number under 9 is 0 because when you add it to any umb","The identity number under 9 is 0 because when you add it to any um","The identity number under 9 is 0 because when you add it to any u","The identity number under 9 is 0 because when you add it to any number, you get the number back"],"rt":190249,"trial_type":"polygon-arrow-question","trial_index":0,"trial_index_global":55,"time_elapsed":2164659,"internal_chunk_id":"0-0.12-0"},{"nsides":9,"question":"What is the inverse of 5 under <img src=./images/nonagon_symbol.png style=width:14px;height:14px>?","response_type":"free","response_choices":[],"correct_response":"4","response":"4","orientation_history":[[0]],"response_history":["4"],"rt":91079,"trial_type":"polygon-arrow-question","trial_index":0,"trial_index_global":56,"time_elapsed":2255741,"internal_chunk_id":"0-0.12-0"},{"nsides":9,"question":"What is the inverse of 2 under <img src=./images/nonagon_symbol.png style=width:14px;height:14px>?","response_type":"free","response_choices":[],"correct_response":"7","response":"7","orientation_history":[[0]],"response_history":["7"],"rt":5056,"trial_type":"polygon-arrow-question","trial_index":0,"trial_index_global":57,"time_elapsed":2260799,"internal_chunk_id":"0-0.12-0"},{"nsides":9,"question":"What is the inverse of 0 under <img src=./images/nonagon_symbol.png style=width:14px;height:14px>?","response_type":"free","response_choices":[],"correct_response":"0","response":"0","orientation_history":[[0]],"response_history":["0"],"rt":6712,"trial_type":"polygon-arrow-question","trial_index":0,"trial_index_global":58,"time_elapsed":2267514,"internal_chunk_id":"0-0.12-0"},{"nsides":9,"question":"What is the inverse of 3 under <img src=./images/nonagon_symbol.png style=width:14px;height:14px>? Please explain in words how you got your answer.","response_type":"free","response_choices":[],"correct_response":"","response":"I added 3 to 6 which gave me the number 9. ","orientation_history":[[0]],"response_history":["I added 3 to 6 which gave me the number 9. "],"rt":26048,"trial_type":"polygon-arrow-question","trial_index":0,"trial_index_global":59,"time_elapsed":2293565,"internal_chunk_id":"0-0.12-0"},{"nsides":9,"question":"Is 2 a generator under <img src=./images/nonagon_symbol.png style=width:14px;height:14px>? Please explain in words how you got your answer.","response_type":"free","response_choices":[],"correct_response":"","response":"2 is not a generator under 9 because if you if you add 2+2 it gives you 4 ","orientation_history":[[0]],"response_history":["2 is not a generator under 9 because if you add because 4 = 2  2","2 is not a generator u nder 9 b ecause if you add becaus 4 = 2  2","2 is not a generator under 9 because if you add becau 4 = 2  2","2 is not a generator under 9 because if you add beca 4 = 2  2","2 is not a generator under 9 because if you add bec 4 = 2  2","2 is not a generator under 9 because if you add be 4 = 2  2","2 is not a generator under 9 because if you add b 4 = 2  2","2 is not a generator under 9 because if you add  4 = 2  2","2 is not a generator under 9 because if you add 4 = 2  2","2 is not a generator under 9 because if you if you add 2+2 it gives you 3","2 is not a generator under 9 because if you if you add 2+2 it gives you 4 ins","2 is not a generator under 9 because if you if you add 2+2 it gives you 4 in","2 is not a generator under 9 because if you if you add 2+2 it gives you 4 i","2 is not a generator under 9 because if you if you add 2+2 it gives you 4 "],"rt":105215,"trial_type":"polygon-arrow-question","trial_index":0,"trial_index_global":60,"time_elapsed":2398780,"internal_chunk_id":"0-0 .12-0"},{"nsides":9,"question":"Is 3 a generator under <img src=./images/nonagon_symbol.png style=width:14px;height:14px>? Please explain in words how you got your answer.","response_type":"free","response_choices":[],"correct_response":"","response":"yes because 3 = 1+1+1, 1 is the generator number ","orientation_history":[[0]],"response_history":["yes because 3 = 1+1+1, 1 is the generator number "],"rt":52235,"trial_type":"polygon-arrow-question","trial_index":0,"trial_index_global":61,"time_elapsed":2451018,"internal_chunk_id":"0-0.12-0"},{"nsides":9,"question":"Is 5 a generator under <img src=./images/nonagon_symbol.png style=width:14px;height:14px>? Please explain in words how you got your answer.","response_type":"free","response_choices":[],"correct_response":"","response":"Yes, 5 is a generator number because 5= 1+1+1+1+1 ","orientation_history":[[0]],"response_history":["Yes ,","Yes ","Yes, 5 is a generator number bea","Yes, 5 is a generator number b ecayse ","Yes, 5 is a generator number becayse","Yes, 5 is a generator number becays","Yes, 5 is a generator number becay","Yes, 5 is a generator number because 5= 1+1+1+1+1 "],"rt":25307,"trial_type":"polygon-arrow-question","trial_index":0,"trial_index_global":62,"time_elapsed":2476328,"internal_chunk_id":"0-0.12-0"},{"nsides":9,"question":"Is 6 a generator under <img src=./images/nonagon_symbol.png style=width:14px;height:14px>? Please explain in words how you got your answer.","response_type":"free","response_choices":[],"correct_response":"","response":"Yes, because 6=1+1+1+1+1+1 ","orientation_history":[[0]],"response_history":["Yes, because 6=1+1+1+1+1+1 "],"rt":31224,"trial_type":"polygon-arrow-question","trial_index":0,"trial_index_global":63,"time_elapsed":2507555,"internal_chunk_id":"0-0.12-0"},{"nsides":"n","instructions":"Now we'd like to ask you some questions about <img src=./images/ngon_symbol.png style=width:14px;height:14px>, where n could be any po stive co unting number. For example, n could be 3, and the polygon a triangle, or n could be any other counting number you can think of, in which case the corresponding polygon would have n sides. Just as before, you can use either the polygon or arithmetic methods. If you need to write the operation, you can use (n), and your answers can include n to stand in for the arbitrary value if necessary. (You can use the polygon at the right to think, but it doesn't necessarily correspond to the real polygon, which is why we've left most of it dashed.)","orientation_history":[0],"rt":36253,"trial_type":"polygon-arrow-instructions","trial_index":0,"trial_index_global":64,"time_elapsed":2543813,"internal_chunk_id":"0-0"},{"nsides":"n","question":"What is the formula for the inverse of 1 under <img src=./images/ngon_symbol.png style=width:14px;height:14px>?","response_type":"free","response_choices":[],"correct_response":"n-1","response":"3n","orientation_history":[[0]],"response_history":["3n"],"rt":47369,"trial_type":"polygon-arrow-question","trial_index":0,"trial_index_global":65,"time_elapsed":2591185,"internal_chunk_id":"0-0.14-0"},{"nsides":"n","question":"What is the formula for the inverse of an element x under <img src=./images/ngon_symbol.png style=width:14px;height:14px>? Please explain in words how you got your answer.","response_type":"free","response_choices":[],"correct_response":"n-x","response":"Since n can be any counting number then it would be xn ","orientation_history":[[0]],"response_history":["Since n can be any counting number and the clock shows 3","Since n can be any counting number and the clock shows these 3 numbers, then it would be ","Since n can be any counting number  then it would be ","Since n can be any counting number then it would be xn "],"rt":104967,"trial_type":"polygon-arrow-question","trial_index":0,"trial_index_global":66,"time_elapsed":2696157,"internal_chunk_id":"0-0.14-0"},{"nsides":"n","question":"Is ther e a patt ern to which elements are generators? How can you know if an element x is a generator under <img src=./images/ngon_symbol.png style=width:14px;height:14px> without seeing whether it can make all the elements?.","response_type":"free","response_choices":[],"correct_response":"","response":"Yes the generator number is 1 which gives a pattern to most numbers. To know if a number is a generator without seeing it, it would look something like this: 1 1 1 ","orientation_history":[[0]],"response_history":["Yes the generatio","Yes the generati","Yes the generator number is 1 whih ","Yes the generator number is 1 whih","Yes the generator number is 1 which is the pattern i","Yes the generator number is 1 which is ","Yes the generator number is 1 which is","Yes the generator number is 1 which i","Yes the generator number is 1 which gives a pattern when lo","Yes the generator number is 1 which gives a pattern wh","Yes the generator number is 1 which gives a pattern w","Yes the g enerator  number is 1 which gives a pattern ","Yes the generator number is 1 which gives a pattern to any ","Yes the generator number is 1 which gives a pattern to any","Yes the generator number is 1 which gives a pattern to an","Yes the generator number is 1 which gives a pattern to a","Yes the generator number is 1 which gives a pattern to most numbers. To know if a number is a generator under","Yes the generator number is 1 which gives a pattern to most numbers. To know if a number is a generator unde","Yes the generator number is 1 which gives a pattern to most numbers. To know if a number is a generator und","Yes the generator number is 1 which gives a pattern to most numbers. To know if a number is a generator un","Yes the generator number is 1 which gives a pattern to most numbers. To know if a number is a generator u","Yes the generator number is 1 which gives a pattern to most numbers. To know if a number is a generator without seeing it, it would look something like this: 1  1 1 "],"rt":87671,"trial_type":"polygon-arrow-question","trial_index":0,"trial_index_global":67,"time_elapsed":2783828,"internal_chunk_id":"0-0.14-0"},{"nsides":"n","question":"True or false: If x is an odd number, it must be a generator under <img src=./images/ngon_symbol.png style=width:14px;height:14px>.","response_type":"multi","response_choices":["True","False"],"correct_response":"False","response":"True","orientation_history":[[0]],"response_history":["True"],"rt":20859,"trial_type":"polygon-arrow-question","trial_index":0,"trial_index_global":68,"time_elapsed":2804689,"internal_chunk_id":"0-0.14-0"},{"nsides":"n","question":"True or false: If x is an even number, it must not be a generator under <img src=./images/ngon_symbol.png style=width:14px;height:14px>.","response_type":"multi","response_choices":["True","False"],"correct_response":"False","response":"False","orientation_history":[[0]],"response_history":["False"],"rt":11744,"trial_type":"polygon-arrow -questio n","trial_index":0,"trial_index_global":69,"time_elapsed":2816434,"internal_chunk_id":"0-0.14-0"},{"nsides":"n","question":"True or false: If x is not a generator under <img src=./images/ngon_symbol.png style=width:14px;height:14px>, x must be a divisor of n, that is, x must divide n evenly, with no remainder.","response_type":"multi","response_choices":["True","False"],"correct_response":"False","response":"False","orientation_history":[[0]],"response_history":["False"],"rt":23483,"trial_type":"polygon-arrow-question","trial_index":0,"trial_index_global":70,"time_elapsed":2839917,"internal_chunk_id":"0-0.14-0"},{"nsides":"n","question":"True or false: If x is not a generator under <img src=./images/ngon_symbol.png style=width:14px;height:14px>, x must be a multiple of a divisor of n. Please explain in words why your answer is correct.","response_type":"free","response_choices":[],"correct_response":"True","response":"Well for example take the number 2. If tw o is add ed to 2, it gives the number 4, instead of 1 1. I think this is why is is not a generator under n","orientation_history":[[0]],"response_history":["A","Well an ","Well an","Well a","Well for example i","Well for example take the number 2. If to","Well for example take the number 2. If two is added to 2, t","Well for example take the number 2. If two is added to 2, it i","Well for example take the number 2. If two is added to 2, it gives the number 4, instead of 1+1+++","Well for example take the number 2. If two is added to 2, it gives the number 4, instead of 1+1++","Well for example take the number 2. If two is added to 2, it gives the number 4, instead of 1+1+","Well for example take the number 2. If two is added to 2, it gives the number 4, instead of 1+1","Well for example take the number 2. If two is added to 2, it gives the number 4, instead of 1+","Well for example take the number 2. If two is added to 2, it gives the number 4, instead of 1 1. I think this is why s","Well fo r example take the number 2. If two is added to 2, it gives the number 4, instead of 1 1. I think this is why is is not a generator under n"],"rt":124619,"trial_type":"polygon-arrow-question","trial_index":0,"trial_index_global":71,"time_elapsed":2964539,"internal_chunk_id":"0-0.14-0"},{"nsides":"n","question":"If an element x is a generator under <img src=./images/ngon_symbol.png style=width:14px;height:14px>, is its inverse a generator under <img src=./images/ngon_symbol.png style=width:14px;height:14px> always, sometimes, or never?","response_type":"multi","response_choices":["Always","Sometimes","Never"],"correct_response":"Always","response":"Sometimes","orientation_history":[[0]],"response_history":["Sometimes"],"rt":79832,"trial_type":"polygon-arrow-question","trial_index":0,"trial_index_global":72,"time_elapsed":3044373,"internal_chunk_id":"0-0.14-0"},{"nsides":"n","question":"if an element x is a generator under <img src=./images/ngon_symbol.png  style= width:14px;height:14px>, is x <img src=./images/ngon_symbol.png style=width:14px;height:14px> x a generator under <img src=./images/ngon_symbol.png style=width:14px;height:14px> always, sometimes, or never? Please explain in words why your answer is correct.","response_type":"free","response_choices":[],"correct_response":"sometimes","response":"I guess it would depend on the number. For example if the number under is 6 and I have 3 then the inverse would be 3 which is a generator under","orientation_history":[[0]],"response_history":["I guess it owul","I guess it owu","I guess it ow","I guess it o","I guess it would depend on the number. For example if the number is 6 and the in","I guess it would depend on the number. For example if the number is 6 a","I guess it would depend on the number. For example if the number is 6 ","I guess it would depend on the number. For example if the number is 6","I guess it would depend on the number. For example if the num ber is 3  then i","I guess it would depend on the number. For example if the num","I guess it would depend on the number. For example if the nu","I guess it would depend on the number. For example if the n","I guess it would depend on the number. For example if the ","I guess it would depend on the number. For example if the","I guess it would depend on the number. For example if th","I guess it would depend on the number. For example if then n","I guess it would depend on the number. For example if then ","I guess it would depend on the number. For example if then","I guess it would depend on the number. For example if the number under is 6 and I have 3 then t","I guess it would depend on the number. For example if the number under is 6 and I have 3 then h","I guess it would depend on the number. For example if the number under is 6 and I have 3 then the inverse wu","I guess it would depend on the number. For example if the number under is 6 and I have 3 then the inverse wu","I gues s it wou ld depend on the number. For example if the number under is 6 and I have 3 then the inverse would be 3 which is a generator under it","I guess it would depend on the number. For example if the number under is 6 and I have 3 then the inverse would be 3 which is a generator under i","I guess it would depend on the number. For example if the number under is 6 and I have 3 then the inverse would be 3 which is a generator under ","I guess it would depend on the number. For example if the number under is 6 and I have 3 then the inverse would be 3 which is a generator under"],"rt":96204,"trial_type":"polygon-arrow-question","trial_index":0,"trial_index_global":73,"time_elapsed":3140580,"internal_chunk_id":"0-0.14-0"},{"nsides":"n","question":"If an element x is not a generator under <img src=./images/ngon_symbol.png style=width:14px;height:14px>, is x <img src=./images/ngon_symbol.png style=width:14px;height:14px> x a generator under <img src=./images/ngon_symbol. png st yle=width:14px;height:14px> always, sometimes, or never?","response_type":"multi","response_choices":["Always","Sometimes","Never"],"correct_response":"Never","response":"Sometimes","orientation_history":[[0]],"response_history":["Sometimes"],"rt":53121,"trial_type":"polygon-arrow-question","trial_index":0,"trial_index_global":74,"time_elapsed":3193704,"internal_chunk_id":"0-0.14-0"},{"instructions":"We would like to ask you some questions about your background. Please press Continue to continue.","rt":1938,"trial_type":"instructions","trial_index":0,"trial_index_global":75,"time_elapsed":3195644,"internal_chunk_id":"0-0.15-0"},{"question":"What is your age?","response_type":"free","response_choices":[],"correct_response":"","response":"28","response_history":["28"],"rt":2690,"trial_type":"question","trial_index":0,"trial_index_global":76,"time_elapsed":3198336,"internal_chunk_id":"0-0.15-0"},{"question":"What is your level of education?","response_type":"multi","response_choices":["Did not graduate high school","High school diploma","Some college, no degree","Associates Degree","Bachelors Degree","Some graduate school, no degree","Masters Degree","Doctorate, M.D., etc."],"correct_response":"","response":"Bachelors Degree","response_history":["Bachelors Degree"],"rt":4121,"trial_type":"question","trial_index":0,"trial_index_global":77,"time_elapsed":3202462,"internal_chunk_id":"0-0.15-0"},{"question":"What is the most advanced math class you've completed? If you have multiple classes and you're not sure which one is most advanced, please list them.","response_type":"free","response_choices":[],"correct_response":"","response":"Pharmacology","response_history":["Pharmacology"],"rt":13598,"trial_type":"question","trial_index":0,"trial_index_global":78,"time_elapsed":3216060,"internal_chunk_id":"0-0.15-0"},{"question":"How familiar are you with the concept of modular arithmetic?","response_type":"multi","response_choices":["1 - never heard of it","2 - hea rd of it but didn't know what it was","3 - seen it used or explained","4 - used it but not often or recently","5 - used it, remember and understand it"],"correct_response":"1","response":"4 - used it but not often or recently","response_history":["4 - used it but not often or recently"],"rt":14268,"trial_type":"question","trial_index":0,"trial_index_global":79,"time_elapsed":3230328,"internal_chunk_id":"0-0.15-0"},{"question":"How familiar are you with the concept of a mathematical group?","response_type":"multi","response_choices":["1 - never heard of it","2 - heard of it but didn't know what it was","3 - seen it used or explained","4 - used it but not often or recently","5 - used it, remember and understand it"],"correct_response":"1","response":"3 - seen it used or explained","response_history":["3 - seen it used or explained"],"rt":6877,"trial_type":"question","trial_index":0,"trial_index_global":80,"time_elapsed":3237209,"internal_chunk_id":"0-0.15-0"},{"question":"Do y ou feel  you learned something from this HIT?","response_type":"multi","response_choices":["1 - not at all","2 - somewhat","3 - definitely"],"correct_response":"1","response":"3 - definitely","response_history":["3 - definitely"],"rt":7225,"trial_type":"question","trial_index":0,"trial_index_global":81,"time_elapsed":3244438,"internal_chunk_id":"0-0.15-0"},{"question":"Do you feel you understood the concepts in this HIT?","response_type":"multi","response_choices":["1 - not at all","2 - somewhat","3 - definitely"],"correct_response":"1","response":"2 - somewhat","response_history":["2 - somewhat"],"rt":4483,"trial_type":"question","trial_index":0,"trial_index_global":82,"time_elapsed":3248921,"internal_chunk_id":"0-0.15-0"},{"question":"Did you enjoy this HIT?","response_type":"multi","response_choices":["1 - not at all","2 - somewhat","3 - definitely"],"correct_response":"1","response":"3 - definitely","response_history":["3 - definitely"],"rt":2693,"trial_type":"question","trial_index":0,"trial_index_global":83,"time_elapsed":3251614,"internal_chunk_id":"0-0.15-0"},{"question":"What is your gender?","response_type":"multi","response_choices":["Female","Male","Other"],"correct_response":"","response":"Female","response_history":["Female"],"rt":2423,"trial_type":"question","trial_index":0,"trial_index_global":84,"time_elapsed":3254037,"internal_chunk_id":"0-0.15-0"},{"question":"What is/are your native language(s)? (The languages spoken in your household when you were a child.)","response_type":"free","response_choices":[],"correct_response":"","response":"English","response_history":["English"],"rt":4405,"trial_type":"question","trial_index":0,"trial_index_global":85,"time_elapsed":3258445,"internal_chunk_id":"0-0.15-0"},{"question":"Did you use pen and paper at any point on this HIT?","response_type":"free","response_choices":[],"correct_response":"","response":"To solve some of the problems ","response_history":["To do some of the ","To do","To d","To solve  some of  the problems ue","To solve some of the problems u","To solve some of the problems "],"rt":18253,"trial_type":"question","trial_index":0,"trial_index_global":86,"time_elapsed":3276701,"internal_chunk_id":"0-0.15-0"},{"question":"Do you have any comments on this HIT?","response_type":"free","response_choices":[],"correct_response":"","response":"It was fun, thanks","response_history":["It was gu","It was g","It was fun, thanks"],"rt":6049,"trial_type":"question","trial_index":0,"trial_index_global":87,"time_elapsed":3282752,"internal_chunk_id":"0-0.15-0"}]