[{"nsides":6,"instructions":"Let's define a new operation <img src=./images/hexagon_symbol.png style=width:14px;height:14px>. This operation will give us a way of combining two of the numbers 0, 1, 2, 3, 4, 5 to get another one of them back. To perform <img src=./images/hexagon_symbol.png style=width:14px;height:14px>, you can either use a method based on the hexagon at right, or a method based on arithmetic.<br /><b>Hexagon method:</b> you can use the interactive diagram on the right, or perform the operation in your mind. Point the arrow at the first number on the hexagon by clicking, then click (or click and drag) to move the arrow the second number of points clockwise around the hexagon. The number the arrow arrives at is your result. (The operation is called <img src=./images/hexagon_symbol.png style=width:14px;height:14px> because it uses the hexagon, which has 6 sides.) <br ><b>Arithmetic method:</b> you start with the first number, and then add  the sec ond one to it. If the sum is smaller than 6, that's your result. If the sum is 6 or bigger, you subtract 6 to get your result. <br /><br />For example, 3 <img src=./images/hexagon_symbol.png style=width:14px;height:14px> 5 = 2, because 5 steps clockwise from 3 on the hexagon brings us to 2. Equivalently, 3 + 5 = 8, and 8 is bigger than 6, so we subtract 6, and 8 - 6 = 2. So 3 <img src=./images/hexagon_symbol.png style=width:14px;height:14px> 5 = 2.<br /><br />Similarly, 1 <img src=./images/hexagon_symbol.png style=width:14px;height:14px> 4 = 5, because 1 + 4 = 5, and 5 is less than 6 so we leave it alone. Equivalently, 4 steps clockwise from 1 on the hexagon brings us to 5. <br /><br />Click Continue when you're ready to move on.","orientation_history":[0],"rt":120396,"trial_type":"polygon-arrow-instructions","trial_index":0,"trial_index_global":1,"time_elapsed":352795,"internal_chunk_id":"0-0"},{"nsides":6,"instructions":"Do you see how the diffe rent way s of performing <img src=./images/hexagon_symbol.png style=width:14px;height:14px> give the same result? By labeling the points of the hexagon with the numbers from 0 to 5, we ensure that when we combine two numbers using the hexagon, we only produce numbers between 0 and 5. When we use the arithmetic strategy, adding the second number to the first mimics counting around the hexagon, and subtracting 6 each time we get above 5 makes sure the results correspond to the numbers on the points of the hexagon. <br /><br />Click Continue when you're ready to move on.","orientation_history":[0,[6.259660236194369,6.259660236194369,6.259660236194369,6.259660236194369,6.259660236194369,6.259660236194369,6.259660236194369,6.259660236194369,6.259660236194369,0,0.03527947359359129,0.04702413184274623,0.05875582271572255,0.07047134457879567,0.0821675223617,0.0821675223617,0.14024960963660504,0.1746721990082396,0.2392315999636605,0.2880554470506258,0.3105986003710277,0.3105986003710277,0.3105986003710277,0.32175055439664213,0.32175055439664213,0.32549585523647795,0.3587706702705722,0.40024065703397405,0.43733789174788384,0.48995732625372823,0.5280744484263595,0.5585993153435624,0.5944750050748631,0.636508215787951,0.6947382761967031,0.7440993450278421,0.8101864734347479,0.8431849941683859,0.8745917759891814,0.9048270894157867,0.9295525505106026,0.9544993893988253,0.9544993893988253,0.9638086627484886,0.970255195415889,0.9796391595788522,0.9953716762596116,1.0109994072334723,1.0322888700833235,1.0626237089595665,1.0873493252276976,1.1022226492656675,1.1268506017068993,1.1268506017068993,1.1268506017068993,1.1268506017068993,1.1268506017068993,1.1268506017068993,1.1268506017068993,1.1268506017068993,1.1268506017068993,1.1268506017068993,1.1268506017068993,1.1268506017068993,1.1268506017068993,1.1268506017068993,1.0679531158670357,1.0248110212891581,0.9948777271765435,0.9097531579442096,0.8171335369259062,0.7536627898689904,0.6345528017765085,0.4586971543919627,0.4048917862850834,0.32855317055145106,0.1770731547788753,0.07130746478529026,6.253491067572677,6.1882336008368295,6.089386854117249,6.033933165794372,5.97476729607709,5.907224353308281,5.873057966638095,5.850777531609048,5.83677736937331,5.81953769817878,5.806070498931411,5.802872574464839,5.796286075368317,5.796286075368317,5.796286075368317,5.796286075368317,5.796286075368317,5.796286075368317,5.796286075368317,5.796286075368317,5.796286075368317,5.796286075368317,5.796286075368317,5.796286075368317,5.796286075368317,5.796286075368317,5.796286075368317,5.796286075368317,5.796286075368317,5.796286075368317,5.796286075368317,5.796286075368317,5.796286075368317,5.796286075368317,5.796286075368317,5.796286075368317,5.796286075368317,5.836485227985185,5.8571911261909655,5.8641815545313785,5.8641815545313785,5.8641815545313785,5.8641815545313785,5.8641815545313785,5.8641815545313785,5.8641815545313785,5.878293520894503,5.914323236360886,5.929027150323359,5.943892692725542,5.958915866422567,5.989417268743207,6.012671920186363,6.060071946124685,6.08907920914926,6.130535978784321,6.146119132869399,6.154588556524683,6.170619691375901,6.179213755254928,6.213124724541131,6.213124724541131,6.229183806803618,6.229183806803618,6.23817069140506,6.23817069140506,6.23817069140506,6.23817069140506,6.23817069140506,6.23817069140506,6.23817069140506,6.23817069140506,6.246837686160566,6.246165191305656,6.25515526721974,6.25515526721974,6.254890973331083,0,0,0,0,0.009708432834108827,0.009900666587988605,0.009900666587988605,0.020199272581067795,0.020405330686537937,0.020405330686537937,0.020405330686537937,0.020405330686537937,0.020405330686537937,0.020405330686537937,0.020405330686537937,0.020405330686537937,0.020405330686537937,0.020405330686537937,0.020405330686537937,0.020405330686537937,0.020405330686537937,0.020405330686537937,0.020405330686537937,0.020405330686537937,0.020405330686537937,0.020405330686537937,0.020405330686537937,0.020405330686537937,0.020405330686537937,0.020405330686537937,0.020405330686537937,0.020405330686537937,0.020405330686537937,0.020405330686537937,0.020405330686537937,0.020405330686537937,0.020405330686537937,0.020405330686537937,0.020405330686537937,0.020405330686537937,0.020615635625603757,0.020615635625603757,0.020830320036216987,0.020830320036216987,0.020830320036216987,0.020830320036216987,0.020830320036216987,0.020830320036216987,0.020830320036216987,0.020830320036216987,0.02104952213704636,0.021273386024061036,0.021735706841792712,0.02197448429666249,0.022468128585825475,0.022468128585825475,0.022468128585825475,0.022468128585825475,0.022468128585825475,0.022468128585825475,0.022468128585825475,0.022468128585825475,0.022468128585825475,0.022468128585825475,0.022468128585825475,0.022468128585825475,0.022468128585825475,0.022468128585825475,0.022468128585825475,0.022468128585825475,0.022468128585825475,0.022468128585825475,0.022468128585825475,0.022468128585825475,0.022468128585825475,0.022468128585825475,0.022468128585825475,0.022468128585825475,0.022468128585825475,0.022468128585825475,0.022468128585825475,0.022468128585825475,0.022468128585825475,0.022468128585825475,0.022468128585825475,0.022468128585825475,0.022468128585825475,0.022468128585825475,0.022468128585825475,0]],"rt":29924,"trial_type":"polygon-arrow-instructions","trial_index":0,"trial_index_global":2,"time_elapsed":382721,"internal_chunk_id":"0-0"},{"nsides":6,"question":"Now try one on your own! What is 4 <img src=./images/hexagon_symbol.png style=width:14px;height:14px> 5? <br /><br /> (Remember, to perform <img src=./images/hexagon_symbol.png style=width:14px;height:14px>, you can either use a method based on the hexagon at right, or a method based on arithmetic.<br /><br /><b>Hexagon method:</b> you can use the interactive diagram on the right, or perform the operation in your mind. Point the arrow at the first number, then move the arrow the second number of points clockwise around the hexagon. The number th e arrow  arrives at is your result. <br /><br /><b>Arithmetic method:</b> you start with the first number, and then add the second one to it. If the sum is smaller than 6, that's your result. If the sum is 6 or bigger, you subtract 6 to get your result.)","response_type":"free","response_choices":[],"correct_response":"3","response":"3","orientation_history":[[0],[0,0,0,0,0,0,0,0.04995839572194272,0.08178438061799587,0.17841049935104025,0.25651661264432346,0.3461359635693606,0.45706875654778956,0.6140190370079406,0.6963485807629505,0.7853981633974483,0.8539926668517228,0.8828330146897044,0.8960553845713439,0.8960553845713439,0.8960553845713439,0.8960553845713439,0.9088546855893886,0.9397169393235673,0.9626235483471677,1.0056468867881372,1.0374941440655223,1.070635273047214,1.1025615940046931,1.1117569801042109,1.1117569801042109,1.1117569801042109,1.1117569801042109,1.1117569801042109,1.1117569801042109,1.1117569801042109,1.1117569801042109,1.1117569801042109,1.1117569801042109,1.1117569801042109,1.1117569801042109,1.1210367137250574,1.1536268491450934,1.1727820111660447,1.2120256565243244,1.2524587284297926,1.3045442776439713,1.3690339824746094,1.457645345204412,1.5707963267948966,1.6388727850528961,1.695151321341658,1.7616274295161585,1.8370483759458218,1.8891339251600006,1.9394922294529464,1.9631364710104124,1.9729103424466592,1.9729103424466592,1.9729103424466592,1.9729103424466592,1.9729103424466592,1.9729103424466592,1.9729103424466592,1.9729103424466592,1.9729103424466592,1.9729103424466592,1.9729103424466592,1.9922155336827008,2.001745314195273,2.0205559398647357,2.0298356734855822,2.0298356734855822,2.0390310595851,2.0626055027835952,2.071809713598486,2.0899424410414196,2.104098509524271,2.1129857367217753,2.1502031535165136,2.1789691052426257,2.2438871054997693,2.295662470410238,2.379091251413729,2.4651364471822106,2.5410515222107857,2.597312168643813,2.6322915095877812,2.6628708095940277,2.692869309579072,2.7485346344078607,2.7918773632232856,2.851190711041352,2.875340604438868,2.912360720312798,2.9275319700259717,2.9297651061083756,2.9297651061083756,2.9297651061083756,2.9297651061083756,2.9297651061083756,2.9297651061083756,2.9297651061083756,2.9297651061083756,2.9297651061083756,2.9297651061083756,2.9297651061083756,2.9297651061083756,2.9297651061083756,2.9297651061083756,2.9297651061083756,2.9297651061083756,2.9297651061083756,2.9297651061083756,2.9297651061083756,2.9297651061083756,2.9297651061083756,2.9297651061083756,2.9607930802858218,3.0027076380695803,3.0981417581982624,3.207431422892487,3.3214461533822712,3.4392928633010937,3.5280989587037133,3.6147186517204615,3.709879502252336,3.7948973698623734,3.8666614314475485,3.9141710065143407,3.9519856106061617,3.9580367392312645,3.9580367392312645,3.9580367392312645,3.9580367392312645,3.9580367392312645,3.9580367392312645,3.9580367392312645,3.9580367392312645,3.9580367392312645,3.9580367392312645,3.9580367392312645,3.9580367392312645,3.9580367392312645,3.9580367392312645,3.9580367392312645,3.9580367392312645,3.9580367392312645,3.9580367392312645,3.9580367392312645,3.9580367392312645,3.970987563852944,3.984252988834651,4.004755756589974,4.034680687820062,4.059084264112109,4.101663015995481,4.153789665041128,4.20421636254936,4.2487413713838835,4.336428026513384,4.418519645352222,4.4894887480563135,4.5667605998138665,4.619325251660271,4.632558994672452,4.659106128824997,4.739049328759288,4.805452709109108,4.844940512681363,4.90978454023457,4.935289212713066,5.017612114178611,5.090531295707291,5.136950360749047,5.148265952792075,5.1815010158699835,5.213653245256272,5.224127822700048,5.224127822700048,5.234480594212977,5.234480594212977,5.234480594212977,5.234480594212977,5.234480594212977,5.234480594212977,5.234480594212977,5.234480594212977,5.234480594212977,5.234480594212977,5.234480594212977,5.234480594212977,5.234480594212977,5.234480594212977,5.234480594212977,5.234480594212977,5.234480594212977,5.234480594212977,5.234480594212977,5.234480594212977,5.234480594212977,5.234480594212977,5.234480594212977,5.234480594212977,5.234480594212977,5.234480594212977,5.234480594212977,5.234480594212977,5.234480594212977,5.234480594212977,5.234480594212977,5.234480594212977,5.234480594212977,5.234480594212977,5.234480594212977,5.234480594212977,5.234480594212977,5.234480594212977,5.234480594212977,5.234480594212977,5.235987755982988],[5.235987755982988,5.235987755982988,5.235987755982988,5.235987755982988,5.235987755982988,5.235987755982988,5.222428485892394,5.16637694162163,5.16637694162163,5.107533320024106,5.0771303199490845,5.014546198839113,4.966236370366282,4.933479416296771,4.8817251199263865,4.832151656822219,4.765583493046396,4.699015329270573,4.682442261157955,4.635180185157263,4.587172993695356,4.574399033449382,4.513029217268336,4.497967188261635,4.483028540576809,4.468218347822472,4.443832938649754,4.401604536536752,4.387816835106575,4.379700823648323,4.366362723471143,4.3401338556763545,4.27724954198999,4.2546339165497855,4.2546339165497855,4.243180061329868,4.231875301407134,4.231875301407134,4.19885427552289,4.19885427552289,4.19885427552289,4.195000730050607,4.195000730050607,4.195000730050607,4.195000730050607,4.195000730050607,4.184501194249069,4.184501194249069,4.184501194249069,4.184501194249069,4.184501194249069,4.184501194249069,4.184501194249069,4.184501194249069,4.184501194249069,4.184501194249069,4.184501194249069,4.197917068674517,4.197917068674517,4.197917068674517,4.197917068674517,4.197917068674517,4.197917068674517,4.197917068674517,4.197917068674517,4.197917068674517,4.197917068674517,4.197917068674517,4.197917068674517,4.197917068674517,4.1887902047863905],[4.124386376837123,4.124386376837123,4.124386376837123,4.124386376837123,4.124386376837123,4.124386376837123,4.124386376837123,4.124386376837123,4.124386376837123,4.151225568096338,4.199331070975651,4.231983163801646,4.277305029222644,4.348995846889459,4.386419041745044,4.437813698945064,4.477376764664033,4.55868145132621,4.628082247858483,4.71238898038469,4.768667516673451,4.84025889894469,4.868257181783012,4.896011306553969,4.950633738563434,4.9675713710055085,4.9945127125274045,5.047125817701504,5.059995840140592,5.097882847314018,5.14663330118149,5.170222701403654,5.2268402934437175,5.237755854200006,5.248535002396924,5.248535002396924,5.268259789538847,5.268259789538847,5.268259789538847,5.268259789538847,5.268259789538847,5.268259789538847,5.268259789538847,5.268259789538847,5.268259789538847,5.268259789538847,5.268259789538847,5.268259789538847,5.268259789538847,5.268259789538847,5.268259789538847,5.268259789538847,5.268259789538847,5.268259789538847,5.268259789538847,5.29314533395236,5.350708788393735,5.387129922608242,5.478558744682431,5.584944418336422,5.645224307910076,5.687400759556527,5.757118888182823,5.80067201215711,5.838169082424045,5.881956508174738,5.913014479337369,5.926051296658793,5.926051296658793,5.926051296658793,5.926051296658793,5.926051296658793,5.926051296658793,5.926051296658793,5.926051296658793,5.926051296658793,5.957029494936133,5.9917285127017195,6.034895397876518,6.118036629764959,6.162158087370381,6.202281208024356,6.217490505627121,6.217490505627121,6.217490505627121,6.217490505627121,6.217490505627121,6.217490505627121,6.217490505627121,6.217490505627121,6.217490505627121,6.217490505627121,6.217490505627121,6.217490505627121,6.217490505627121,6.217490505627121,6.217490505627121,6.217490505627121,6.217490505627121,6.217490505627121,6.217490505627121,6.217490505627121,6.217490505627121,6.217490505627121,6.217490505627121,6.217490505627121,6.217490505627121,6.217490505627121,6.217490505627121,6.217490505627121,6.256875589926664,0.026660348374597964,0.09691762779436308,0.21406068356382146,0.3883187181724659,0.48911980551152867,0.5803981873938742,0.5994524848417374,0.6379609992695102,0.6857295109062862,0.8053954973705988,0.8453263185186561,0.9186249150378267,0.9788254901082957,1.0062269331267966,1.0062269331267966,1.0062269331267966,1.0303768265243125,1.0303768265243125,1.0303768265243125,1.0303768265243125,1.0303768265243125,1.0303768265243125,1.0303768265243125,1.0303768265243125,1.0303768265243125,1.0303768265243125,1.0303768265243125,1.0303768265243125,1.0303768265243125,1.0303768265243125,1.0303768265243125,1.0303768265243125,1.0303768265243125,1.0303768265243125,1.0303768265243125,1.0303768265243125,1.0303768265243125,1.0303768265243125,1.0303768265243125,1.1071487177940904,1.1393956002293444,1.2306992072851342,1.3083369269686203,1.4288992721907325,1.5291537476963082,1.6506263125071339,1.7234456551901618,1.7975951748487824,1.8692952583810758,1.9114125672132096,1.9447382467786425,1.9983771084795232,2.014244663214635,2.0344439357957027,2.0639919836975964,2.0831857871056343,2.092630606609307,2.1112158270654806,2.1112158270654806,2.120356340321276,2.120356340321276,2.120356340321276,2.120356340321276,2.120356340321276,2.120356340321276,2.120356340321276,2.120356340321276,2.120356340321276,2.120356340321276,2.120356340321276,2.120356340321276,2.120356340321276,2.120356340321276,2.120356340321276,2.120356340321276,2.120356340321276,2.120356340321276,2.120356340321276,2.120356340321276,2.120356340321276,2.173634637061438,2.2386289160547013,2.2697959408338977,2.3641943195322312,2.429235055495464,2.507569933926371,2.5891737292694477,2.6367312819306665,2.6882539577352302,2.7425317050136595,2.9116882254578886,2.9116882254578886,2.96983250226159,3.002496712107722,3.0256106691094686,3.0362152144008507,3.065549094310676,3.065549094310676,3.0756506638085233,3.0756506638085233,3.085576550046614,3.085576550046614,3.085576550046614,3.1049118658331416,3.1140766643043385,3.123412838516815,3.1326643194099564,3.141592653589793,3.141592653589793,3.141592653589793,3.141592653589793,3.141592653589793,3.141592653589793,3.141592653589793,3.141592653589793,3.141592653589793,3.141592653589793,3.141592653589793,3.141592653589793,3.141592653589793,3.141592653589793,3.141592653589793,3.141592653589793,3.141592653589793,3.141592653589793,3.141592653589793,3.141592653589793,3.141592653589793,3.141592653589793,3.141592653589793,3.141592653589793,3.141592653589793,3.141592653589793,3.141592653589793]],"response_history":["3"],"rt":62110,"trial_type":"polygon-arrow-question","trial_index":0,"trial_index_global":3,"time_elapsed":444833,"internal_chunk_id":"0-0.3-0"},{"nsides":6,"feedback":"Correct! 4 <img src=./images/hexagon_symbol.png style=width:14px;height:14px> 5 = 3 because 5 steps clockwise on the hexagon from 4 brings us to 3. Equivalently, 4 + 5 = 9 and 9 - 6 = 3.","orientation_history":[0],"rt":4109,"trial_type":"polygon-arrow-feedback","trial_index":0,"trial_index_global":4,"time_elapsed":448944,"internal_chunk_id":"0-0.3-0"},{"nsides":6,"question":"What is 3 <img src=./images/hexagon_symbol.png style=width:14px;height:14px> 2? Try to solve this problem using the hexagon. <br /><br /> (Remember, to perform <img src=./images/hexagon_symbol.png style=width:14px;height:14px> on the hexagon , you ca n use the interactive diagram on the right, or perform the operation in your mind. Point the arrow at the first number on the hexagon, and then move the arrow the second number of points clockwise around the hexagon.)","response_type":"free","response_choices":[],"correct_response":"5","response":"5","orientation_history":[[0],[0,0,0,0,0,0.08191764345020291,0.1713014786000373,0.3164920577302761,0.5094561597079739,0.7205286782438804,0.8294387807088217,1.0114791166634325,1.1538752443760254,1.2702839163574016,1.3988004915529377,1.501385841391568,1.6059058603546792,1.6913118554423474,1.7759831352990516,1.8540349270086123,1.8874889058780095,1.9415444106822883,1.9831549199970382,1.9933215083331461,2.057511903879121,2.087512580570649,2.1786917459280173,2.2426320050564525,2.281311033632986,2.3255751172832086,2.36904425020027,2.4190389640901007,2.463523378540649,2.4943856322748275,2.5547517595567975,2.6193900564498156,2.6760344622748393,2.748974685299634,2.8037144653495147,2.8381835663490227,2.8779023830421373,2.9010490107090114,2.921806493768609,2.921806493768609,2.953274205223218,2.9744496768247974,2.995762482590245,3.017194428885701,3.0603398564117708,3.082480759878386,3.082480759878386,3.0932181373109033,3.0932181373109033,3.0932181373109033,3.0932181373109033,3.0932181373109033,3.0932181373109033,3.0932181373109033,3.0932181373109033,3.0932181373109033,3.1039629577599257,3.114712745955056,3.125465019746157,3.157711902181411,3.157711902181411,3.157711902181411,3.157711902181411,3.157711902181411,3.157711902181411,3.157711902181411,3.157711902181411,3.157711902181411,3.157711902181411,3.157711902181411,3.157711902181411,3.157711902181411,3.157711902181411,3.157711902181411,3.157711902181411,3.157711902181411,3.157711902181411,3.157711902181411,3.157711902181411,3.157711902181411,3.157711902181411,3.157711902181411,3.157711902181411,3.157711902181411,3.157711902181411,3.157711902181411,3.157711902181411,3.157711902181411,3.157711902181411,3.157711902181411,3.157711902181411,3.1803548823403105,3.2297366316738123,3.4511066050894437,3.543689349325386,3.731009683351127,3.910863183143605,3.991334194409066,4.072238293564297,4.154071936614175,4.21951405022047,4.249418878055289,4.277118743574382,4.299443202590501,4.312595422280447,4.326674972168234,4.3560432348963705,4.358805277313272,4.358805277313272,4.358805277313272,4.36930250590534,4.36930250590534,4.36930250590534,4.36930250590534,4.36930250590534,4.36930250590534,4.36930250590534,4.36930250590534,4.384981613649108,4.4329547969718925,4.470108910808252,4.5696692192610815,4.696261346541053,4.83950429535274,4.936621104870861,5.023999853321609,5.097490145545902,5.168207520226529,5.205145563321027,5.24136099984773,5.256770879236458,5.27188834430142,5.27188834430142,5.27188834430142,5.27188834430142,5.276782792901393,5.276782792901393,5.276782792901393,5.276782792901393,5.276782792901393,5.276782792901393,5.276782792901393,5.276782792901393,5.276782792901393,5.276782792901393,5.276782792901393,5.276782792901393,5.276782792901393,5.276782792901393,5.276782792901393,5.276782792901393,5.276782792901393,5.276782792901393,5.276782792901393,5.276782792901393,5.276782792901393,5.276782792901393,5.276782792901393,5.276782792901393,5.276782792901393,5.276782792901393,5.276782792901393,5.276782792901393,5.276782792901393,5.276782792901393,5.276782792901393,5.276782792901393,5.235987755982988]],"response_history":["5"],"rt":13336,"trial_type":"polygon-arrow-question","trial_index":0,"trial_index_global":5,"time_elapsed":462281,"internal_chunk_id":"0-0.3-0"},{"nsides":6,"feedback":"Correct! 3 <img src=./images/hexagon_symbol.png style=width:14px;height:14px> 2 = 5 because 2 steps clockwise on the hexagon from 3 brings us to 5. Equivalently, 3 + 2 = 5 and 5 is less than 6.","orientation_history":[0],"rt":3902,"trial_type":"polygon-arrow-feedback","trial_index":0,"trial_index_global":6,"time_elapsed":466184,"internal_chunk_id":"0-0.3-0"},{"nsides":6,"question":"What is 1 <img s rc=./i mages/hexagon_symbol.png style=width:14px;height:14px> 5? Try to solve this probem using the arithmetic technique. <br /><br /> (Remember, to perform <img src=./images/hexagon_symbol.png style=width:14px;height:14px> by arithmetic, you start with the first number, and then add the second one to it. If the sum is smaller than 6, that's your result. If the sum is 6 or bigger, you subtract 6 to get your result.)","response_type":"free","response_choices":[],"correct_response":"0","response":"0","orientation_history":[[0],[0,0,0,0,0.1469022652320615,0.2315810435204495,0.3305245914013417,0.45014121097645865,0.629994710768937,0.629994710768937,0.6765198169414011,0.7136314827555678,0.7667329732335849,0.818753609662818,0.9153241309510723,0.9153241309510723,0.9380474917927134,0.9380474917927134,0.9380474917927134,0.9380474917927134,0.9380474917927134,0.9380474917927134,0.9380474917927134,0.9380474917927134,0.9380474917927134,0.9380474917927134,0.9380474917927134,0.9575255476092408,0.9775006928897529,0.9775006928897529,0.9876755819940508,1.0039584815119935,1.014311253024923,1.0247858304686985,1.03538203715221,1.03538203715221,1.0569380598549871,1.0624024863394748,1.0624024863394748,1.0624024863394748,1.0624024863394748,1.0624024863394748,1.0624024863394748,1.0624024863394748,1.0624024863394748,1.0624024863394748,1.0624024863394748,1.0624024863394748,1.0624024863394748,1.0624024863394748,1.073271623516745,1.073271623516745,1.073271623516745,1.073271623516745,1.073271623516745,1.073271623516745,1.073271623516745,1.073271623516745,1.073271623516745,1.073271623516745,1.073271623516745,1.073271623516745,1.073271623516745,1.073271623516745,1.073271623516745,1.073271623516745,1.073271623516745,1.073271623516745,1.073271623516745,1.073271623516745,1.073271623516745,1.073271623516745,1.073271623516745,1.073271623516745,1.073271623516745,1.073271623516745,1.073271623516745,1.073271623516745,1.073271623516745,1.073271623516745,1.095357583953773,1.095357583953773,1.1293414324490672,1.2357851954112367,1.3114572138490574,1.3985405371250426,1.487607505319093,1.5884689053362382,1.7210703627452022,1.7797241914789237,1.847800649736923,1.912925813071309,1.9647029107221667,2.0140831135138058,2.051818629329472,2.0700927681623256,2.0790815394909217,2.0967633555296405,2.0967633555296405,2.0967633555296405,2.0967633555296405,2.0967633555296405,2.0967633555296405,2.0967633555296405,2.0967633555296405,2.0967633555296405,2.0967633555296405,2.0967633555296405,2.0967633555296405,2.0967633555296405,2.0967633555296405,2.0967633555296405,2.0967633555296405,2.111162533524708,2.21797147757914,2.3114482587377294,2.369235089508667,2.495192789476852,2.6502426171293694,2.7955011984250735,2.9295924846729164,3.0351962514959183,3.132975272647953,3.215336381293316,3.2829045992841817,3.355301358343196,3.384127875532312,3.398465468401417,3.398465468401417,3.398465468401417,3.4285634239380265,3.4285634239380265,3.4285634239380265,3.4285634239380265,3.4285634239380265,3.4285634239380265,3.4285634239380265,3.4285634239380265,3.4285634239380265,3.4285634239380265,3.4285634239380265,3.4482912161387294,3.475392017446671,3.550924945228373,3.6335345964391026,3.8440951646616437,3.896949407910477,3.9833479572689248,4.055320616702479,4.098010781939669,4.111043430919851,4.111043430919851,4.111043430919851,4.115987766401528,4.115987766401528,4.115987766401528,4.115987766401528,4.115987766401528,4.115987766401528,4.115987766401528,4.115987766401528,4.115987766401528,4.115987766401528,4.115987766401528,4.115987766401528,4.115987766401528,4.115987766401528,4.115987766401528,4.1239974533968695,4.140251827396581,4.182259433087475,4.226213705255987,4.310076897353643,4.440843900876189,4.536531100447528,4.65665418024734,4.766223262568877,4.852327129016529,4.883983410303365,4.915205385634094,4.935753531999901,4.956072307448469,4.956072307448469,4.956072307448469,4.956072307448469,4.956072307448469,4.956072307448469,4.956072307448469,4.956072307448469,4.956072307448469,4.956072307448469,4.956072307448469,4.956072307448469,4.956072307448469,4.956072307448469,4.98609298527623,5.092474911849417,5.194929795944361,5.3068054901477355,5.437890556452753,5.543700799528267,5.676517513468156,5.810974762709745,5.986483781606334,6.04104351587509,6.1004330520674515,6.120802905046675,6.13074920489215,6.160337398004986,6.168985749729648,6.169582586423926,6.178167337040578,6.178167337040578,6.178167337040578,6.178167337040578,6.178167337040578,6.178167337040578,6.178167337040578,6.178167337040578,6.178167337040578,6.178167337040578,6.178167337040578,6.178167337040578,6.178167337040578,6.178167337040578,6.178167337040578,6.178167337040578,6.178167337040578,6.178167337040578,6.178167337040578,6.178167337040578,6.178167337040578,6.178167337040578,6.178167337040578,6.178167337040578,6.178167337040578,6.178167337040578,6.178167337040578,6.178167337040578,6.178681249336574,6.196446968503601,6.205930207442947,6.206192193289716,6.214443682133101,6.214634049539901,6.214634049539901,6.214634049539901,6.214634049539901,6.214634049539901,6.214634049539901,6.214634049539901,6.214634049539901,6.214634049539901,6.214634049539901,6.214634049539901,6.214634049539901,6.214634049539901,6.214634049539901,6.214634049539901,6.214634049539901,6.214634049539901,6.214634049539901,6.214634049539901,6.214634049539901,6.214634049539901,6.214634049539901,6.214634049539901,6.214634049539901,6.214634049539901,6.214634049539901,-0.04474623145461565,-0.04474623145461565,-0.037054075478966775,-0.03722757614231176,-0.03722757614231176,-0.03722757614231176,-0.03722757614231176,-0.03722757614231176,-0.03722757614231176,-0.03722757614231176,-0.03722757614231176,-0.03722757614231176,-0.03722757614231176,-0.03722757614231176,-0.03722757614231176,-0.03722757614231176,-0.03722757614231176,-0.03722757614231176,-0.03722757614231176,-0.03722757614231176,-0.03722757614231176,-0.03722757614231176,-0.03722757614231176,-0.03722757614231176,-0.03722757614231176,-0.03722757614231176,-0.03722757614231176,-0.03722757614231176,-0.03722757614231176,-0.03722757614231176,-0.03722757614231176,-0.03722757614231176,-0.03722757614231176,-0.03722757614231176,-0.03722757614231176,-0.03722757614231176,-0.03722757614231176,-0.03722757614231176,-0.02970977079575432,-0.029821966464530725,-0.029821966464530725,-0.029821966464530725,-0.029821966464530725,-0.029821966464530725,-0.029821966464530725,-0.029821966464530725,-0.029821966464530725,-0.029821966464530725,-0.029821966464530725,-0.029821966464530725,-0.029821966464530725,-0.029821966464530725,-0.029821966464530725,-0.029821966464530725,-0.029821966464530725,-0.029821966464530725,-0.029821966464530725,-0.029821966464530725,-0.029821966464530725,-0.029821966464530725,-0.029821966464530725,-0.029821966464530725,-0.029821966464530725,0]],"response_history":["0"],"rt":33455,"trial_type":"polygon-arrow-question","trial_index":0,"trial_index_global":7,"time_elapsed":499641,"internal_chunk_id":"0-0.3-0"},{"nsides":6,"feedback":"Correct!  1 <img s rc=./images/hexagon_symbol.png style=width:14px;height:14px> 5 = 0 because 1 + 5 = 6 and 6 - 6 = 0.  Equivalently, 5 steps clockwise on the hexagon from 1 brings us to 0.","orientation_history":[0],"rt":2206,"trial_type":"polygon-arrow-feedback","trial_index":0,"trial_index_global":8,"time_elapsed":501848,"internal_chunk_id":"0-0.3-0"},{"nsides":6,"question":"What is 1 <img src=./images/hexagon_symbol.png style=width:14px;height:14px> 1? Try to solve this problem using the hexagon. <br /><br /> (Remember, to perform <img src=./images/hexagon_symbol.png style=width:14px;height:14px> on the hexagon, you can use the interactive diagram on the right, or perform the operation in your mind. Point the arrow at the first number on the hexagon, and then move the arrow the second number of points clockwise around the hexagon.)","response_type":"free","response_choices":[],"correct_response":"2","response":"2","orientation_history":[[0]],"response_history":["2"],"rt":6239,"trial_type":"polygon-arrow-question","trial_index":0,"trial_index_global":9,"time_elapsed":508088,"internal_chunk_id":"0-0.3-0"},{"nsides":6,"feedback":"Correct! 1 <img src=./images/hexagon_symbol.png style=width:14px;height:14px> 1 = 2 because 1 step clockwise on the hexagon from 1 brings us to 2. Equivalently, 1 + 1 = 2 and 2 is less than 6.","orientation_history":[0],"rt":1495,"trial_type":"polygon-arrow-feedback","trial_index":0,"trial_index_global":10,"time_elapsed":509584,"internal_chunk_id":"0-0.3-0"},{"nsides":6,"question":"What is 3 <img src=./images/hexagon_symbol.png style=width:14px;height:14px> 0? Try to solve this problem using the arithmetic technique. <br /><br /> (Remember, to perform <img src=./images/hexagon_symbol.png style=width:14px;height:14px> using arithmetic, you start with the first number, and then add the second one to it. If the sum is smaller than 6, that's your result. If the sum is 6 or bigger, you subtract 6 to ge t your r esult.)","response_type":"free","response_choices":[],"correct_response":"3","response":"3","orientation_history":[[0],[0,0,0.01693780009771273,0.05074549288756369,0.10524764088495031,0.2141431373894922,0.29826716994430624,0.49015097458593204,0.6743893989630572,0.8928056281378048,1.1356244674092626,1.487280633212668,1.8480833620996795,2.120578014511998,2.324322695395855,2.4499041815598357,2.511437774908879,2.5888338858229245,2.6390230304859195,2.666205801021654,2.6859923084015023,2.712837818421672,2.7251296297840133,2.7682081715631917,2.7967218082819647,2.824039453740993,2.8658742318196904,2.888736506714917,2.9272495639335077,2.965621944027127,3.0059397866402113,3.0331581069118805,3.06965474857524,3.078805697902271,3.0879643360267366,3.0879643360267366,3.0879643360267366,3.0971291344979335,3.0971291344979335,3.106298558670268,3.1154710692382785,3.1154710692382785,3.1154710692382785,3.1154710692382785,3.1154710692382785,3.1154710692382785,3.1154710692382785,3.1154710692382785,3.1154710692382785,3.1154710692382785,3.142991688896508,3.142991688896508,3.142991688896508,3.142991688896508,3.142991688896508,3.142991688896508,3.142991688896508,3.142991688896508,3.141592653589793]],"response_history":["3"],"rt":6711,"trial_type":"polygon-arrow-question","trial_index":0,"trial_index_global":11,"time_elapsed":516297,"internal_chunk_id":"0-0.3-0"},{"nsides":6,"feedback":"Correct! 3 <img src=./images/hexagon_symbol.png style=width:14px;height:14px> 0 = 3 because 3 + 0 = 3 and 3 - 6 = 3.  Equivalently, 0 steps clockwise on the hexagon from 3 brings us to 3.","orientation_history":[0],"rt":1351,"trial_type":"polygon-arrow-feedback","trial_index":0,"trial_index_global":12,"time_elapsed":517648,"internal_chunk_id":"0-0.3-0"},{"nsides":6,"question":"What is 4 <img src=./images/hexagon_symbol.png style=width:14px;height:14px> 4? Try to solve this problem using the hexagon. <br /><br /> (Remember, to perform <img src=./images/hexagon_symbol.png style=width:1 4px;height:14px> on the hexagon, you can use the interactive diagram on the right, or perform the operation in your mind. Point the arrow at the first number on the hexagon, and then move the arrow the second number of points clockwise around the hexagon.)","response_type":"free","response_choices":[],"correct_response":"2","response":"2","orientation_history":[[0],[0,0,0,0.0006571740565439743,0.005051677017948508,0.010402398842659366,0.02556551633049642,0.046570829802673464,0.08026593714868979,0.1670042758246748,0.4963304428725124,2.578357481945199,2.81920393718661,2.9092820908869506,2.9207947401216847,2.9323549187770945,2.9375904730335023,2.951491338480446,2.951491338480446,3.0420050909460046,3.1530021014374383,3.3548273111628104,3.6675440598914317,3.7691097524454618,3.90789655320809,3.9650692819508695,4.024798814193334,4.068249709584864,4.106806259719519,4.141153979400208,4.177631864798547,4.2195765789758966,4.252235417262796,4.291588594068555,4.298966265312993,4.298966265312993,4.298966265312993,4.302552621724274,4.302552621724274,4.302552621724274,4.302552621724274,4.302552621724274,4.302552621724274,4.302552621724274,4.302552621724274,4.302552621724274,4.29330819585325,4.29330819585325,4.29330819585325,4.29330819585325,4.29330819585325,4.29330819585325,4.29330819585325,4.29330819585325,4.29330819585325,4.29330819585325,4.29330819585325,4.29330819585325,4.29330819585325,4.29330819585325,4.29330819585325,4.29330819585325,4.29330819585325,4.29330819585325,4.29330819585325,4.29330819585325,4.29330819585325,4.37879625102523,4.468859376212383,4.647469602950402,4.741087771590543,4.843566298989699,4.913278586113482,4.9993959996907495,5.0541825923846915,5.08941999736764,5.115142391472382,5.140246096672094,5.140246096672094,5.140246096672094,5.140246096672094,5.140246096672094,5.140246096672094,5.140246096672094,5.140246096672094,5.140246096672094,5.140246096672094,5.140246096672094,5.148474952590145,5.202370302223226,5.2537051297778845,5.371690640857881,5.544357973584811,5.648383625768016,5.775448640780708,5.8879424071808675,5.972046116203066,6.041700689931634,6.050457033557011,6.06805662431259,6.06805662431259,6.06805662431259,6.06805662431259,6.06805662431259,6.06805662431259,6.06805662431259,6.06805662431259,6.06805662431259,6.06805662431259,6.06805662431259,6.06805662431259,6.06805662431259,6.06805662431259,6.06805662431259,6.06805662431259,6.06805662431259,6.06805662431259,6.06805662431259,6.06805662431259,6.06805662431259,6.06805662431259,6.076897416318133,6.148436362580769,6.21183028132592,0.010402398842659366,0.12695056807085203,0.20088960572879233,0.313657023067099,0.4080648048877038,0.4863734461902305,0.5733168343535009,0.6281581244088921,0.6696090224670832,0.6921683715833564,0.703076379563775,0.7139934974346146,0.7301984521017691,0.7357843003337039,0.7413091059993766,0.7413091059993766,0.7413091059993766,0.7468956400600325,0.757882174111994,0.7635276713260957,0.769234805391989,0.7746301018776238,0.7803953346358251,0.7803953346358251,0.7803953346358251,0.786222701469166,0.7915461308587175,0.821595921282393,0.8277980059177513,0.8635042766907316,0.9672005132860055,1.0287220172635068,1.1066827617441735,1.1818394466158897,1.2977822728812158,1.4011575322882992,1.4878918233153613,1.5655227154782885,1.633100124095729,1.6902811449636834,1.7091226764793357,1.7464039641380955,1.755632265912434,1.7648210518068361,1.7786625635154611,1.797143394549825,1.8273129394392202,1.8544457761773803,1.8575210197391754,1.8665281458196914,1.8665281458196914,1.8665281458196914,1.884370520408031,1.8932040552480827,1.9142310751771037,1.9353257465039737,1.9439746614691096,1.9478273437778468,1.9564695484935135,1.9650438292547827,1.9818080779650193,1.990354878397631,1.990354878397631,1.990354878397631,1.990354878397631,1.990354878397631,1.990354878397631,1.990354878397631,1.990354878397631,1.990354878397631,1.990354878397631,1.990354878397631,1.999012670727378,1.999012670727378,1.999012670727378,1.999012670727378,1.999012670727378,1.999012670727378,1.999012670727378,1.999012670727378,1.999012670727378,1.999012670727378,1.999012670727378,1.999012670727378,2.0943951023931953]],"response_history":["2"],"rt":8567,"trial_type":"polygon-arrow-question","trial_index":0,"trial_index_global":13,"time_elapsed":526216,"internal_chunk_id":"0-0.3-0"},{"nsides":6,"feedback":"Correct! 4 <img src=./images/hexagon_symbol.png style=width:14px;height:14px> 4 = 2 because 4 steps clockwise on the hexagon from 4 brings us to 2. Equivalently, 4 + 4 = 8 and 8 - 6 = 2.","orientation_history":[0],"rt":2943,"trial_type":"polygon-arrow-feedback","trial_index":0,"trial_index_global":14,"time_elapsed":529160,"internal_chunk_id":"0-0.3-0"},{"nsides":6,"question":"What is 1 <img src=./images/hexagon_symbol.png style=width:14px;height:14px> 3? Try to solve this problem using the arithmetic technique. <br /><br /> (Remember, to perform <img src=./images/hexagon_symbol.png style=width:14px;height:14px> by arithmetic,  you star t with the first number, and then add the second one to it. If the sum is smaller than 6, that's your result. If the sum is 6 or bigger, you subtract 6 to get your result.)","response_type":"free","response_choices":[],"correct_response":"4","response":"4","orientation_history":[[0]],"response_history":["4"],"rt":3999,"trial_type":"polygon-arrow-question","trial_index":0,"trial_index_global":15,"time_elapsed":533160,"internal_chunk_id":"0-0.3-0"},{"nsides":6,"feedback":"Correct! 1 <img src=./images/hexagon_symbol.png style=width:14px;height:14px> 3 = 4 because 1 + 3 = 4 and 4 - 6 = 4.  Equivalently, 3 steps clockwise on the hexagon from 1 brings us to 4.","orientation_history":[0],"rt":1271,"trial_type":"polygon-arrow-feedback","trial_index":0,"trial_index_global":16,"time_elapsed":534432,"internal_chunk_id":"0-0.3-0"},{"nsides":6,"question":"What is 4 <img src=./images/hexagon_symbol.png style=width:14px;height:14px> 3? <br /><br /> (Remember, to perform <im g src= ./images/hexagon_symbol.png style=width:14px;height:14px>, you can either use a method based on the hexagon at right, or a method based on arithmetic.<br /><br /><b>Hexagon method:</b> you can use the interactive diagram on the right, or perform the operation in your mind. Point the arrow at the first number, then move the arrow the second number of points clockwise around the hexagon. The number the arrow arrives at is your result. <br /><br /><b>Arithmetic method:</b> you start with the first number, and then add the second one to it. If the sum is smaller than 6, that's your result. If the sum is 6 or bigger, you subtract 6 to get your result.)","response_type":"free","response_choices":[],"correct_response":"1","response":"1","orientation_history":[[0],[-0.0041724375392835356,-0.046829472287844176,-0.11659956836947405,-0.24915110066614776,-0.29457438008772474,-0.3685800266844863,-0.5445919378098685,-0.7895706009367318,-1.046043010778627,-1.3142534165272268,-1.5366394630855895,-1.674905729134438,-1.8102389946269355,-1.8994256720692508,-1.9561948246616234,-2.003058244723529,-2.0173429873109248,-2.0293744922901666,-2.0512283172150427,-2.0512283172150427,-2.0689101332537616,-2.071995886387957,-2.089008457988018,-2.097372196050709,-2.1025023799306313,-2.110519005291997,-2.110519005291997,-2.110519005291997,-2.110519005291997,-2.110519005291997,-2.110519005291997,-2.110519005291997,-2.110519005291997,-2.110519005291997,-2.110519005291997,-2.110519005291997,-2.110519005291997,-2.110519005291997,-2.110519005291997,-2.110519005291997,-2.110519005291997,-2.110519005291997,-2.110519005291997,-2.110519005291997,-2.110519005291997,-2.110519005291997,-2.110519005291997,-2.110519005291997,-2.110519005291997,-2.110519005291997,-2.110519005291997,-2.110519005291997,-2.077912373508081,-2.013441836750445,-1.917538520614432,-1.8017676123880664,-1.64178026671087,-1.510244482918588,-1.378292887699378,-1.284636439583914,-1.2056351066605542,-1.1620588222788344,-1.1367559821708495,-1.1261291142062815,-1.1261291142062815,-1.1261291142062815,-1.1261291142062815,-1.1261291142062815,-1.1261291142062815,-1.115589658706602,-1.079972543485173,-1.0445991769566305,-0.9734011014142956,-0.922772222529118,-0.8108439869607933,-0.7127987096669539,-0.5914467090961901,-0.47905552879805224,-0.3718197561706047,-0.18422699623931305,-0.1378307496159792,0.021362286327075708,-6.194458219605456,-6.132619219617549,-6.062425832717261,-6.027475036186608,-5.9989867033751985,-6.000497040230009,-5.993474538714187,-5.993474538714187,-5.993474538714187,-5.993474538714187,-5.993474538714187,-5.993474538714187,-5.993474538714187,-5.993474538714187,-5.993474538714187,-5.97253948828431,-5.904355117174877,-5.8313764924706435,-5.719422255162831,-5.642838306338686,-5.5827492596373025,-5.515847577252389,-5.478235219813115,-5.46481451230557,-5.46481451230557,-5.46481451230557,-5.46481451230557,-5.46481451230557,-5.46481451230557,-5.46481451230557,-5.46481451230557,-5.46481451230557,-5.46481451230557,-5.46481451230557,-5.46481451230557,-5.46481451230557,-5.46481451230557,-5.46481451230557,-5.46481451230557,1.0471975511965976]],"response_history":["1"],"rt":7912,"trial_type":"polygon-arrow-question","trial_index":0,"trial_index_global":17,"time_elapsed":542344,"internal_chunk_id":"0-0.3-0"},{"nsides":6,"feedback":"Correct! 4 <img src=./images/hexagon_symbol.png style=width:14px;height:14px> 3 = 1 because 3 steps clockwise on the hexagon from 4 brings us to 1. Equivalently, 4 + 3 = 7 and 7 - 6 = 1.","orientation_history":[0],"rt":2711,"trial_type":"polygon-arrow-feedback","trial_index":0,"trial_index_global":18,"time_elapsed":545056,"internal_chunk_id":"0-0.3-0"},{"nsides":6,"question":"What is 0 <img src=./images/hexagon_symbol.png style=width:14px;height:14px> 5? <br /><br /> (Remember, to perform <img src=./images/hexagon_symbol.png style=width:14px;height:14px>, you can either use a method based on the hexagon at right, or a method base d on ari thmetic.<br /><br /><b>Hexagon method:</b> you can use the interactive diagram on the right, or perform the operation in your mind. Point the arrow at the first number, then move the arrow the second number of points clockwise around the hexagon. The number the arrow arrives at is your result. <br /><br /><b>Arithmetic method:</b> you start with the first number, and then add the second one to it. If the sum is smaller than 6, that's your result. If the sum is 6 or bigger, you subtract 6 to get your result.)","response_type":"free","response_choices":[],"correct_response":"5","response":"5","orientation_history":[[0],[0,0,0,0,0,0,0,0.01491761967702443,0.1377250634051801,0.3251728545196775,0.41647646157546725,0.5730783385574826,0.7096793425325744,0.7535263686009585,0.8359539233308282,0.9146282855205177,0.9496343976177787,0.9916038729468799,1.0354136123536624,1.0733587667823348,1.0922244528040055,1.0922244528040055,1.0922244528040055,1.0922244528040055,1.0922244528040055,1.0922244528040055,1.0922244528040055,1.0922244528040055,1.0922244528040055,1.0922244528040055,1.0922244528040055,1.0922244528040055,1.0922244528040055,1.0922244528040055,1.0922244528040055,1.0922244528040055,1.0922244528040055,1.0922244528040055,1.0922244528040055,1.0922244528040055,1.1110015883964381,1.1495777518951713,1.193327824540304,1.2760549532815684,1.351854082212263,1.441431756534748,1.5214029608053037,1.6475682180646747,1.689895263384875,1.7661979354698694,1.8708659622656685,1.9305532620875878,1.9498650970770495,1.9782586982521386,1.9967963099639767,2.0059458438872486,2.0150151967670498,2.024003945680434,2.0417382361323364,2.0688070757984685,2.0774903589011986,2.0774903589011986,2.0774903589011986,2.0774903589011986,2.0774903589011986,2.0774903589011986,2.0774903589011986,2.0774903589011986,2.0774903589011986,2.0774903589011986,2.0774903589011986,2.0774903589011986,2.0774903589011986,2.0774903589011986,2.0774903589011986,2.0774903589011986,2.0774903589011986,2.0774903589011986,2.0774903589011986,2.094599516312857,2.11555362780809,2.1554683487738293,2.210242307775366,2.269394255645925,2.36605853523956,2.4350117667465083,2.5319091311163557,2.630245635194827,2.690791416192323,2.7621423861927736,2.8010268032564216,2.828169457013529,2.8668540187538705,2.8729942924610654,2.8729942924610654,2.8729942924610654,2.8729942924610654,2.8729942924610654,2.8729942924610654,2.8729942924610654,2.8729942924610654,2.8729942924610654,2.8729942924610654,2.8729942924610654,2.8845966940285894,2.919794439619965,2.943557571337224,2.9795900332113057,3.028222229387075,3.0527293509417683,3.0896482727257784,3.1266683885997084,3.1523037971213856,3.1923631901521734,3.2609898305526768,3.3348743381236954,3.46199276991472,3.6157881941112366,3.781500457197529,3.932063885970307,4.061879008570054,4.184406805985566,4.289596747420695,4.361826165066996,4.385747269145338,4.402023878250885,4.405021727942569,4.427615559456136,4.427615559456136,4.427615559456136,4.440141000423517,4.440141000423517,4.440141000423517,4.440141000423517,4.440141000423517,4.440141000423517,4.440141000423517,4.440141000423517,4.440141000423517,4.459930083498993,4.489968488959403,4.571814384784759,4.687260987900651,4.768772180179895,4.839361769998769,4.9279865544379735,5.003831868010652,5.076210530945689,5.119469745296823,5.1692422265753555,5.193229790499046,5.2166108296411275,5.224269323233661,5.224269323233661,5.231860192149019,5.231860192149019,5.231860192149019,5.231860192149019,5.231860192149019,5.231860192149019,5.231860192149019,5.231860192149019,5.231860192149019,5.231860192149019,5.231860192149019,5.231860192149019,5.231860192149019,5.231860192149019,5.231860192149019,5.231860192149019,5.231860192149019,5.231860192149019,5.231860192149019,5.231860192149019,5.231860192149019,5.231860192149019,5.231860192149019,5.231860192149019,5.235987755982988]],"response_history":["5"],"rt":20743,"trial_type":"polygon-arrow-question","trial_index":0,"trial_index_global":19,"time_elapsed":565801,"internal_chunk_id":"0-0.3-0"},{"nsides":6,"feedback":"Correct! 0 <img src=./images/hexagon_symbol.png style=width:14px;height:14px> 5 = 5 because 5 steps clockwise on the hexagon from 0 brings us to 5. Equivalently, 0 + 5 = 5 and 5 is less than 6.","orientation_history":[0],"rt":1263,"trial_type":"polygon-arrow-feedback","trial_index":0,"trial_index_global":20,"time_elapsed":567065,"internal_chunk_id":"0-0.3-0"},{"nsides":6,"question":"What is 2 <img src=./images/hexagon_symbol.png style=width:14px;height:14px> 5? <br /><br /> (Remember, to perform <img src=./images/hexagon_symbol.png style=width:14px;height:14px>, you can either use a method based on the hexagon at right, or a method based on arithmetic.<br /><br /><b>Hexagon method:</b> you can use the interactive diagram on the right, or perform the operation in your mind. Point the arrow at the first number, then move the arrow the second number of points clockwise around the hexagon. The number the arrow arrives  at is yo ur result. <br /><br /><b>Arithmetic method:</b> you start with the first number, and then add the second one to it. If the sum is smaller than 6, that's your result. If the sum is 6 or bigger, you subtract 6 to get your result.)","response_type":"free","response_choices":[],"correct_response":"1","response":"1","orientation_history":[[0],[0.04388703007261596,0.04388703007261596,0.06371950856314168,0.14176204717957597,0.2746102933611705,0.47416221731376074,0.7596215475541012,1.0517153251931575,1.5488736100214946,1.7423579247755727,1.8701803118063607,1.9117868158688895,1.9749742939645505,2.0280307220581277,2.0514084670688693,2.0570671824869042,2.06268194661634,2.06268194661634,2.06268194661634,2.0737802700577213,2.0847048172293148,2.100769126048713,2.1112660505599896,2.121594927903769,2.121594927903769,2.121594927903769,2.121594927903769,2.121594927903769,2.121594927903769,2.121594927903769,2.121594927903769,2.121594927903769,2.121594927903769,2.121594927903769,2.121594927903769,2.121594927903769,2.121594927903769,2.121594927903769,2.121594927903769,2.121594927903769,2.121594927903769,2.121594927903769,2.121594927903769,2.121594927903769,2.121594927903769,2.121594927903769,2.1297896980947515,2.1688341300658847,2.2218113558950634,2.2987294777383966,2.3895424320976932,2.493355984300166,2.5849610053804817,2.6570050077596834,2.6946324140067226,2.7138215650982866,2.7430481565583973,2.7628121688335003,2.782786135243382,2.7928478808901236,2.80519818988802,2.80519818988802,2.80519818988802,2.815256082586825,2.8253567491721476,2.8253567491721476,2.855897148622239,2.855897148622239,2.855897148622239,2.855897148622239,2.855897148622239,2.866150432040013,2.876437021016998,2.8971019784121816,2.917875370291794,2.9701692474110866,3.0122263819903026,3.0543207655098064,3.096303599510568,3.169067597027058,3.2100062287555113,3.2425473805460605,3.2627184828006746,3.302456461485659,3.3250248076021425,3.376749745853924,3.4409766386012572,3.486399918022834,3.544370606118415,3.6024678094657068,3.68548181691502,3.7354312438662225,3.768697271322437,3.7953306619465756,3.8144396976721837,3.8270161584411473,3.8451705882934064,3.856892323729408,3.868318723574486,3.8803141013791342,3.901991685048813,3.918807693593372,3.946790209553635,3.972372366040136,4.001244983522465,4.029197535094495,4.047893581289933,4.0725316163632215,4.090055018476713,4.110101634249726,4.1397046342954145,4.171677349393915,4.202557714978785,4.240558247990014,4.289417403317908,4.3351704396901,4.393464910399157,4.43729849993894,4.493215531596304,4.553834428983686,4.553834428983686,4.553834428983686,4.553834428983686,4.553834428983686,4.553834428983686,4.553834428983686,4.553834428983686,4.553834428983686,4.553834428983686,4.553834428983686,4.553834428983686,4.553834428983686,4.553834428983686,4.553834428983686,4.553834428983686,4.553834428983686,4.553834428983686,4.553834428983686,4.553834428983686,4.553834428983686,4.553834428983686,4.553834428983686,4.553834428983686,4.553834428983686,4.553834428983686,4.553834428983686,4.553834428983686,4.553834428983686,4.553834428983686,4.553834428983686,4.553834428983686,4.553834428983686,4.553834428983686,4.553834428983686,4.553834428983686,4.553834428983686,4.553834428983686,4.553834428983686,5.2042746002061335,5.210595057801909,5.2125011056658295,5.20238155940071,5.205275600872799,5.1870256372311125,5.177629690839732,5.168973286352209,5.159032523971749,5.165386365733885,5.155735379716954,5.153055391927744,5.157632356866582,5.159603544609187,5.164353917723149,5.1740700821772645,5.16378661087097,5.168764212552203,5.168764212552203,5.168764212552203,5.168764212552203,5.168764212552203,5.1738194346764566,5.1738194346764566,5.186719152013297,5.191967529295462,5.21049052636446,5.237049744610209,5.277257947451296,5.3307083880364345,5.392644572587239,5.441800959639944,5.498935009290728,5.559442559676408,5.61003746641027,5.682266261216916,5.710042875918505,5.776026244439355,5.859541938021584,5.999196285197194,5.999196285197194,6.099219799277435,6.110050550703515,6.1208940672202905,6.1426092557700285,-0.10797120739049482,-0.07538944917623436,-0.04289970830187051,0.010862192588146913,0.04278101061524797,0.09522033899605642,0.1464917416412197,0.18651823552087188,0.22556005747503205,0.25205094424489727,0.2993839850114639,0.3086239684474603,0.33123343751467194,0.3538567911468242,0.4027779525286215,0.44712725848000034,0.5187084535709277,0.5404697237650927,0.5972246851414746,0.6183194076517449,0.6458711150498391,0.6869631495162213,0.7070761713080301,0.7277059814789845,0.7277059814789845,0.7277059814789845,0.7277059814789845,0.7474619179849138,0.7608717701568637,0.7933900998034054,0.8458206512366304,0.863953378679564,0.889458051158059,0.8943237845704433,0.8943237845704433,0.8943237845704433,0.8943237845704433,0.8943237845704433,0.8943237845704433,0.8943237845704433,0.8943237845704433,0.8943237845704433,0.8943237845704433,0.8943237845704433,0.8943237845704433,0.8943237845704433,0.8943237845704433,0.8943237845704433,0.8943237845704433,0.8943237845704433,0.8943237845704433,0.8943237845704433,0.8943237845704433,0.8943237845704433,1.0471975511965976]],"response_history":["1"],"rt":9663,"trial_type":"polygon-arrow-question","trial_index":0,"trial_index_global":21,"time_elapsed":576728,"internal_chunk_id":"0-0.3-0"},{"nsides":6,"feedback":"Correct! 2 <img src=./images/hexagon_symbol.png style=width:14px;height:14px> 5 = 1 because 5 steps clockwise on the hexagon from 2 brings us to 1. Equivalently, 2 + 5 = 7 and 7 - 6 = 1.","orientation_history":[0],"rt":1519,"trial_type":"polygon-arrow-feedback","trial_index":0,"trial_index_global":22,"time_elapsed":578248,"internal_chunk_id":"0-0.3-0"},{"nsides":6,"instructions":"Now we're going to discuss a couple special properties of this new operation, <img src=./images/hexagon_symbol.png style=width:14px;height:14px> that we've learned. First, notice that the number 0 behaves in a special way under <img src=./images/hexagon_symbol.png style=w idth:14p x;height:14px>. Whenever we combine 0 with anything else, we get that same thing back. We'll say that 0 is the <i>identity</i> under <img src=./images/hexagon_symbol.png style=width:14px;height:14px>, because when you combine it with something it gives you that identical thing back.","orientation_history":[0],"rt":21459,"trial_type":"polygon-arrow-instructions","trial_index":0,"trial_index_global":23,"time_elapsed":599713,"internal_chunk_id":"0-0"},{"nsides":6,"instructions":"Now that we know 0 is the identity under <img src=./images/hexagon_symbol.png style=width:14px;height:14px>, we're going to make a new definition. We'll say that the <i>inverse</i> of a number is the element that you combine with it to produce the identity. For example, 5 <img src=./images/hexagon_symbol.png style=width:14px;height:14px> 1 = 0, so we say 1 is the inverse of 5 under <img src=./images/hexagon_symbol.png style=width:14px;height:14px>, (remember 0 is the id entity u nder <img src=./images/hexagon_symbol.png style=width:14px;height:14px>). Similarly, 3 is its own inverse under <img src=./images/hexagon_symbol.png style=width:14px;height:14px>, because 3 <img src=./images/hexagon_symbol.png style=width:14px;height:14px> 3 = 0.","orientation_history":[0],"rt":74063,"trial_type":"polygon-arrow-instructions","trial_index":0,"trial_index_global":24,"time_elapsed":673776,"internal_chunk_id":"0-0"},{"nsides":6,"question":"Now you try! What is the inverse of 4 under <img src=./images/hexagon_symbol.png style=width:14px;height:14px>? <br /><br /> (Remember, the inverse of an element is the thing which you combine with it to produce the identity.)","response_type":"free","response_choices":[],"correct_response":"2","response":"2","orientation_history":[[0],[0,0,0,0,0.04464690554677242,0.09078178391299341,0.17684133381713996,0.28672736894529427,0.4413243796460007,0.5535311223267465,0.6859017050017707,0.8586378872530391,1.019816298643669,1.1661137267721895,1.2924670214703844,1.4318009792189095,1.5153190336061098,1.6004081014364442,1.642872809608661,1.6969792851288386,1.7383500019776679,1.767753290181673,1.7961368327486056,1.8363952792715073,1.8595101192158543,1.9067017433901317,1.9251238065203868,1.943275539988228,1.9787457457693336,1.9874363553740826,2.004602051128593,2.021478085975515,2.0462446302271813,2.0623888818995306,2.0623888818995306,2.0623888818995306,2.0623888818995306,2.0623888818995306,2.0623888818995306,2.0623888818995306,2.0623888818995306,2.0623888818995306,2.0623888818995306,2.0623888818995306,2.0623888818995306,2.0623888818995306,2.0623888818995306,2.0623888818995306,2.0623888818995306,2.0623888818995306,2.0623888818995306,2.0623888818995306,2.0623888818995306,2.0623888818995306,2.0623888818995306,2.0623888818995306,2.0623888818995306,2.0623888818995306,2.0623888818995306,2.0623888818995306,2.0623888818995306,2.0623888818995306,2.0623888818995306,2.0623888818995306,2.0623888818995306,2.0623888818995306,2.0623888818995306,2.0623888818995306,2.0943951023931953]],"response_history":["2"],"rt":9310,"trial_type":"polygon-arrow-question","trial_index":0,"trial_index_global":25,"time_elapsed":683088,"internal_chunk_id":"0-0.7-0"},{"nsides":6,"feedback":"Correct! The inverse of 4 under <img src=./images/hexagon_symbol.png style=width:14px;height:14px> is 2 because 4 <img src=./images/hexagon_symbol.png style=width:14px;height:14px> 2 = 0, and 0 is the identity under <img src=./images/hexagon_symbol.png style=width:14px;height:14px>.","orientation_history":[0],"rt":9143,"trial_type":"polygon-arrow-feedback","trial_index":0,"trial_index_global":26,"time_elapsed":692232,"internal_chunk_id":"0-0.7-0"},{"nsides":6,"question":"What is the inverse of 1 under <img src=./images/hexagon_symbol.png style=width:14px;height:14px>? <br /><br /> (Remember, the inverse of an element is the thing which you combine with it to produce the identity.)","response_type":"free","response_choices":[],"correct_response":"5","response":"5","orientation_history":[[0]],"response_history":["5"],"rt":5686,"trial_type":"polygon-arrow-question","trial_index":0,"trial_index_global":27,"time_elapsed":697920,"internal_chunk_id":"0-0.7-0"},{"nsides":6,"feedback":"Correct! The inverse of 1 under <img src=./images/hexagon_symbol.png style=width:14px;height:14px> is 5 because 1 <img src=./images/hexagon_symbol.png style=width:14px;height:14px> 5 = 0, and 0 is the identity under <img src=./images/hexagon_symbol.png style=width:14px;height:14px>.","orientation_history":[0],"rt":1783,"trial_type":"polygon-arrow-feedback","trial_index":0,"trial_index_global":28,"time_elapsed":699704,"internal_chunk_id":"0-0.7-0"},{"nsides":6,"question":"What is the inverse of 3 under <img src=./images/hexagon_symbol.png style=width:14px;height:14px>? <br /><br /> (Remember, the inverse of an element is the thing which you combine with it  to prod uce the identity.)","response_type":"free","response_choices":[],"correct_response":"3","response":"3","orientation_history":[[0]],"response_history":["3"],"rt":3335,"trial_type":"polygon-arrow-question","trial_index":0,"trial_index_global":29,"time_elapsed":703039,"internal_chunk_id":"0-0.7-0"},{"nsides":6,"feedback":"Correct! The inverse of 3 under <img src=./images/hexagon_symbol.png style=width:14px;height:14px> is 3 because 3 <img src=./images/hexagon_symbol.png style=width:14px;height:14px> 3 = 0, and 0 is the identity under <img src=./images/hexagon_symbol.png style=width:14px;height:14px>.","orientation_history":[0],"rt":1327,"trial_type":"polygon-arrow-feedback","trial_index":0,"trial_index_global":30,"time_elapsed":704367,"internal_chunk_id":"0-0.7-0"},{"nsides":6,"question":"What is the inverse of 2 under <img src=./images/hexagon_symbol.png style=width:14px;height:14px>? <br /><br /> (Remember, the inverse of an element is the thin g which  you combine with it to produce the identity.)","response_type":"free","response_choices":[],"correct_response":"4","response":"4","orientation_history":[[0]],"response_history":["4"],"rt":3266,"trial_type":"polygon-arrow-question","trial_index":0,"trial_index_global":31,"time_elapsed":707634,"internal_chunk_id":"0-0.7-0"},{"nsides":6,"feedback":"Correct! The inverse of 2 under <img src=./images/hexagon_symbol.png style=width:14px;height:14px> is 4 because 2 <img src=./images/hexagon_symbol.png style=width:14px;height:14px> 4 = 0, and 0 is the identity under <img src=./images/hexagon_symbol.png style=width:14px;height:14px>.","orientation_history":[0],"rt":2484,"trial_type":"polygon-arrow-feedback","trial_index":0,"trial_index_global":32,"time_elapsed":710119,"internal_chunk_id":"0-0.7-0"},{"nsides":6,"question":"What is the inverse of 0 under <img src=./images/hexagon_symbol.png style=width:14px;height:14px>? <br /><br /> (Remember, the invers e of an  element is the thing which you combine with it to produce the identity.)","response_type":"free","response_choices":[],"correct_response":"0","response":"0","orientation_history":[[0]],"response_history":["0"],"rt":8513,"trial_type":"polygon-arrow-question","trial_index":0,"trial_index_global":33,"time_elapsed":718633,"internal_chunk_id":"0-0.7-0"},{"nsides":6,"feedback":"Correct! The inverse of 0 under <img src=./images/hexagon_symbol.png style=width:14px;height:14px> is 0 because 0 <img src=./images/hexagon_symbol.png style=width:14px;height:14px> 0 = 0, and 0 is the identity under <img src=./images/hexagon_symbol.png style=width:14px;height:14px>.","orientation_history":[0],"rt":1365,"trial_type":"polygon-arrow-feedback","trial_index":0,"trial_index_global":34,"time_elapsed":719999,"internal_chunk_id":"0-0.7-0"},{"nsides":6,"instructions":"It is also possible to successively apply <img src=./images/hexagon_symbol.png style=width:14px;height:1 4px>,  and the operation can simply be performed starting with the left-most pair. For example, 2 <img src=./images/hexagon_symbol.png style=width:14px;height:14px> 3 <img src=./images/hexagon_symbol.png style=width:14px;height:14px> 4 = 5 <img src=./images/hexagon_symbol.png style=width:14px;height:14px> 4 = 3.","orientation_history":[0,[0,0.03616843096001432,-6.192525419978841,-6.105787081302855,-5.947546756851977,-5.843754416394934,-5.5953487618861635,-5.330355365311615,-4.967284673765656,-4.6550500890621915,-4.370039121425758,-4.178280756764206,-4.065129775173721,-4.011003128794735,-3.97822798439066,-3.9606859243332573,-3.9492505905390987,-3.946988150960392,-3.9252051045996037,-3.921836223464701,-3.882170355667613,-3.8541861749260486,-3.836330929786496,-3.8190912585919663,-3.8106955212648184,-3.7943388225651264,-3.7785440990155585,-3.7785440990155585,-3.7785440990155585,-3.7785440990155585,-3.7785440990155585,-3.7785440990155585,-3.7785440990155585,-3.7785440990155585,-3.7785440990155585,-3.7785440990155585,-3.7785440990155585,-3.787190195370476,-3.787190195370476,-3.795702892105123,-3.8607163389592145,-3.876958967467869,-3.8941177605574335,-3.901810954709961,-3.9194721616749373,-3.9194721616749373,-3.9194721616749373,-3.9194721616749373,-3.9194721616749373,-3.9194721616749373,-3.9194721616749373,-3.9505852577479357,-3.9505852577479357,-3.9505852577479357,-3.9505852577479357,-3.9505852577479357,-3.9505852577479357,-3.9505852577479357,-3.9505852577479357,-3.9505852577479357,-3.9505852577479357,-3.9505852577479357,-3.9505852577479357,-3.9505852577479357,-3.9505852577479357,-3.9505852577479357,-3.9505852577479357,-3.9505852577479357,-3.9505852577479357,-3.9505852577479357,-3.9505852577479357,-3.9505852577479357,-3.9505852577479357,-3.9505852577479357,-3.9505852577479357,-3.9505852577479357,-3.9505852577479357,-3.9505852577479357,-3.9505852577479357,-3.9505852577479357,-3.9505852577479357,-3.9505852577479357,-3.9505852577479357,-3.9505852577479357,-3.9505852577479357,-3.9505852577479357,-3.9505852577479357,-3.9505852577479357,-3.9505852577479357,-3.9505852577479357,-3.966734237675629,-4.014741429137537,-4.065562863063491,-4.091171206154497,-4.1232696827172655,-4.133086690564218,-4.133086690564218,-4.133086690564218,-4.133086690564218,-4.133086690564218,-4.133086690564218,-4.133086690564218,-4.133086690564218,-4.133086690564218,-4.133086690564218,-4.133086690564218,-4.133086690564218,-4.133086690564218,-4.133086690564218,-4.133086690564218,-4.133086690564218,-4.133086690564218,-4.133086690564218,-4.133086690564218,-4.133086690564218,-4.133086690564218,-4.133086690564218,-4.133086690564218,-4.133086690564218,-4.133086690564218,-4.133086690564218,-4.133086690564218,-4.133086690564218,-4.133086690564218,-4.133086690564218,-4.133086690564218,-4.133086690564218,-4.133086690564218,-4.133086690564218,-4.133086690564218,-4.133086690564218,-4.133086690564218,-4.133086690564218,-4.133086690564218,-4.133086690564218,-4.133086690564218,-4.133086690564218,-4.133086690564218,-4.133086690564218,-4.133086690564218,-4.133086690564218,-4.133086690564218,-4.133086690564218,-4.133086690564218,-4.133086690564218,-4.133086690564218,-4.133086690564218,-4.133086690564218,-4.133086690564218,-4.133086690564218,-4.133086690564218,-4.133086690564218,-4.133086690564218,-4.133086690564218,-4.133086690564218,-4.133086690564218,-4.133086690564218,-4.133086690564218,-4.133086690564218,-4.133086690564218,-4.133086690564218,-4.133086690564218,-4.133086690564218,-4.133086690564218,-4.133086690564218,-4.133086690564218,-4.133086690564218,-4.133086690564218,-4.133086690564218,-4.133086690564218,-4.133086690564218,-4.133086690564218,-4.127787724264364,-4.102582978937422,-4.059444290841397,-3.994658430594926,-3.96888246208317,-3.9285059673429576,-3.8862893255084385,-3.8448777302191077,-3.8106955212648184,-3.7503366385922554,-3.679729052804481,-3.6252375965637493,-3.5580312707813846,-3.4927259319064916,-3.4765552347286794,-3.449455212055468,-3.3841770675007203,-3.361100827177034,-3.3107471362348857,-3.210069492187741,-3.100275398642018,-3.003349663112064,-2.9559810600462915,-2.9559810600462915,-2.9559810600462915,-2.9559810600462915,-2.944197093739912,-2.944197093739912,-2.944197093739912,-2.944197093739912,-2.944197093739912,-2.944197093739912,-2.944197093739912,-2.944197093739912,-2.944197093739912,-2.944197093739912,-2.944197093739912,-2.944197093739912,-2.944197093739912,-2.944197093739912,-2.944197093739912,-2.944197093739912,-2.944197093739912,-2.944197093739912,-2.944197093739912,-2.885784088974421,-2.8489076099854556,-2.755995707540241,-2.686406763982113,-2.5762358833088728,-2.432117999651363,-2.2571314394439526,-2.2155762072696565,-2.137211375305805,-2.038735754937713,-2.0082108880205105,-1.9980294216645422,-1.9794831612742811,-1.9747476007779383,-1.96551975543675,-1.96551975543675,-1.9610237197894875,-1.9610237197894875,-1.9610237197894875,-1.9610237197894875,-1.9610237197894875,-1.9610237197894875,-1.9610237197894875,-1.9610237197894875,-1.9610237197894875,-1.9610237197894875,-1.9610237197894875,-1.9610237197894875,-1.9524418409247044,-1.9307977656747841,-1.909165849639196,-1.8696841616541828,-1.7924828825106491,-1.734504498147417,-1.635731267571181,-1.556908330863929,-1.4801364395941512,-1.3568707692352522,-1.3079456250712127,-1.2452380801863345,-1.1973272282945482,-1.1507134014820037,-1.1055384132278432,-1.0908197177610104,-1.076276644686775,-1.0547976055477548,-1.0337285017878752,-1.0199134747392389,-1.0130758745618067,-1.0130758745618067,-1.0130758745618067,-1.0130758745618067,-1.0130758745618067,-1.0130758745618067,-1.0130758745618067,-1.0130758745618067,-1.0130758745618067,-1.0130758745618067,-1.0130758745618067,-1.0130758745618067,-1.0130758745618067,-1.0130758745618067,-1.0130758745618067,-1.0130758745618067,-1.0130758745618067,-1.0130758745618067,-1.0130758745618067,-1.0130758745618067,-1.0130758745618067,-1.0130758745618067,-1.0130758745618067,-1.0130758745618067,-1.0130758745618067,-1.0130758745618067,-1.0130758745618067,-1.0130758745618067,-1.0130758745618067,-1.0130758745618067,-1.0130758745618067,-1.0130758745618067,-1.0130758745618067,-1.0130758745618067,-1.0130758745618067,-1.0130758745618067,-1.0130758745618067,-1.0130758745618067,-1.0130758745618067,-1.0130758745618067,-1.0130758745618067,-1.0130758745618067,-1.0130758745618067,-1.0130758745618067,-1.0130758745618067,-1.0130758745618067,-1.0130758745618067,-1.0130758745618067,-1.0130758745618067,-1.0130758745618067,-1.0130758745618067,-1.0130758745618067,-1.0130758745618067,-1.0130758745618067,-1.0130758745618067,-1.0130758745618067,-1.0130758745618067,-1.0130758745618067,-1.0130758745618067,-1.0130758745618067,-1.0130758745618067,-1.0130758745618067,-1.0130758745618067,-1.0130758745618067,-1.0130758745618067,-1.0130758745618067,-1.0130758745618067,-1.0130758745618067,-1.0130758745618067,-1.0130758745618067,-1.0130758745618067,-1.0130758745618067,-1.0130758745618067,-1.0130758745618067,-1.0130758745618067,-1.0130758745618067,-1.0130758745618067,-1.0130758745618067,-1.0130758745618067,-1.0130758745618067,-1.0130758745618067,-1.0130758745618067,-1.0130758745618067,-1.0130758745618067,-1.0130758745618067,-1.0130758745618067,-1.0130758745618067,-1.0130758745618067,-1.0130758745618067,-1.0130758745618067,-1.0130758745618067,-1.0130758745618067,-1.0130758745618067,-1.0130758745618067,-1.0130758745618067,-1.0130758745618067,-1.0130758745618067,-1.0130758745618067,-1.0130758745618067,-1.0130758745618067,-1.0130758745618067,-1.0130758745618067,-1.0130758745618067,-1.0130758745618067,-1.0130758745618067,-1.0130758745618067,-1.0130758745618067,-1.0130758745618067,-1.0130758745618067,-1.0130758745618067,-1.0130758745618067,-1.0130758745618067,-1.0130758745618067,-1.0130758745618067,-1.0130758745618067,-1.0130758745618067,-1.0130758745618067,-1.0130758745618067,-1.0130758745618067,-1.0130758745618067,-1.0130758745618067,-1.0130758745618067,-1.0130758745618067,-1.0130758745618067,-1.0130758745618067,-1.0130758745618067,-1.0130758745618067,-1.0130758745618067,-1.0130758745618067,-1.0130758745618067,-1.0130758745618067,-1.0130758745618067,-1.0062851030993905,-0.9861950706745706,-0.9730379352018144,-0.9526028239976991,-0.9319450750803471,-0.9087989597605244,-0.8921338360465842,-0.8694104752049423,-0.8469899902988072,-0.8366353308008669,-0.8124708510007963,-0.7959950692266737,-0.7805485408932054,-0.7381891715882336,-0.7167127604933654,-0.6836276222990953,-0.6333629440828865,-0.5928199087158292,-0.5267460045508274,-0.45399089952427296,-0.32415439592031525,-0.2574003844488191,-0.2152189842041068,-0.18073539360089086,-0.17264666236841553,-0.17264666236841553,-0.17264666236841553,-0.17264666236841553,-0.17264666236841553,-0.17264666236841553,-0.17264666236841553,-0.17264666236841553,-0.17264666236841553,-0.17264666236841553,-0.17264666236841553,-0.17264666236841553,-0.17264666236841553,-0.17264666236841553,-0.17264666236841553,-0.17264666236841553,-0.17264666236841553,-0.17264666236841553,-0.17264666236841553,-0.17264666236841553,-0.17264666236841553,-0.17264666236841553,-0.17264666236841553,-0.15636376285047326,-0.13168889486920232,-0.08995872338352218,-0.023880809595936192,0.05397909944409385,-6.14539054616534,-5.987525443975267,-5.947546756851977,-5.846239912519463,-5.751096376304754,-5.6623096472022105,-5.549024311185557,-5.449355658694395,-5.343383944048705,-5.217928234481424,-5.127904236804534,-5.056696044229524,-5.0399534227631735,-5.0399534227631735,-5.0399534227631735,-5.0399534227631735,-5.0399534227631735,-5.0399534227631735,-5.0399534227631735,-5.0399534227631735,-5.0399534227631735,-5.0399534227631735,-5.0399534227631735,-5.0399534227631735,-5.0399534227631735,-5.0399534227631735,-5.0399534227631735,-5.0399534227631735,-5.0399534227631735,-5.0399534227631735,-5.0399534227631735,-5.0399534227631735,-5.0399534227631735,-5.0399534227631735,-5.0399534227631735,-5.0399534227631735,-5.0399534227631735,-5.0399534227631735,-5.0399534227631735,-5.0399534227631735,-5.0399534227631735,-5.0399534227631735,-5.0399534227631735,-5.0399534227631735,-5.0399534227631735,-5.0399534227631735,-5.0399534227631735,-5.031487021108328,-4.993585167032526,-4.913185887661811,-4.836200791932184,-4.7281219478828485,-4.582145819246848,-4.4839929022236,-4.397824593053595,-4.332999564671547,-4.2618738246401815,-4.210877901882159,-4.210877901882159,-4.202586490217273,-4.194355888040187,-4.194355888040187,-4.194355888040187,-4.194355888040187,-4.194355888040187,-4.194355888040187,-4.194355888040187,-4.194355888040187,-4.194355888040187,-4.194355888040187,-4.194355888040187,-4.194355888040187,-4.194355888040187,-4.194355888040187,-4.194355888040187,-4.194355888040187,-4.194355888040187,-4.194355888040187,-4.194355888040187,-4.194355888040187,-4.194355888040187,-4.194355888040187,-4.194355888040187,-4.194355888040187,-4.194355888040187,-4.194355888040187,-4.170528974051999,-4.123906760566943,-4.07636729378051,-3.9980273769570527,-3.908668260325091,-3.836330929786496,-3.671182252371869,-3.6330703345479916,-3.490775349204784,-3.3108729065775755,-3.273963734760606,-3.186027204838403,-3.165809371805947,-3.126976325668165,-3.1168747561703176,-3.1069488699322267,-3.097627770432378,-3.0967721922701648,-3.0876135541456993,-3.0876135541456993,-3.0876135541456993,-3.0876135541456993,-3.0876135541456993,-3.0876135541456993,-3.0876135541456993,-3.0876135541456993,-3.0876135541456993,-3.0876135541456993,-3.0876135541456993,-3.0876135541456993,-3.0876135541456993,-3.0876135541456993,-3.0876135541456993,-3.0876135541456993,-3.0876135541456993,-3.0876135541456993,-3.0876135541456993,-3.0876135541456993,-3.0876135541456993,-3.0876135541456993,-3.0876135541456993,-3.0876135541456993,-3.0876135541456993,-3.0876135541456993,-3.0876135541456993,-3.0876135541456993,-3.0876135541456993,-3.0876135541456993,-3.0876135541456993,-3.0876135541456993,-3.0876135541456993,-3.0876135541456993,-3.0876135541456993,3.141592653589793],[3.141592653589793,3.141592653589793,3.141592653589793,3.1672280621114703,3.1810458546868325,3.2099789971802966,3.2751217026816644,3.3419912074156715,3.4314391435014127,3.589112628746963,3.752318617979002,3.956394105191247,4.175478237644644,4.351185224891008,4.692391646411539,4.692391646411539,4.810115887743408,4.952923228330594,5.083280269197352,5.190220035376804,5.2580440349116815,5.324291414819356,5.391394289083234,5.432459674158786,5.462713813248913,5.472151735260461,5.480839613975733,5.489383980234491,5.489383980234491,5.489383980234491,5.489383980234491,5.489383980234491,5.489383980234491,5.489383980234491,5.489383980234491,5.489383980234491,5.489383980234491,5.489383980234491,5.489383980234491,5.489383980234491,5.489383980234491,5.489383980234491,5.489383980234491,5.489383980234491,5.489383980234491,5.489383980234491,5.489383980234491,5.489383980234491,5.489383980234491,5.489383980234491,5.481122020068197,5.4223005988482145,5.3702775855669,5.353497749244395,5.343842479323788,5.343842479323788,5.343842479323788,5.343842479323788,5.343842479323788,5.343842479323788,5.343842479323788,5.343842479323788,5.343842479323788,5.343842479323788,5.3298912205317635,5.3298912205317635,5.3298912205317635,5.3298912205317635,5.3298912205317635,5.3298912205317635,5.3298912205317635,5.3298912205317635,5.3298912205317635,5.3298912205317635,5.3298912205317635,5.3298912205317635,5.3298912205317635,5.3298912205317635,5.3298912205317635,5.3298912205317635,5.3298912205317635,5.3298912205317635,5.3298912205317635,5.3298912205317635,5.3298912205317635,5.3298912205317635,5.3298912205317635,5.3298912205317635,5.3298912205317635,5.3298912205317635,5.3298912205317635,5.3298912205317635,5.3298912205317635,5.3298912205317635,5.3298912205317635,5.3298912205317635,5.3298912205317635,5.3298912205317635,5.3298912205317635,5.3298912205317635,5.343842479323788,5.461439522763117,5.608444364956034,5.647599600355035,5.778624868403341,5.895415135304267,5.9856235824417805,6.075689080744383,6.130535978784321,6.180978589072333,6.180978589072333,6.194808521034737,6.219978475282126,6.232595598410201,6.232595598410201,6.232595598410201,6.232595598410201,6.232595598410201,6.232595598410201,6.232595598410201,6.232595598410201,6.232595598410201,0,0.06401497783434396,0.16725393746226103,0.2938693350324677,0.5023023780979528,0.6620604624977243,0.8294872207955201,0.900824823764373,0.925322833971566,0.9551764373657867,0.9855792313633369,1.0251412722679047,1.1071487177940904,1.1536268491450934,1.1768032915226587,1.205883227633103,1.2157247765200072,1.219351532791345,1.219351532791345,1.219351532791345,1.219351532791345,1.219351532791345,1.219351532791345,1.219351532791345,1.219351532791345,1.2490457723982544,1.2793395323170293,1.3521273809209546,1.4164775508687775,1.4711276743037345,1.5707963267948966,1.6575346654708816,1.7004988639508087,1.7429871413178355,1.7744548527724449,1.795212335832042,1.825978717415715,1.8361284130038813,1.8562591870616414,1.8761549068835335,1.8958041986615446,1.9247937636267927,1.9624962662323207,1.9809236673363875,2.0169018757383004,2.0388298725844947,2.0778948311872334,2.0947156744800957,2.1079045808892767,2.1079045808892767,2.1079045808892767,2.1079045808892767,2.1079045808892767,2.1079045808892767,2.1079045808892767,2.1079045808892767,2.1079045808892767,2.1079045808892767,2.1079045808892767,2.1211822744716877,2.1479885406683574,2.2264919530364327,2.2827971642907334,2.4158252033235144,2.6875141304965977,2.813263246740134,2.9481653268789456,3.035199798890889,3.083964226112319,3.0940095503128098,3.1035158279999897,3.1132983197412893,3.1227269675681226,3.1227269675681226,3.1229032411428874,3.1322471312823033,3.1322471312823033,3.1322471312823033,3.1322471312823033,3.1322471312823033,3.1322471312823033,3.1322471312823033,3.1322471312823033,3.1322471312823033,3.1322471312823033,3.1322471312823033,3.1322471312823033,3.1322471312823033,3.1322471312823033,3.1322471312823033,3.1322471312823033,3.1322471312823033,3.1322471312823033,3.1322471312823033,3.1322471312823033,3.1322471312823033,3.1322471312823033,3.1322471312823033,3.1322471312823033,3.1322471312823033,3.1322471312823033,3.1322471312823033,3.1322471312823033,3.141592653589793]],"rt":54936,"trial_type":"polygon-arrow-instructions","trial_index":0,"trial_index_global":35,"time_elapsed":774936,"internal_chunk_id":"0-0"},{"nsides":6,"instructions":"We have one last definition to learn today, using the successive operations we just learned. Let's start with an example. Under our operation <img src=./images/hexagon_symbol.png style=width:14px;height:14px> we can make every other number using just 1: 2 = 1 <img src=./images/hexagon_symbol.png style=width:14px;height:14px> 1, 3 = 1 <img src=./images/hexagon_symbol.png style=width:14px;height:14px> 1 <img src=./images/hexagon_symbol.png style=width:14px;height:14px> 1, 4 = 1 <img src=./images/hexagon_symbol.png style=width:14px;height:14px> 1 <img src=./images/hexagon_symbol.png style=width:14 px;heigh t:14px> 1 <img src=./images/hexagon_symbol.png style=width:14px;height:14px> 1, 5 = 1 <img src=./images/hexagon_symbol.png style=width:14px;height:14px> 1 <img src=./images/hexagon_symbol.png style=width:14px;height:14px> 1 <img src=./images/hexagon_symbol.png style=width:14px;height:14px> 1 <img src=./images/hexagon_symbol.png style=width:14px;height:14px> 1, and 0 = 1 <img src=./images/hexagon_symbol.png style=width:14px;height:14px> 1 <img src=./images/hexagon_symbol.png style=width:14px;height:14px> 1 <img src=./images/hexagon_symbol.png style=width:14px;height:14px> 1 <img src=./images/hexagon_symbol.png style=width:14px;height:14px> 1 <img src=./images/hexagon_symbol.png style=width:14px;height:14px> 1. Because 1 can make every other element under <img src=./images/hexagon_symbol.png style=width:14px;height:14px>, we say that 1 is a <i>generator</i> under <img src=./images/hexag on_symbo l.png style=width:14px;height:14px>. <br /><br /> However, 2 is not a generator under <img src=./images/hexagon_symbol.png style=width:14px;height:14px>, because 4 = 2 <img src=./images/hexagon_symbol.png style=width:14px;height:14px> 2, and 0 = 2 <img src=./images/hexagon_symbol.png style=width:14px;height:14px> 2 <img src=./images/hexagon_symbol.png style=width:14px;height:14px> 2, but there is no way to make 1, 3, or 5 using just 2.","orientation_history":[0],"rt":95349,"trial_type":"polygon-arrow-instructions","trial_index":0,"trial_index_global":36,"time_elapsed":870287,"internal_chunk_id":"0-0"},{"nsides":6,"question":"Now you try! Is 3 a generator under <img src=./images/hexagon_symbol.png style=width:14px;height:14px>? <br /><br /> (Remember, a generator is an element which can make every other element.)","response_type":"multi","response_choices":["Yes","No"],"correct_response":"No","response":"No","orientation_history":[[0]],"response_history":["No"],"rt":8119,"trial_type":"polygon-arrow-question","trial_index":0,"trial_index_global":37,"time_elapsed":878407,"internal_chunk_id":"0-0.10-0"},{"nsides":6,"feedback":"Correct! 3 is not a generator under <img src=./images/hexagon_symbol.png style=width:14px;height:14px>, because 3 = 3, 0 = 3 <img src=./images/hexagon_symbol.png style=width:14px;height:14px> 3, but there is no way to make 1, 2, 4, or 5 using just 3.","orientation_history":[0],"rt":2080,"trial_type":"polygon-arrow-feedback","trial_index":0,"trial_index_global":38,"time_elapsed":880488,"internal_chunk_id":"0-0.10-0"},{"nsides":6,"question":"Is 5 a generator under <img src=./images/hexagon_symbol.png style=width:14px;height:14px>? <br /><br /> (Remember, a generator is an element which can make every other element.)","response_type":"multi","response_choices":["Yes","No"],"correct_response":"Yes","response":"No","orientation_history":[[0]],"response_history":["No"],"rt":2598,"trial_type":"polygon-arrow-question","trial_index":0,"trial_index_global":39,"time_elapsed":883087,"internal_chunk_id":"0-0.10-0"},{"nsides":6,"feedback":"Sorry, that's incorrect. 5 is a generator under <img src=./images/hexagon_symbol.png style=width:14px;height:14px>, because 5 = 5, 4 = 5 <img src=./images/hexagon_symbol.png style=width:14px;height:14px> 5, 3 = 5 <img src=./images/hexagon_symbol.png style=width:14px;height:14px> 5 <img src=./images/hexagon_symbol.png style=width:14px;height:14px> 5, 2 = 5 <img src=./images/hexagon_symbol.png style=width:14px;height:14px> 5 <img src=./images/hexagon_symbol.png style=width:14px;height:14px> 5 <img src=./images/hexagon_symbol.png style=width:14px;height:14px> 5, 1 = 5 <img src=./images/hexagon_symbol.png style=width:14px;height:14px> 5 <img src=./images/hexagon_symbol.png style=width:14px;height:14px> 5 <img src=./images/hexagon_symbol.png style=w idth:14p x;height:14px> 5 <img src=./images/hexagon_symbol.png style=width:14px;height:14px> 5, and 0 = 5 <img src=./images/hexagon_symbol.png style=width:14px;height:14px> 5 <img src=./images/hexagon_symbol.png style=width:14px;height:14px> 5 <img src=./images/hexagon_symbol.png style=width:14px;height:14px> 5 <img src=./images/hexagon_symbol.png style=width:14px;height:14px> 5 <img src=./images/hexagon_symbol.png style=width:14px;height:14px> 5, so you can make all of the numbers under <img src=./images/hexagon_symbol.png style=width:14px;height:14px> using 5","orientation_history":[0],"rt":22032,"trial_type":"polygon-arrow-feedback","trial_index":0,"trial_index_global":40,"time_elapsed":905119,"internal_chunk_id":"0-0.10-0"},{"nsides":6,"question":"Is 4 a generator under <img src=./images/hexagon_symbol.png style=width:14px;height:14px>? <br /><br /> (Remember, a generator is an element which can make every other el ement.)","response_type":"multi","response_choices":["Yes","No"],"correct_response":"No","response":"No","orientation_history":[[0],[0,0.10854133891480644,0.24172311304397076,0.29738843787275937,0.3613967622143526,0.5028066852503257,0.5882397389474384,0.6774601741345194,0.8284524807122114,1.0305435765644544,1.2361015115816838,1.4758446204521403,1.6376820516905632,1.7914602824909065,1.931295691703034,2.010240097206554,2.126266033995665,2.1771045433184177,2.2379911610391257,2.3199986065653113,2.3434103062112883,2.4203795096482823,2.6321340726622506,2.8061066993011323,3.0281245451790277,3.2297517645095213,3.433516664978065,3.6217132369794274,3.7732832879287623,3.876258055040138,3.931707763135647,3.953391111215249,3.953391111215249,3.953391111215249,3.953391111215249,3.953391111215249,3.9603623383302797,3.9805439985887623,4.002251035929959,4.023464592169828,4.058837958698371,4.082482200255837,4.093116561738512,4.093116561738512,4.093116561738512,4.093116561738512,4.093116561738512,4.093116561738512,4.093116561738512,4.093116561738512,4.093116561738512,4.093116561738512,4.093116561738512,4.093116561738512,4.093116561738512,4.093116561738512,4.093116561738512,4.107311533690124,4.107311533690124,4.116423887238344,4.116423887238344,4.116423887238344,4.116423887238344,4.116423887238344,4.116423887238344,4.116423887238344,4.116423887238344,4.116423887238344,4.116423887238344,4.116423887238344,4.116423887238344,4.116423887238344,4.116423887238344,4.116423887238344,4.116423887238344,4.116423887238344,4.1887902047863905],[4.1887902047863905,4.1887902047863905,4.1887902047863905,4.1887902047863905,4.1887902047863905,4.1887902047863905,4.1887902047863905,4.213252569594033,4.26419529770252,4.290662215879387,4.317777178558171,4.4119717554081825,4.529508673787459,4.638084732513375,4.789345413997035,5.010297460926873,5.137107777234426,5.229307936842181,5.30285922733072,5.369851479291468,5.39662732718373,5.422288153349059,5.4387938312978354,5.4387938312978354,5.4387938312978354,5.4387938312978354,5.4387938312978354,5.4387938312978354,5.4387938312978354,5.4387938312978354,5.4387938312978354,5.4387938312978354,5.4387938312978354,5.4387938312978354,5.4387938312978354,5.4387938312978354,5.4387938312978354,5.4387938312978354,5.4387938312978354,5.4387938312978354,5.4387938312978354,5.4387938312978354,5.4387938312978354,5.4387938312978354,5.53199016070906,5.573295352483721,5.7073274642976335,5.811801614083289,5.913585191719929,6.002752097049965,6.027198014370032,6.027198014370032,6.027198014370032,6.027198014370032,6.027198014370032,6.027198014370032,6.027198014370032,6.027198014370032,6.027198014370032,6.027198014370032,6.027198014370032,6.027198014370032,6.0379715913291765,6.04880418963113,6.04880418963113,6.04880418963113,6.04880418963113,6.04880418963113,6.04880418963113,6.04880418963113,6.04880418963113,6.04880418963113,6.04880418963113,6.04880418963113,6.04880418963113,6.04880418963113,6.04880418963113,6.04880418963113,6.04880418963113,6.04880418963113,6.04880418963113,6.04880418963113,6.138986456780857,6.208031441840657,6.263434385251331,0.057357505992617464,0.09015429852796397,0.12146793678124346,0.14284262916279689,0.15348298631982304,0.15348298631982304,0.15348298631982304,0.15348298631982304,0.15348298631982304,0.15348298631982304,0.15348298631982304,0.15348298631982304,0.15348298631982304,0.16408899858147663,0.22688365243560904,0.2778937470944989,0.36367139889214517,0.47537424706139286,0.5731809035878228,0.6707570622290476,0.7951649472396091,0.8904456592142065,0.9938571434717434,1.0722505833897706,1.1752496545645084,1.2679053901047233,1.3381130004844164,1.421381512813409,1.4835057960034097,1.5040676915747775,1.5435697305864506,1.593063362759753,1.6892459546736849,1.7614854754981308,1.8160004846111306,1.8864187477640517,1.92889985449412,1.9700821141439133,1.986173912248706,2.0020419976393766,2.0098911300069013,2.0407875287768533,2.0407875287768533,2.0484940728028227,2.0484940728028227,2.0524745249311778,2.060163202004629,2.0677897925823383,2.0795214318908144,2.0795214318908144,2.0870625418307327,2.0870625418307327,2.0870625418307327,2.0870625418307327,2.0870625418307327,2.0870625418307327,2.0870625418307327,2.0870625418307327,2.0870625418307327,2.0870625418307327,2.0870625418307327,2.0870625418307327,2.0870625418307327,2.0870625418307327,2.0870625418307327,2.0870625418307327,2.0870625418307327,2.0870625418307327,2.0870625418307327,2.0870625418307327,2.0870625418307327,2.0870625418307327,2.0870625418307327,2.0870625418307327,2.0870625418307327,2.0870625418307327,2.0870625418307327,2.0870625418307327,2.0870625418307327,2.0870625418307327,2.0870625418307327,2.0870625418307327,2.0870625418307327,2.0870625418307327,2.0870625418307327,2.0870625418307327,2.0870625418307327,2.0870625418307327,2.0870625418307327,2.0870625418307327,2.0870625418307327,2.0870625418307327,2.0870625418307327,2.0870625418307327,2.0870625418307327,2.0870625418307327,2.0870625418307327,2.0870625418307327,2.0870625418307327,2.0870625418307327,2.0870625418307327,2.0870625418307327,2.0870625418307327,2.0870625418307327,2.0870625418307327,2.0870625418307327,2.0870625418307327,2.0870625418307327,2.0870625418307327,2.0870625418307327,2.0870625418307327,2.0870625418307327,2.0870625418307327,2.0870625418307327,2.0870625418307327,2.0870625418307327,2.0870625418307327,2.0870625418307327,2.0870625418307327,2.0870625418307327,2.0870625418307327,2.0870625418307327,2.0870625418307327,2.0870625418307327,2.0870625418307327,2.0870625418307327,2.0870625418307327,2.0870625418307327,2.0870625418307327,2.0870625418307327,2.0870625418307327,2.0870625418307327,2.0870625418307327,2.0870625418307327,2.0870625418307327,2.0870625418307327,2.0870625418307327,2.0870625418307327,2.0870625418307327,2.0870625418307327,2.0870625418307327,2.0870625418307327,2.0870625418307327,2.0870625418307327,2.0870625418307327,2.0870625418307327,2.0870625418307327,2.0870625418307327,2.0870625418307327,2.0870625418307327,2.0870625418307327,2.0870625418307327,2.0870625418307327,2.0870625418307327,2.0870625418307327,2.0870625418307327,2.0870625418307327,2.0870625418307327,2.0870625418307327,2.0870625418307327,2.0870625418307327,2.0870625418307327,2.0870625418307327,2.0870625418307327,2.0870625418307327,2.0870625418307327,2.0870625418307327,2.0870625418307327,2.0870625418307327,2.0870625418307327,2.0870625418307327,2.0870625418307327,2.0870625418307327,2.0870625418307327,2.0870625418307327,2.0870625418307327,2.0870625418307327,2.0870625418307327,2.0870625418307327,2.0870625418307327,2.0870625418307327,2.0870625418307327,2.0870625418307327,2.0870625418307327,2.0870625418307327,2.0870625418307327,2.0870625418307327,2.0870625418307327,2.0870625418307327,2.0870625418307327,2.0870625418307327,2.0870625418307327,2.0870625418307327,2.0870625418307327,2.0870625418307327,2.0870625418307327,2.0870625418307327,2.0870625418307327,2.0870625418307327,2.0870625418307327,2.0870625418307327,2.0870625418307327,2.0870625418307327,2.0870625418307327,2.0870625418307327,2.0870625418307327,2.0870625418307327,2.0870625418307327,2.0870625418307327,2.0870625418307327,2.1121660209458124,2.156340505212505,2.1839899345825686,2.214923460442482,2.2655984048663904,2.2911971090689036,2.3181437811124614,2.35176569120246,2.4082667974562635,2.4839287049133305,2.587656367799307,2.647249495484886,2.718309227826289,2.7615737244443244,2.7852896267176845,2.79528929340435,2.79528929340435,2.79528929340435,2.79528929340435,2.79528929340435,2.79528929340435,2.8053622127852096,2.8053622127852096,2.8155071264368057,2.825722698623153,2.8567788435911226,2.8884153717103214,2.917261448934371,2.970015057145518,2.980694148879981,2.9914109685929917,2.9914109685929917,3.0021632423840927,3.01294864850571,3.067288405718479,3.100609401596726,3.100609401596726,3.1440602969882567,3.1440602969882567,3.1657960038300494,3.1657960038300494,3.1657960038300494,3.1657960038300494,3.1657960038300494,3.1657960038300494,3.1657960038300494,3.1657960038300494,3.1657960038300494,3.1657960038300494,3.1657960038300494,3.1657960038300494,3.1875111923797874,3.23575645324812,3.29942455083979,3.3829967375744205,3.583902879803993,3.7097617656444344,3.872915023440888,4.036194133034841,4.136531137502737,4.195710509536631,4.221660966880454,4.231887747926592,4.246401359515656,4.251209014782347,4.251209014782347,4.251209014782347,4.251209014782347,4.251209014782347,4.251209014782347,4.251209014782347,4.251209014782347,4.251209014782347,4.251209014782347,4.251209014782347,4.251209014782347,4.251209014782347,4.251209014782347,4.251209014782347,4.251209014782347,4.251209014782347,4.251209014782347,4.251209014782347,4.270437413882054,4.314232236913831,4.356085953512581,4.417156414071853,4.496187677909211,4.560537847857034,4.670928856706264,4.757840883650924,4.864272333699621,5.004360295744541,5.033412300871221,5.109647743482914,5.1446189028798415,5.170136227271667,5.170136227271667,5.178504232783959,5.178504232783959,5.178504232783959,5.178504232783959,5.178504232783959,5.178504232783959,5.178504232783959,5.178504232783959,5.178504232783959,5.178504232783959,5.178504232783959,5.178504232783959,5.178504232783959,5.178504232783959,5.178504232783959,5.178504232783959,5.178504232783959,5.178504232783959,5.178504232783959,5.178504232783959,5.19503165338668,5.2164606779722735,5.289161453957855,5.308399336854495,5.394589205080746,5.578221421012144,5.662743896397805,5.7751646286612734,5.848315058830166,5.874588403188185,5.900789302566388,5.937885962721034,5.952832737651301,5.963902396181408,5.9675653834616424,5.978607218559259,5.9996015088607315,6.024326969955547,6.035209860966698,6.0379715913291765,6.04880418963113,6.04880418963113,6.04880418963113,6.04880418963113,6.04880418963113,6.04880418963113,6.04880418963113,6.04880418963113,6.04880418963113,6.073008028220278,6.086097566872763,6.107777687571973,6.140611252251444,6.153101418281376,6.176202001436686,6.187072436939247,6.187072436939247,6.187072436939247,6.187072436939247,6.187072436939247,6.187072436939247,6.187072436939247,6.187072436939247,6.187072436939247,6.187072436939247,6.187072436939247,6.187072436939247,6.187072436939247,6.187072436939247,6.187072436939247,6.187072436939247,6.187072436939247,6.187072436939247,6.187072436939247,6.187072436939247,6.187072436939247,6.187072436939247,6.187072436939247,6.187072436939247,6.187072436939247,6.187072436939247,6.187072436939247,6.187072436939247,6.187072436939247,6.187072436939247,6.187072436939247,6.187072436939247,6.187072436939247,6.187072436939247,6.187072436939247,6.187072436939247,6.187072436939247,6.187072436939247,6.187072436939247,6.187072436939247,6.187072436939247,6.187072436939247,6.187072436939247,6.187072436939247,6.187072436939247,6.187072436939247,6.187072436939247,6.187072436939247,6.187072436939247,6.187072436939247,6.187072436939247,6.187072436939247,6.187072436939247,6.187072436939247,6.187072436939247,6.187072436939247,6.187072436939247,6.187072436939247,6.187072436939247,6.187072436939247,6.187072436939247,6.187072436939247,6.187072436939247,6.187072436939247,6.187072436939247,6.187072436939247,6.187072436939247,6.187072436939247,6.187072436939247,6.187072436939247,6.187072436939247,6.187072436939247,6.187072436939247,6.197966295448549,6.219814181275356,6.252697852963752,0.002467643398463615,0.04639541047535345,0.06830641270115745,0.11191859253982694,0.15511697179372863,0.2083018215025887,0.28369984531675874,0.35492526622516785,0.42729980631780595,0.4808200747771212,0.5297546904127499,0.56919686092197,0.6615576897326716,0.7000919144686915,0.8122512159686304,0.8621092584474932,0.9436187875472042,0.9949384839129434,1.04687160596694,1.1199252743387973,1.1775743781387775,1.2254969823363449,1.2738977361360082,1.299802983103116,1.3111441289278873,1.328285307066496,1.328285307066496,1.328285307066496,1.328285307066496,1.328285307066496,1.328285307066496,1.328285307066496,1.328285307066496,1.328285307066496,1.328285307066496,1.328285307066496,1.328285307066496,1.328285307066496,1.328285307066496,1.328285307066496,1.328285307066496,1.328285307066496,1.328285307066496,1.328285307066496,1.328285307066496,1.328285307066496,1.328285307066496,1.328285307066496,1.328285307066496,1.328285307066496,1.328285307066496,1.328285307066496,1.328285307066496,1.328285307066496,1.328285307066496,1.328285307066496,1.328285307066496,1.328285307066496,1.3508167047674184,1.4081152927787333,1.4665282975442244,1.5494589440082902,1.6327176295020172,1.691753929351498,1.7151610247975242,1.749972826263397,1.795711235619302,1.8182426333202244,1.8768347095170241,1.909402020978928,1.9620517314833994,1.9869531834722236,2.007217339587257,2.0271079717148703,2.0271079717148703,2.0271079717148703,2.0271079717148703,2.0271079717148703,2.0271079717148703,2.0271079717148703,2.046620012028275,2.046620012028275,2.046620012028275,2.046620012028275,2.046620012028275,2.046620012028275,2.046620012028275,2.046620012028275,2.046620012028275,2.046620012028275,2.046620012028275,2.046620012028275,2.046620012028275,2.046620012028275,2.046620012028275,2.046620012028275,2.046620012028275,2.046620012028275,2.046620012028275,2.046620012028275,2.046620012028275,2.061296988366885,2.151589456473777,2.2818902423210305,2.3852045713422054,2.492983575543777,2.5801909382075565,2.620375635992014,2.685907138190667,2.7455378513218367,2.7768864631700376,2.8223097425916146,2.9018517098786365,2.9290454152407506,2.968120671535729,2.970015057145518,3.014357759832345,3.014357759832345,3.0263277221841633,3.0263277221841633,3.0263277221841633,3.0263277221841633,3.0263277221841633,3.0263277221841633,3.0263277221841633,3.0263277221841633,3.0263277221841633,3.0263277221841633,3.0263277221841633,3.0263277221841633,3.0263277221841633,3.0263277221841633,3.0369449736360252,3.0789351336538706,3.1107393011100095,3.266895535866152,3.413649374909183,3.445405520698361,3.8324190744037057,4.003701912037287,4.003701912037287,4.186782175356794,4.259755815214959,4.315895966050129,4.34081219226722,4.34081219226722,4.34081219226722,4.34081219226722,4.34081219226722,4.34081219226722,4.34081219226722,4.34081219226722,4.34081219226722,4.34081219226722,4.34081219226722,4.34081219226722,4.34081219226722,4.34081219226722,4.34081219226722,4.34081219226722,4.34081219226722,4.34081219226722,4.34081219226722,4.34081219226722,4.34081219226722,4.34081219226722,4.34081219226722,4.34081219226722,4.34081219226722,4.34081219226722,4.34081219226722,4.34081219226722,4.34081219226722,4.34081219226722,4.324719725796007,4.308837442259821,4.300976315532414,4.29398446279264,4.29398446279264,4.29398446279264,4.29398446279264,4.29398446279264,4.29398446279264,4.29398446279264,4.29398446279264,4.29398446279264,4.29398446279264,4.29398446279264,4.29398446279264,4.29398446279264,4.29398446279264,4.29398446279264,4.29398446279264,4.29398446279264,4.29398446279264,4.29398446279264,4.29398446279264,4.29398446279264,4.29398446279264,4.29398446279264,4.29398446279264,4.29398446279264,4.29398446279264,4.29398446279264,4.29398446279264,4.29398446279264,4.29398446279264,4.29398446279264,4.29398446279264,4.29398446279264,4.29398446279264,4.29398446279264,4.29398446279264,4.29398446279264,4.29398446279264,4.29398446279264,4.29398446279264,4.29398446279264,4.29398446279264,4.29398446279264,4.29398446279264,4.29398446279264,4.29398446279264,4.29398446279264,4.29398446279264,4.29398446279264,4.29398446279264,4.29398446279264,4.29398446279264,4.29398446279264,4.29398446279264,4.29398446279264,4.29398446279264,4.29398446279264,4.29398446279264,4.29398446279264,4.29398446279264,4.29398446279264,4.29398446279264,4.29398446279264,4.29398446279264,4.29398446279264,4.29398446279264,4.29398446279264,4.29398446279264,4.29398446279264,4.29398446279264,4.29398446279264,4.29398446279264,4.29398446279264,4.29398446279264,4.29398446279264,4.29398446279264,4.308837442259821,4.316752063591781,4.327980906052125,4.371251625903149,4.41249422140035,4.48477047659092,4.554093883157319,4.651876961350209,4.741877072970418,4.813633215850816,4.8931240820823865,4.978820347408858,5.036607178179795,5.0922525910195775,5.138085081733787,5.171335896786867,5.192687678775267,5.213577563317185,5.220437678657358,5.227246084093891,5.2407076183972086,5.2407076183972086,5.24