[{"nsides":6,"instructions":"Let's define a new operation <img src=./images/hexagon_symbol.png style=width:14px;height:14px>. This operation will give us a way of combining two of the numbers 0, 1, 2, 3, 4, 5 to get another one of them back. To perform <img src=./images/hexagon_symbol.png style=width:14px;height:14px>, you can either use a method based on the hexagon at right, or a method based on arithmetic.<br /><b>Hexagon method:</b> you can use the interactive diagram on the right, or perform the operation in your mind. Point the arrow at the first number on the hexagon by clicking, then click (or click and drag) to move the arrow the second number of points clockwise around the hexagon. The number the arrow arrives at is your result. (The operation is called <img src=./images/hexagon_symbol.png style=width:14px;height:14px> because it uses the hexagon, which has 6 sides.) <br ><b>Arithmetic method:</b> you start with the first number, and then add  the sec ond one to it. If the sum is smaller than 6, that's your result. If the sum is 6 or bigger, you subtract 6 to get your result. <br /><br />For example, 3 <img src=./images/hexagon_symbol.png style=width:14px;height:14px> 5 = 2, because 5 steps clockwise from 3 on the hexagon brings us to 2. Equivalently, 3 + 5 = 8, and 8 is bigger than 6, so we subtract 6, and 8 - 6 = 2. So 3 <img src=./images/hexagon_symbol.png style=width:14px;height:14px> 5 = 2.<br /><br />Similarly, 1 <img src=./images/hexagon_symbol.png style=width:14px;height:14px> 4 = 5, because 1 + 4 = 5, and 5 is less than 6 so we leave it alone. Equivalently, 4 steps clockwise from 1 on the hexagon brings us to 5. <br /><br />Click Continue when you're ready to move on.","orientation_history":[0,[5.222877302301465,5.222877302301465,5.222877302301465,5.222877302301465,5.222877302301465,5.222877302301465,5.222877302301465,5.222877302301465,5.235987755982988],[2.2558613859717247,2.2558613859717247,2.2558613859717247,2.2558613859717247,2.2558613859717247,2.2558613859717247,2.2558613859717247,2.2558613859717247,2.0943951023931953],[2.2558613859717247,2.2558613859717247,2.2558613859717247,2.2558613859717247,2.2558613859717247,2.2558613859717247,2.2558613859717247,2.2558613859717247,2.0943951023931953],[3.0814244024347834,3.0814244024347834,3.0814244024347834,3.0814244024347834,3.0814244024347834,3.0814244024347834,3.0814244024347834,3.141592653589793],[4.2038996563049995,4.2038996563049995,4.2038996563049995,4.2038996563049995,4.2038996563049995,4.2038996563049995,4.2038996563049995,4.2038996563049995,4.1887902047863905],[5.525303133067592,5.525303133067592,5.525303133067592,5.525303133067592,5.525303133067592,5.525303133067592,5.525303133067592,5.525303133067592,5.235987755982988],[0.02531104914284832,0.02531104914284832,0.02531104914284832,0.02531104914284832,0.02531104914284832,0.02531104914284832,0.02531104914284832,0.02531104914284832,0],[1.2320982425918494,1.2320982425918494,1.2320982425918494,1.2320982425918494,1.2320982425918494,1.2320982425918494,1.2320982425918494,1.2320982425918494,1.0471975511965976],[2.2075973683431456,2.2075973683431456,2.2075973683431456,2.2075973683431456,2.2075973683431456,2.2075973683431456,2.2075973683431456,2.2075973683431456,2.0943951023931953]],"rt":141430,"trial_type":"polygon-arrow-instructions","trial_index":0,"trial_index_global":1,"time_elapsed":148470,"internal_chunk_id":"0-0"},{"nsides":6,"instructions":"Do you see how the different ways of performing <img src=./images/hexagon_symbol.png style=width:14px;height:14px> give the same result? By labeling the points of the hexagon with the numbers from 0 to 5, we ensure that when we combine two numbers using the hexagon, we only produce numbers between 0 and 5. When we use the arithmetic strategy, adding the second number to the first mimics counting around the hexagon, and subtracting 6 each time we get above 5 makes sure the results correspond to t he numbe rs on the points of the hexagon. <br /><br />Click Continue when you're ready to move on.","orientation_history":[0],"rt":20357,"trial_type":"polygon-arrow-instructions","trial_index":0,"trial_index_global":2,"time_elapsed":168829,"internal_chunk_id":"0-0"},{"nsides":6,"question":"Now try one on your own! What is 4 <img src=./images/hexagon_symbol.png style=width:14px;height:14px> 5? <br /><br /> (Remember, to perform <img src=./images/hexagon_symbol.png style=width:14px;height:14px>, you can either use a method based on the hexagon at right, or a method based on arithmetic.<br /><br /><b>Hexagon method:</b> you can use the interactive diagram on the right, or perform the operation in your mind. Point the arrow at the first number, then move the arrow the second number of points clockwise around the hexagon. The number the arrow arrives at is your result. <br /><br /><b>Arithmetic method:</b> you start with the first number, and then add the second one to  it. If  the sum is smaller than 6, that's your result. If the sum is 6 or bigger, you subtract 6 to get your result.)","response_type":"free","response_choices":[],"correct_response":"3","response":"3","orientation_history":[[0]],"response_history":["3"],"rt":25446,"trial_type":"polygon-arrow-question","trial_index":0,"trial_index_global":3,"time_elapsed":194277,"internal_chunk_id":"0-0.3-0"},{"nsides":6,"feedback":"Correct! 4 <img src=./images/hexagon_symbol.png style=width:14px;height:14px> 5 = 3 because 5 steps clockwise on the hexagon from 4 brings us to 3. Equivalently, 4 + 5 = 9 and 9 - 6 = 3.","orientation_history":[0],"rt":1870,"trial_type":"polygon-arrow-feedback","trial_index":0,"trial_index_global":4,"time_elapsed":196149,"internal_chunk_id":"0-0.3-0"},{"nsides":6,"question":"What is 3 <img src=./images/hexagon_symbol.png style=width:14px;height:14px> 2? Try to solve this problem using the hexagon. <br /><br /> (Remember, to perform <img src=./images/hex agon_sym bol.png style=width:14px;height:14px> on the hexagon, you can use the interactive diagram on the right, or perform the operation in your mind. Point the arrow at the first number on the hexagon, and then move the arrow the second number of points clockwise around the hexagon.)","response_type":"free","response_choices":[],"correct_response":"5","response":"5","orientation_history":[[0],[3.1793106060566574,3.1793106060566574,3.1793106060566574,3.1793106060566574,3.1793106060566574,3.1793106060566574,3.1793106060566574,3.1793106060566574,3.141592653589793],[3.9769492127091843,3.9769492127091843,3.9769492127091843,3.9769492127091843,3.9769492127091843,3.9769492127091843,3.9769492127091843,3.9769492127091843,4.1887902047863905],[5.231535094631212,5.231535094631212,5.231535094631212,5.231535094631212,5.231535094631212,5.231535094631212,5.231535094631212,5.231535094631212,5.235987755982988]],"response_history":["5"],"rt":19485,"trial_type":"polygon-arrow-question","trial_index":0,"trial_index_global":5,"time_elapsed":215635,"internal_chunk_id":"0-0.3-0"},{"nsides":6,"feedback":"Correct! 3 <img src=./images/hexagon_symbol.png style=width:14px;height:14px> 2 = 5 because 2 steps clockwise on the hexagon from 3 brings us to 5. Equivalently, 3 + 2 = 5 and 5 is less than 6.","orientation_history":[0],"rt":6705,"trial_type":"polygon-arrow-feedback","trial_index":0,"trial_index_global":6,"time_elapsed":222341,"internal_chunk_id":"0-0.3-0"},{"nsides":6,"question":"What is 1 <img src=./images/hexagon_symbol.png style=width:14px;height:14px> 5? Try to solve this probem using the arithmetic technique. <br /><br /> (Remember, to perform <img src=./images/hexagon_symbol.png style=width:14px;height:14px> by arithmetic, you start with the first number, and then add the second one to it. If the sum is smaller than 6, that's your result. If the sum is 6 or bigger, you subtract 6 to get your result.)","response_type":"free","response_choices":[],"correct_response":"0","response":"0","orientation_history":[[0]],"response_history":["0"],"rt":8949,"trial_type":"polygon-arrow-question","trial_index":0,"trial_index_global":7,"time_elapsed":231291,"internal_chunk_id":"0-0.3-0"},{"nsides":6,"feedback":"Correct! 1 <img src=./images/hexagon_symbol.png style=width:14px;height:14px> 5 = 0 because 1 + 5 = 6 and 6 - 6 = 0.  Equivalently, 5 steps clockwise on the hexagon from 1 brings us to 0.","orientation_history":[0],"rt":1327,"trial_type":"polygon-arrow-feedback","trial_index":0,"trial_index_global":8,"time_elapsed":232619,"internal_chunk_id":"0-0.3-0"},{"nsides":6,"question":"What is 1 <img src=./images/hexagon_symbol.png style=width:14px;height:14px> 1? Try to solve this problem using the hexagon. <br /><br /> (Remember, to perform <img src=./images/hexagon_symbol.png style=width:14px;height:14px> on the hexagon, you can use the interactive diagram on the right, or perform the operation in your mind. Point th e arrow  at the first number on the hexagon, and then move the arrow the second number of points clockwise around the hexagon.)","response_type":"free","response_choices":[],"correct_response":"2","response":"2","orientation_history":[[0],[0.9865250492139878,0.9865250492139878,0.9865250492139878,0.9865250492139878,0.9865250492139878,0.9865250492139878,0.9865250492139878,0.9865250492139878,1.0471975511965976],[1.849095985800008,1.849095985800008,1.849095985800008,1.849095985800008,1.849095985800008,1.849095985800008,1.849095985800008,1.849095985800008,2.0943951023931953]],"response_history":["2"],"rt":9663,"trial_type":"polygon-arrow-question","trial_index":0,"trial_index_global":9,"time_elapsed":242282,"internal_chunk_id":"0-0.3-0"},{"nsides":6,"feedback":"Correct! 1 <img src=./images/hexagon_symbol.png style=width:14px;height:14px> 1 = 2 because 1 step clockwise on the hexagon from 1 brings us to 2. Equivalently, 1 + 1 = 2 and 2 is less than 6.","orientation_history":[0],"rt":2214,"trial_type":"polygon-arrow-feedback","trial_index":0,"trial_index_global":10,"time_elapsed":244496,"internal_chunk_id":"0-0.3-0"},{"nsides":6,"question":"What is 3 <img src=./images/hexagon_symbol.png style=width:14px;height:14px> 0? Try to solve this problem using the arithmetic technique. <br /><br /> (Remember, to perform <img src=./images/hexagon_symbol.png style=width:14px;height:14px> using arithmetic, you start with the first number, and then add the second one to it. If the sum is smaller than 6, that's your result. If the sum is 6 or bigger, you subtract 6 to get your result.)","response_type":"free","response_choices":[],"correct_response":"3","response":"3","orientation_history":[[0]],"response_history":["3"],"rt":7314,"trial_type":"polygon-arrow-question","trial_index":0,"trial_index_global":11,"time_elapsed":251811,"internal_chunk_id":"0-0.3-0"},{"nsides":6,"feedback":"Correct! 3 <img src=./images/hexagon_symbol.png style=width:14px;height: 14px>  0 = 3 because 3 + 0 = 3 and 3 - 6 = 3.  Equivalently, 0 steps clockwise on the hexagon from 3 brings us to 3.","orientation_history":[0],"rt":1296,"trial_type":"polygon-arrow-feedback","trial_index":0,"trial_index_global":12,"time_elapsed":253108,"internal_chunk_id":"0-0.3-0"},{"nsides":6,"question":"What is 4 <img src=./images/hexagon_symbol.png style=width:14px;height:14px> 4? Try to solve this problem using the hexagon. <br /><br /> (Remember, to perform <img src=./images/hexagon_symbol.png style=width:14px;height:14px> on the hexagon, you can use the interactive diagram on the right, or perform the operation in your mind. Point the arrow at the first number on the hexagon, and then move the arrow the second number of points clockwise around the hexagon.)","response_type":"free","response_choices":[],"correct_response":"2","response":"2","orientation_history":[[0],[4.015864991800349,4.015864991800349,4.015864991800349,4.015864991800349,4.015864991800349,4.015864991800349,4.015864991800349,4.015864991800349,4.1887902047863905],[5.346411700048112,5.346411700048112,5.346411700048112,5.346411700048112,5.346411700048112,5.346411700048112,5.346411700048112,5.346411700048112,5.235987755982988],[0.017239671194529738,0.017239671194529738,0.017239671194529738,0.017239671194529738,0.017239671194529738,0.017239671194529738,0.017239671194529738,0.017239671194529738,0],[1.4135682758183277,1.4135682758183277,1.4135682758183277,1.4135682758183277,1.4135682758183277,1.4135682758183277,1.4135682758183277,1.4135682758183277,1.0471975511965976],[2.0778948311872334,2.0778948311872334,2.0778948311872334,2.0778948311872334,2.0778948311872334,2.0778948311872334,2.0778948311872334,2.0778948311872334,2.0943951023931953]],"response_history":["2"],"rt":10863,"trial_type":"polygon-arrow-question","trial_index":0,"trial_index_global":13,"time_elapsed":263972,"internal_chunk_id":"0-0.3-0"},{"nsides":6,"feedback":"Correct! 4 <img src=./images/hexagon_symbol.png  style=width:14px;height:14px> 4 = 2 because 4 steps clockwise on the hexagon from 4 brings us to 2. Equivalently, 4 + 4 = 8 and 8 - 6 = 2.","orientation_history":[0],"rt":1388,"trial_type":"polygon-arrow-feedback","trial_index":0,"trial_index_global":14,"time_elapsed":265361,"internal_chunk_id":"0-0.3-0"},{"nsides":6,"question":"What is 1 <img src=./images/hexagon_symbol.png style=width:14px;height:14px> 3? Try to solve this problem using the arithmetic technique. <br /><br /> (Remember, to perform <img src=./images/hexagon_symbol.png style=width:14px;height:14px> by arithmetic, you start with the first number, and then add the second one to it. If the sum is smaller than 6, that's your result. If the sum is 6 or bigger, you subtract 6 to get your result.)","response_type":"free","response_choices":[],"correct_response":"4","response":"4","orientation_history":[[0]],"response_history":["4"],"rt":4619,"trial_type":"polygon-arrow-question","trial_index":0,"trial_index_global":15,"time_elapsed":269980,"internal_chunk_id":"0-0.3-0"},{"nsides":6,"feedback":"Correct! 1 <img src=./images/hexagon_symbol.png style=width:14px;height:14px> 3 = 4 because 1 + 3 = 4 and 4 - 6 = 4.  Equivalently, 3 steps clockwise on the hexagon from 1 brings us to 4.","orientation_history":[0],"rt":1087,"trial_type":"polygon-arrow-feedback","trial_index":0,"trial_index_global":16,"time_elapsed":271067,"internal_chunk_id":"0-0.3-0"},{"nsides":6,"question":"What is 4 <img src=./images/hexagon_symbol.png style=width:14px;height:14px> 3? <br /><br /> (Remember, to perform <img src=./images/hexagon_symbol.png style=width:14px;height:14px>, you can either use a method based on the hexagon at right, or a method based on arithmetic.<br /><br /><b>Hexagon method:</b> you can use the interactive diagram on the right, or perform the operation in your mind. Point the arrow at the first number, then move the arrow the second number of points clockwise around  the hexa gon. The number the arrow arrives at is your result. <br /><br /><b>Arithmetic method:</b> you start with the first number, and then add the second one to it. If the sum is smaller than 6, that's your result. If the sum is 6 or bigger, you subtract 6 to get your result.)","response_type":"free","response_choices":[],"correct_response":"1","response":"1","orientation_history":[[0]],"response_history":["1"],"rt":6058,"trial_type":"polygon-arrow-question","trial_index":0,"trial_index_global":17,"time_elapsed":277126,"internal_chunk_id":"0-0.3-0"},{"nsides":6,"feedback":"Correct! 4 <img src=./images/hexagon_symbol.png style=width:14px;height:14px> 3 = 1 because 3 steps clockwise on the hexagon from 4 brings us to 1. Equivalently, 4 + 3 = 7 and 7 - 6 = 1.","orientation_history":[0],"rt":2072,"trial_type":"polygon-arrow-feedback","trial_index":0,"trial_index_global":18,"time_elapsed":279199,"internal_chunk_id":"0-0.3-0"},{"nsides":6,"question":"What is 0 <img src=./image s/hexago n_symbol.png style=width:14px;height:14px> 5? <br /><br /> (Remember, to perform <img src=./images/hexagon_symbol.png style=width:14px;height:14px>, you can either use a method based on the hexagon at right, or a method based on arithmetic.<br /><br /><b>Hexagon method:</b> you can use the interactive diagram on the right, or perform the operation in your mind. Point the arrow at the first number, then move the arrow the second number of points clockwise around the hexagon. The number the arrow arrives at is your result. <br /><br /><b>Arithmetic method:</b> you start with the first number, and then add the second one to it. If the sum is smaller than 6, that's your result. If the sum is 6 or bigger, you subtract 6 to get your result.)","response_type":"free","response_choices":[],"correct_response":"5","response":"5","orientation_history":[[0]],"response_history":["5"],"rt":9461,"trial_type":"polygon-arrow-question","trial_index":0,"trial_index_global":19,"time_elapsed":288661,"internal_chunk_id":"0-0.3-0"},{"nsides":6,"feedback":"Correct! 0 <img src=./images/hexagon_symbol.png style=width:14px;height:14px> 5 = 5 because 5 steps clockwise on the hexagon from 0 brings us to 5. Equivalently, 0 + 5 = 5 and 5 is less than 6.","orientation_history":[0],"rt":1085,"trial_type":"polygon-arrow-feedback","trial_index":0,"trial_index_global":20,"time_elapsed":289747,"internal_chunk_id":"0-0.3-0"},{"nsides":6,"question":"What is 2 <img src=./images/hexagon_symbol.png style=width:14px;height:14px> 5? <br /><br /> (Remember, to perform <img src=./images/hexagon_symbol.png style=width:14px;height:14px>, you can either use a method based on the hexagon at right, or a method based on arithmetic.<br /><br /><b>Hexagon method:</b> you can use the interactive diagram on the right, or perform the operation in your mind. Point the arrow at the first number, then move the arrow the second number of points clockwise around the hexagon. T he numbe r the arrow arrives at is your result. <br /><br /><b>Arithmetic method:</b> you start with the first number, and then add the second one to it. If the sum is smaller than 6, that's your result. If the sum is 6 or bigger, you subtract 6 to get your result.)","response_type":"free","response_choices":[],"correct_response":"1","response":"1","orientation_history":[[0]],"response_history":["2","1"],"rt":7687,"trial_type":"polygon-arrow-question","trial_index":0,"trial_index_global":21,"time_elapsed":297435,"internal_chunk_id":"0-0.3-0"},{"nsides":6,"feedback":"Correct! 2 <img src=./images/hexagon_symbol.png style=width:14px;height:14px> 5 = 1 because 5 steps clockwise on the hexagon from 2 brings us to 1. Equivalently, 2 + 5 = 7 and 7 - 6 = 1.","orientation_history":[0],"rt":1268,"trial_type":"polygon-arrow-feedback","trial_index":0,"trial_index_global":22,"time_elapsed":298704,"internal_chunk_id":"0-0.3-0"},{"nsides":6,"instructions":"Now we're going to discuss a coupl e specia l properties of this new operation, <img src=./images/hexagon_symbol.png style=width:14px;height:14px> that we've learned. First, notice that the number 0 behaves in a special way under <img src=./images/hexagon_symbol.png style=width:14px;height:14px>. Whenever we combine 0 with anything else, we get that same thing back. We'll say that 0 is the <i>identity</i> under <img src=./images/hexagon_symbol.png style=width:14px;height:14px>, because when you combine it with something it gives you that identical thing back.","orientation_history":[0],"rt":18640,"trial_type":"polygon-arrow-instructions","trial_index":0,"trial_index_global":23,"time_elapsed":317346,"internal_chunk_id":"0-0"},{"nsides":6,"instructions":"Now that we know 0 is the identity under <img src=./images/hexagon_symbol.png style=width:14px;height:14px>, we're going to make a new definition. We'll say that the <i>inverse</i> of a number is the element that you combine with it to pr oduce th e identity. For example, 5 <img src=./images/hexagon_symbol.png style=width:14px;height:14px> 1 = 0, so we say 1 is the inverse of 5 under <img src=./images/hexagon_symbol.png style=width:14px;height:14px>, (remember 0 is the identity under <img src=./images/hexagon_symbol.png style=width:14px;height:14px>). Similarly, 3 is its own inverse under <img src=./images/hexagon_symbol.png style=width:14px;height:14px>, because 3 <img src=./images/hexagon_symbol.png style=width:14px;height:14px> 3 = 0.","orientation_history":[0],"rt":46219,"trial_type":"polygon-arrow-instructions","trial_index":0,"trial_index_global":24,"time_elapsed":363565,"internal_chunk_id":"0-0"},{"nsides":6,"question":"Now you try! What is the inverse of 4 under <img src=./images/hexagon_symbol.png style=width:14px;height:14px>? <br /><br /> (Remember, the inverse of an element is the thing which you combine with it to produce the identity.)","response_type":"fre e","response_choices":[],"correct_response":"2","response":"2","orientation_history":[[0]],"response_history":["2"],"rt":6862,"trial_type":"polygon-arrow-question","trial_index":0,"trial_index_global":25,"time_elapsed":370427,"internal_chunk_id":"0-0.7-0"},{"nsides":6,"feedback":"Correct! The inverse of 4 under <img src=./images/hexagon_symbol.png style=width:14px;height:14px> is 2 because 4 <img src=./images/hexagon_symbol.png style=width:14px;height:14px> 2 = 0, and 0 is the identity under <img src=./images/hexagon_symbol.png style=width:14px;height:14px>.","orientation_history":[0],"rt":1399,"trial_type":"polygon-arrow-feedback","trial_index":0,"trial_index_global":26,"time_elapsed":371827,"internal_chunk_id":"0-0.7-0"},{"nsides":6,"question":"What is the inverse of 1 under <img src=./images/hexagon_symbol.png style=width:14px;height:14px>? <br /><br /> (Remember, the inverse of an element is the thing which you combine with it to produce the ident ity.)","response_type":"free","response_choices":[],"correct_response":"5","response":"5","orientation_history":[[0]],"response_history":["5"],"rt":4890,"trial_type":"polygon-arrow-question","trial_index":0,"trial_index_global":27,"time_elapsed":376717,"internal_chunk_id":"0-0.7-0"},{"nsides":6,"feedback":"Correct! The inverse of 1 under <img src=./images/hexagon_symbol.png style=width:14px;height:14px> is 5 because 1 <img src=./images/hexagon_symbol.png style=width:14px;height:14px> 5 = 0, and 0 is the identity under <img src=./images/hexagon_symbol.png style=width:14px;height:14px>.","orientation_history":[0],"rt":927,"trial_type":"polygon-arrow-feedback","trial_index":0,"trial_index_global":28,"time_elapsed":377645,"internal_chunk_id":"0-0.7-0"},{"nsides":6,"question":"What is the inverse of 3 under <img src=./images/hexagon_symbol.png style=width:14px;height:14px>? <br /><br /> (Remember, the inverse of an element is the thing which you combine wi th it to  produce the identity.)","response_type":"free","response_choices":[],"correct_response":"3","response":"3","orientation_history":[[0]],"response_history":["3"],"rt":3321,"trial_type":"polygon-arrow-question","trial_index":0,"trial_index_global":29,"time_elapsed":380966,"internal_chunk_id":"0-0.7-0"},{"nsides":6,"feedback":"Correct! The inverse of 3 under <img src=./images/hexagon_symbol.png style=width:14px;height:14px> is 3 because 3 <img src=./images/hexagon_symbol.png style=width:14px;height:14px> 3 = 0, and 0 is the identity under <img src=./images/hexagon_symbol.png style=width:14px;height:14px>.","orientation_history":[0],"rt":1177,"trial_type":"polygon-arrow-feedback","trial_index":0,"trial_index_global":30,"time_elapsed":382144,"internal_chunk_id":"0-0.7-0"},{"nsides":6,"question":"What is the inverse of 2 under <img src=./images/hexagon_symbol.png style=width:14px;height:14px>? <br /><br /> (Remember, the inverse of an element is the  thing w hich you combine with it to produce the identity.)","response_type":"free","response_choices":[],"correct_response":"4","response":"4","orientation_history":[[0]],"response_history":["4"],"rt":4300,"trial_type":"polygon-arrow-question","trial_index":0,"trial_index_global":31,"time_elapsed":386445,"internal_chunk_id":"0-0.7-0"},{"nsides":6,"feedback":"Correct! The inverse of 2 under <img src=./images/hexagon_symbol.png style=width:14px;height:14px> is 4 because 2 <img src=./images/hexagon_symbol.png style=width:14px;height:14px> 4 = 0, and 0 is the identity under <img src=./images/hexagon_symbol.png style=width:14px;height:14px>.","orientation_history":[0],"rt":916,"trial_type":"polygon-arrow-feedback","trial_index":0,"trial_index_global":32,"time_elapsed":387362,"internal_chunk_id":"0-0.7-0"},{"nsides":6,"question":"What is the inverse of 0 under <img src=./images/hexagon_symbol.png style=width:14px;height:14px>? <br /><br /> (Remember, the in verse of  an element is the thing which you combine with it to produce the identity.)","response_type":"free","response_choices":[],"correct_response":"0","response":"0","orientation_history":[[0]],"response_history":["6","0"],"rt":15254,"trial_type":"polygon-arrow-question","trial_index":0,"trial_index_global":33,"time_elapsed":402616,"internal_chunk_id":"0-0.7-0"},{"nsides":6,"feedback":"Correct! The inverse of 0 under <img src=./images/hexagon_symbol.png style=width:14px;height:14px> is 0 because 0 <img src=./images/hexagon_symbol.png style=width:14px;height:14px> 0 = 0, and 0 is the identity under <img src=./images/hexagon_symbol.png style=width:14px;height:14px>.","orientation_history":[0],"rt":1186,"trial_type":"polygon-arrow-feedback","trial_index":0,"trial_index_global":34,"time_elapsed":403803,"internal_chunk_id":"0-0.7-0"},{"nsides":6,"instructions":"It is also possible to successively apply <img src=./images/hexagon_symbol.png style=width:14px ;height: 14px>, and the operation can simply be performed starting with the left-most pair. For example, 2 <img src=./images/hexagon_symbol.png style=width:14px;height:14px> 3 <img src=./images/hexagon_symbol.png style=width:14px;height:14px> 4 = 5 <img src=./images/hexagon_symbol.png style=width:14px;height:14px> 4 = 3.","orientation_history":[0],"rt":32188,"trial_type":"polygon-arrow-instructions","trial_index":0,"trial_index_global":35,"time_elapsed":435992,"internal_chunk_id":"0-0"},{"nsides":6,"instructions":"We have one last definition to learn today, using the successive operations we just learned. Let's start with an example. Under our operation <img src=./images/hexagon_symbol.png style=width:14px;height:14px> we can make every other number using just 1: 2 = 1 <img src=./images/hexagon_symbol.png style=width:14px;height:14px> 1, 3 = 1 <img src=./images/hexagon_symbol.png style=width:14px;height:14px> 1 <img src=./images/hex agon_sym bol.png style=width:14px;height:14px> 1, 4 = 1 <img src=./images/hexagon_symbol.png style=width:14px;height:14px> 1 <img src=./images/hexagon_symbol.png style=width:14px;height:14px> 1 <img src=./images/hexagon_symbol.png style=width:14px;height:14px> 1, 5 = 1 <img src=./images/hexagon_symbol.png style=width:14px;height:14px> 1 <img src=./images/hexagon_symbol.png style=width:14px;height:14px> 1 <img src=./images/hexagon_symbol.png style=width:14px;height:14px> 1 <img src=./images/hexagon_symbol.png style=width:14px;height:14px> 1, and 0 = 1 <img src=./images/hexagon_symbol.png style=width:14px;height:14px> 1 <img src=./images/hexagon_symbol.png style=width:14px;height:14px> 1 <img src=./images/hexagon_symbol.png style=width:14px;height:14px> 1 <img src=./images/hexagon_symbol.png style=width:14px;height:14px> 1 <img src=./images/hexagon_symbol.png style=width:14px;height:14px > 1. B ecause 1 can make every other element under <img src=./images/hexagon_symbol.png style=width:14px;height:14px>, we say that 1 is a <i>generator</i> under <img src=./images/hexagon_symbol.png style=width:14px;height:14px>. <br /><br /> However, 2 is not a generator under <img src=./images/hexagon_symbol.png style=width:14px;height:14px>, because 4 = 2 <img src=./images/hexagon_symbol.png style=width:14px;height:14px> 2, and 0 = 2 <img src=./images/hexagon_symbol.png style=width:14px;height:14px> 2 <img src=./images/hexagon_symbol.png style=width:14px;height:14px> 2, but there is no way to make 1, 3, or 5 using just 2.","orientation_history":[0],"rt":95803,"trial_type":"polygon-arrow-instructions","trial_index":0,"trial_index_global":36,"time_elapsed":531796,"internal_chunk_id":"0-0"},{"nsides":6,"question":"Now you try! Is 3 a generator under <img src=./images/hexagon_symbol.png style=width:14px;height:14px>? <br /><br / > (Remem ber, a generator is an element which can make every other element.)","response_type":"multi","response_choices":["Yes","No"],"correct_response":"No","response":"Yes","orientation_history":[[0]],"response_history":["Yes"],"rt":44401,"trial_type":"polygon-arrow-question","trial_index":0,"trial_index_global":37,"time_elapsed":576198,"internal_chunk_id":"0-0.10-0"},{"nsides":6,"feedback":"Sorry, that's incorrect. 3 is not a generator under <img src=./images/hexagon_symbol.png style=width:14px;height:14px>, because 3 = 3, 0 = 3 <img src=./images/hexagon_symbol.png style=width:14px;height:14px> 3, but there is no way to make 1, 2, 4, or 5 using just 3.","orientation_history":[0],"rt":7640,"trial_type":"polygon-arrow-feedback","trial_index":0,"trial_index_global":38,"time_elapsed":583839,"internal_chunk_id":"0-0.10-0"},{"nsides":6,"question":"Is 5 a generator under <img src=./images/hexagon_symbol.png style=width:14px;height:14px>? <br /><br /> (Remember, a  generato r is an element which can make every other element.)","response_type":"multi","response_choices":["Yes","No"],"correct_response":"Yes","response":"No","orientation_history":[[0]],"response_history":["No"],"rt":18975,"trial_type":"polygon-arrow-question","trial_index":0,"trial_index_global":39,"time_elapsed":602816,"internal_chunk_id":"0-0.10-0"},{"nsides":6,"feedback":"Sorry, that's incorrect. 5 is a generator under <img src=./images/hexagon_symbol.png style=width:14px;height:14px>, because 5 = 5, 4 = 5 <img src=./images/hexagon_symbol.png style=width:14px;height:14px> 5, 3 = 5 <img src=./images/hexagon_symbol.png style=width:14px;height:14px> 5 <img src=./images/hexagon_symbol.png style=width:14px;height:14px> 5, 2 = 5 <img src=./images/hexagon_symbol.png style=width:14px;height:14px> 5 <img src=./images/hexagon_symbol.png style=width:14px;height:14px> 5 <img src=./images/hexagon_symbol.png style=width:14px;height:14px > 5, 1 =  5 <img src=./images/hexagon_symbol.png style=width:14px;height:14px> 5 <img src=./images/hexagon_symbol.png style=width:14px;height:14px> 5 <img src=./images/hexagon_symbol.png style=width:14px;height:14px> 5 <img src=./images/hexagon_symbol.png style=width:14px;height:14px> 5, and 0 = 5 <img src=./images/hexagon_symbol.png style=width:14px;height:14px> 5 <img src=./images/hexagon_symbol.png style=width:14px;height:14px> 5 <img src=./images/hexagon_symbol.png style=width:14px;height:14px> 5 <img src=./images/hexagon_symbol.png style=width:14px;height:14px> 5 <img src=./images/hexagon_symbol.png style=width:14px;height:14px> 5, so you can make all of the numbers under <img src=./images/hexagon_symbol.png style=width:14px;height:14px> using 5","orientation_history":[0],"rt":4255,"trial_type":"polygon-arrow-feedback","trial_index":0,"trial_index_global":40,"time_elapsed":607072,"internal_chunk_id":"0-0.10- 0"},{"nsides":6,"question":"Is 4 a generator under <img src=./images/hexagon_symbol.png style=width:14px;height:14px>? <br /><br /> (Remember, a generator is an element which can make every other element.)","response_type":"multi","response_choices":["Yes","No"],"correct_response":"No","response":"No","orientation_history":[[0]],"response_history":["No"],"rt":4138,"trial_type":"polygon-arrow-question","trial_index":0,"trial_index_global":41,"time_elapsed":611210,"internal_chunk_id":"0-0.10-0"},{"nsides":6,"feedback":"Correct! 4 is not a generator under <img src=./images/hexagon_symbol.png style=width:14px;height:14px>, because 4 = 4, 2 = 4 <img src=./images/hexagon_symbol.png style=width:14px;height:14px> 4, and 0 = 4 <img src=./images/hexagon_symbol.png style=width:14px;height:14px> 4 <img src=./images/hexagon_symbol.png style=width:14px;height:14px> 4, but there is no way to make 1, 3, or 5 using just 4.","orientation_history":[0],"rt":2364,"trial_type":"polygon-arrow-feedback","trial_index":0,"trial_index_global":42,"time_elapsed":613575,"internal_chunk_id":"0-0.10-0"},{"nsides":6,"question":"Is 0 a generator under <img src=./images/hexagon_symbol.png style=width:14px;height:14px>? <br /><br /> (Remember, a generator is an element which can make every other element.)","response_type":"multi","response_choices":["Yes","No"],"correct_response":"No","response":"No","orientation_history":[[0]],"response_history":["No"],"rt":5458,"trial_type":"polygon-arrow-question","trial_index":0,"trial_index_global":43,"time_elapsed":619034,"internal_chunk_id":"0-0.10-0"},{"nsides":6,"feedback":"Correct! 0 is not a generator under <img src=./images/hexagon_symbol.png style=width:14px;height:14px>, because 0 = 0, but there is no way to make 1, 2, 3, 4, or 5 using just 0.","orientation_history":[0],"rt":1286,"trial_type":"polygon-arrow-feedback","trial_index":0,"trial_index_global":44,"time_elapsed":620321,"internal_chunk_id":"0-0.10-0"},{"nsides":9,"instructions":"Now we are going to ask you some questions about a new operation, <img src=./images/nonagon_symbol.png style=width:14px;height:14px>, on the numbers 0, 1, 2, 3, 4, 5, 6, 7, 8. It works exactly like <img src=./images/hexagon_symbol.png style=width:14px;height:14px>, except now you use the nonagon shown at the right. Equivalently, after adding the two numbers you subtract 9 if your result is 9 or greater.<br /><br />Do you see how the different ways of performing <img src=./images/nonagon_symbol.png style=width:14px;height:14px> give the same result, just like with <img src=./images/hexagon_symbol.png style=width:14px;height:14px>? By labeling the points of the nonagon with the numbers from 0 to 8, we ensure that when we combine two numbers under <img src=./images/nonagon_symbol.png style=width:14px;height:14px>, we only produce numbers between 0 and 8. When we use the arithmetic strategy, add ing the  second number to the first mimics counting around the nonagon, and subtracting 9 each time we get above 8 makes sure the results correspond to the numbers on the points of the nonagon.<br /><br />We'll give you one practice question with feedback to make sure you understand the new operation. After that, try to complete the remaining questions as accurately as possible.","orientation_history":[0],"rt":41149,"trial_type":"polygon-arrow-instructions","trial_index":0,"trial_index_global":45,"time_elapsed":661471,"internal_chunk_id":"0-0"},{"nsides":9,"question":"Practice: What is 5 <img src=./images/nonagon_symbol.png style=width:14px;height:14px> 5?","response_type":"free","response_choices":[],"correct_response":"1","response":"1","orientation_history":[[0],[3.4474715249946453,3.4474715249946453,3.4474715249946453,3.4474715249946453,3.4474715249946453,3.4474715249946453,3.4474715249946453,3.490658503988659],[4.199331070975651,4.199331070975651,4.199331070975651,4.199331070975651,4.199331070975651,4.199331070975651,4.199331070975651,4.199331070975651,4.1887902047863905],[4.870478951506375,4.870478951506375,4.870478951506375,4.870478951506375,4.870478951506375,4.870478951506375,4.870478951506375,4.870478951506375,4.886921905584122],[5.431218980006314,5.431218980006314,5.431218980006314,5.431218980006314,5.431218980006314,5.431218980006314,5.431218980006314,5.431218980006314,5.585053606381854],[6.251449933651128,6.251449933651128,6.251449933651128,6.251449933651128,6.251449933651128,6.251449933651128,6.251449933651128,6.251449933651128,6.283185307179586],[0.5627372227610832,0.5627372227610832,0.5627372227610832,0.5627372227610832,0.5627372227610832,0.5627372227610832,0.5627372227610832,0.6981317007977318]],"response_history":["1"],"rt":13490,"trial_type":"polygon-arrow-question","trial_index":0,"trial_index_global":46,"time_elapsed":674962,"internal_chunk_id":"0-0.12-0"},{"nsides":9,"feedback":"Correct! 5 <img src=./images/nonagon_symbol.png st yle=wi dth:14px;height:14px> 5 = 1 because 5 steps clockwise on the nonagon from 5 brings us to 1. Equivalently, 5 + 5 = 10 and 10 - 9 = 1.","orientation_history":[0],"rt":4668,"trial_type":"polygon-arrow-feedback","trial_index":0,"trial_index_global":47,"time_elapsed":679631,"internal_chunk_id":"0-0.12-0"},{"nsides":9,"question":"What is 3 <img src=./images/nonagon_symbol.png style=width:14px;height:14px> 3?","response_type":"free","response_choices":[],"correct_response":"6","response":"6","orientation_history":[[0]],"response_history":["6"],"rt":3784,"trial_type":"polygon-arrow-question","trial_index":0,"trial_index_global":48,"time_elapsed":683415,"internal_chunk_id":"0-0.12-0"},{"nsides":9,"question":"What is 7 <img src=./images/nonagon_symbol.png style=width:14px;height:14px> 4?","response_type":"free","response_choices":[],"correct_response":"2","response":"2","orientation_history":[[0]],"response_history":["2"],"rt":9377,"trial_type":"polygon-arrow-questio n","trial_index":0,"trial_index_global":49,"time_elapsed":692793,"internal_chunk_id":"0-0.12-0"},{"nsides":9,"question":"What is 1 <img src=./images/nonagon_symbol.png style=width:14px;height:14px> 8?","response_type":"free","response_choices":[],"correct_response":"0","response":"0","orientation_history":[[0]],"response_history":["0"],"rt":4035,"trial_type":"polygon-arrow-question","trial_index":0,"trial_index_global":50,"time_elapsed":696829,"internal_chunk_id":"0-0.12-0"},{"nsides":9,"question":"What is 5 <img src=./images/nonagon_symbol.png style=width:14px;height:14px> 4?","response_type":"free","response_choices":[],"correct_response":"0","response":"0","orientation_history":[[0]],"response_history":["0"],"rt":5650,"trial_type":"polygon-arrow-question","trial_index":0,"trial_index_global":51,"time_elapsed":702480,"internal_chunk_id":"0-0.12-0"},{"nsides":9,"question":"What is 6 <img src=./images/nonagon_symbol.png style=width:14px;height:14px> 6?","response_type":"free","response_choices":[],"correct_response":"3","response":"3","orientation_history":[[0]],"response_history":["3"],"rt":14953,"trial_type":"polygon-arrow-question","trial_index":0,"trial_index_global":52,"time_elapsed":717433,"internal_chunk_id":"0-0.12-0"},{"nsides":9,"question":"What is 4 <img src=./images/nonagon_symbol.png style=width:14px;height:14px> 1? Please explain in words how you got your answer.","response_type":"free","response_choices":[],"correct_response":"","response":"5","orientation_history":[[0]],"response_history":["5"],"rt":5135,"trial_type":"polygon-arrow-question","trial_index":0,"trial_index_global":53,"time_elapsed":722569,"internal_chunk_id":"0-0.12-0"},{"nsides":9,"question":"What is 8 <img src=./images/nonagon_symbol.png style=width:14px;height:14px> 4? Please explain in words how you got your answer.","response_type":"free","response_choices":[],"correct_response":"","response":"3. Added 8 plus 4. Got 12. 12 is greater th an 9, so  subtracted 9. 12 minus 3 is 9. (I hit enter too soon on the last question and forwarded before I explained the answer, but I used the math method as well and added the two numbers together).","orientation_history":[[0]],"response_history":["3. Added 8 ","3. Added 8","3. Added eight plus ","3. Added 8 plus 4. Got 12. 12 is greater than 9, so subtractd","3. Added 8 plus 4. Got 12. 12 is greater than 9, so subtracted 9. 12 minus t","3. Added 8 plus 4. Got 12. 12 is greater than 9, so subtracted 9. 12 minus 3 is 9. ()","3. Added 8 plus 4. Got 12. 12 is greater than 9, so subtracted 9. 12 minus 3 is 9. (I)","3. Added 8 plus 4. Got 12. 12 is greater than 9, so subtracted 9. 12 minus 3 is 9. (I )","3. Added 8 plus 4. Got 12. 12 is greater than 9, so subtracted 9. 12 minus 3 is 9. (I a)","3. Added 8 plus 4. Got 12. 12 is greater than 9, so subtracted 9. 12 minus 3 is 9. (I ac)","3. Added 8 plus 4. Got 12. 12 is greater than 9, so subtracted 9. 12 minus 3 is 9. (I acc)","3. Added 8  plus 4.  Got 12. 12 is greater than 9, so subtracted 9. 12 minus 3 is 9. (I acci)","3. Added 8 plus 4. Got 12. 12 is greater than 9, so subtracted 9. 12 minus 3 is 9. (I acc)","3. Added 8 plus 4. Got 12. 12 is greater than 9, so subtracted 9. 12 minus 3 is 9. (I ac)","3. Added 8 plus 4. Got 12. 12 is greater than 9, so subtracted 9. 12 minus 3 is 9. (I a)","3. Added 8 plus 4. Got 12. 12 is greater than 9, so subtracted 9. 12 minus 3 is 9. (I )","3. Added 8 plus 4. Got 12. 12 is greater than 9, so subtracted 9. 12 minus 3 is 9. (I h)","3. Added 8 plus 4. Got 12. 12 is greater than 9, so subtracted 9. 12 minus 3 is 9. (I hi)","3. Added 8 plus 4. Got 12. 12 is greater than 9, so subtracted 9. 12 minus 3 is 9. (I hit)","3. Added 8 plus 4. Got 12. 12 is greater than 9, so subtracted 9. 12 minus 3 is 9. (I hit )","3. Added 8 plus 4. Got 12. 12 is greater than 9, so subtracted 9. 12 minus 3 is 9. (I hit e)","3. Added 8 plus 4. Got 12. 12 is greater than 9, so subtracted 9. 12 minus 3 is 9.  (I hit e n)","3. Added 8 plus 4. Got 12. 12 is greater than 9, so subtracted 9. 12 minus 3 is 9. (I hit ent)","3. Added 8 plus 4. Got 12. 12 is greater than 9, so subtracted 9. 12 minus 3 is 9. (I hit enter)","3. Added 8 plus 4. Got 12. 12 is greater than 9, so subtracted 9. 12 minus 3 is 9. (I hit enter )","3. Added 8 plus 4. Got 12. 12 is greater than 9, so subtracted 9. 12 minus 3 is 9. (I hit enter t)","3. Added 8 plus 4. Got 12. 12 is greater than 9, so subtracted 9. 12 minus 3 is 9. (I hit enter to)","3. Added 8 plus 4. Got 12. 12 is greater than 9, so subtracted 9. 12 minus 3 is 9. (I hit enter too)","3. Added 8 plus 4. Got 12. 12 is greater than 9, so subtracted 9. 12 minus 3 is 9. (I hit enter too )","3. Added 8 plus 4. Got 12. 12 is greater than 9, so subtracted 9. 12 minus 3 is 9. (I hit enter too so)","3. Added 8 plus 4. Got 12. 12 is greater than 9, so subtracted 9. 12 minus 3 is 9. (I hit enter too soo)","3. Added 8 plus 4. Got 12. 12 is greater than 9, so subtracted 9.  12 minu s 3 is 9. (I hit enter too soon )","3. Added 8 plus 4. Got 12. 12 is greater than 9, so subtracted 9. 12 minus 3 is 9. (I hit enter too soon o)","3. Added 8 plus 4. Got 12. 12 is greater than 9, so subtracted 9. 12 minus 3 is 9. (I hit enter too soon on )","3. Added 8 plus 4. Got 12. 12 is greater than 9, so subtracted 9. 12 minus 3 is 9. (I hit enter too soon on th)","3. Added 8 plus 4. Got 12. 12 is greater than 9, so subtracted 9. 12 minus 3 is 9. (I hit enter too soon on the )","3. Added 8 plus 4. Got 12. 12 is greater than 9, so subtracted 9. 12 minus 3 is 9. (I hit enter too soon on the la)","3. Added 8 plus 4. Got 12. 12 is greater than 9, so subtracted 9. 12 minus 3 is 9. (I hit enter too soon on the las)","3. Added 8 plus 4. Got 12. 12 is greater than 9, so subtracted 9. 12 minus 3 is 9. (I hit enter too soon on the last)","3. Added 8 plus 4. Got 12. 12 is greater than 9, so subtracted 9. 12 minus 3 is 9. (I hit enter too soon on the last )","3. Added 8 plus 4. Got  12. 12 i s greater than 9, so subtracted 9. 12 minus 3 is 9. (I hit enter too soon on the last q)","3. Added 8 plus 4. Got 12. 12 is greater than 9, so subtracted 9. 12 minus 3 is 9. (I hit enter too soon on the last q;)","3. Added 8 plus 4. Got 12. 12 is greater than 9, so subtracted 9. 12 minus 3 is 9. (I hit enter too soon on the last q)","3. Added 8 plus 4. Got 12. 12 is greater than 9, so subtracted 9. 12 minus 3 is 9. (I hit enter too soon on the last qu)","3. Added 8 plus 4. Got 12. 12 is greater than 9, so subtracted 9. 12 minus 3 is 9. (I hit enter too soon on the last que)","3. Added 8 plus 4. Got 12. 12 is greater than 9, so subtracted 9. 12 minus 3 is 9. (I hit enter too soon on the last quest)","3. Added 8 plus 4. Got 12. 12 is greater than 9, so subtracted 9. 12 minus 3 is 9. (I hit enter too soon on the last questi)","3. Added 8 plus 4. Got 12. 12 is greater than 9, so subtracted 9. 12 minus 3 is 9. (I hit enter too soon on the last questio)","3. Added 8 plus 4. Got 12 . 12 is  greater than 9, so subtracted 9. 12 minus 3 is 9. (I hit enter too soon on the last question)","3. Added 8 plus 4. Got 12. 12 is greater than 9, so subtracted 9. 12 minus 3 is 9. (I hit enter too soon on the last question )","3. Added 8 plus 4. Got 12. 12 is greater than 9, so subtracted 9. 12 minus 3 is 9. (I hit enter too soon on the last question an)","3. Added 8 plus 4. Got 12. 12 is greater than 9, so subtracted 9. 12 minus 3 is 9. (I hit enter too soon on the last question and)","3. Added 8 plus 4. Got 12. 12 is greater than 9, so subtracted 9. 12 minus 3 is 9. (I hit enter too soon on the last question and )","3. Added 8 plus 4. Got 12. 12 is greater than 9, so subtracted 9. 12 minus 3 is 9. (I hit enter too soon on the last question and di)","3. Added 8 plus 4. Got 12. 12 is greater than 9, so subtracted 9. 12 minus 3 is 9. (I hit enter too soon on the last question and did)","3. Added 8 plus 4. Got 12. 12 is greater than 9, so subtracted 9. 12 minus 3 is 9. (I hit e nter too  soon on the last question and didn')","3. Added 8 plus 4. Got 12. 12 is greater than 9, so subtracted 9. 12 minus 3 is 9. (I hit enter too soon on the last question and didn't)","3. Added 8 plus 4. Got 12. 12 is greater than 9, so subtracted 9. 12 minus 3 is 9. (I hit enter too soon on the last question and didn't )","3. Added 8 plus 4. Got 12. 12 is greater than 9, so subtracted 9. 12 minus 3 is 9. (I hit enter too soon on the last question and didn't p)","3. Added 8 plus 4. Got 12. 12 is greater than 9, so subtracted 9. 12 minus 3 is 9. (I hit enter too soon on the last question and didn't pu)","3. Added 8 plus 4. Got 12. 12 is greater than 9, so subtracted 9. 12 minus 3 is 9. (I hit enter too soon on the last question and didn't put)","3. Added 8 plus 4. Got 12. 12 is greater than 9, so subtracted 9. 12 minus 3 is 9. (I hit enter too soon on the last question and didn't put )","3. Added 8 plus 4. Got 12. 12 is greater than 9, so subtracted 9. 12 minus 3 is 9. (I hit ente r too so on on the last question and didn't put an)","3. Added 8 plus 4. Got 12. 12 is greater than 9, so subtracted 9. 12 minus 3 is 9. (I hit enter too soon on the last question and didn't put an )","3. Added 8 plus 4. Got 12. 12 is greater than 9, so subtracted 9. 12 minus 3 is 9. (I hit enter too soon on the last question and didn't put an a)","3. Added 8 plus 4. Got 12. 12 is greater than 9, so subtracted 9. 12 minus 3 is 9. (I hit enter too soon on the last question and didn't put an an)","3. Added 8 plus 4. Got 12. 12 is greater than 9, so subtracted 9. 12 minus 3 is 9. (I hit enter too soon on the last question and didn't put an ans)","3. Added 8 plus 4. Got 12. 12 is greater than 9, so subtracted 9. 12 minus 3 is 9. (I hit enter too soon on the last question a)","3. Added 8 plus 4. Got 12. 12 is greater than 9, so subtracted 9. 12 minus 3 is 9. (I hit enter too soon on the last question )","3. Added 8 plus 4. Got 12. 12 is greater than 9, so subtracted 9. 12 minus 3 is 9. (I  hit ent er too soon on the last question)","3. Added 8 plus 4. Got 12. 12 is greater than 9, so subtracted 9. 12 minus 3 is 9. (I hit enter too soon on the last question )","3. Added 8 plus 4. Got 12. 12 is greater than 9, so subtracted 9. 12 minus 3 is 9. (I hit enter too soon on the last question b)","3. Added 8 plus 4. Got 12. 12 is greater than 9, so subtracted 9. 12 minus 3 is 9. (I hit enter too soon on the last question be)","3. Added 8 plus 4. Got 12. 12 is greater than 9, so subtracted 9. 12 minus 3 is 9. (I hit enter too soon on the last question bef)","3. Added 8 plus 4. Got 12. 12 is greater than 9, so subtracted 9. 12 minus 3 is 9. (I hit enter too soon on the last question befo)","3. Added 8 plus 4. Got 12. 12 is greater than 9, so subtracted 9. 12 minus 3 is 9. (I hit enter too soon on the last question before)","3. Added 8 plus 4. Got 12. 12 is greater than 9, so subtracted 9. 12 minus 3 is 9. (I hit enter too soon on the last question before )","3. Added 8 plus 4. G ot 12. 1 2 is greater than 9, so subtracted 9. 12 minus 3 is 9. (I hit enter too soon on the last question before)","3. Added 8 plus 4. Got 12. 12 is greater than 9, so subtracted 9. 12 minus 3 is 9. (I hit enter too soon on the last question befor)","3. Added 8 plus 4. Got 12. 12 is greater than 9, so subtracted 9. 12 minus 3 is 9. (I hit enter too soon on the last question befo)","3. Added 8 plus 4. Got 12. 12 is greater than 9, so subtracted 9. 12 minus 3 is 9. (I hit enter too soon on the last question bef)","3. Added 8 plus 4. Got 12. 12 is greater than 9, so subtracted 9. 12 minus 3 is 9. (I hit enter too soon on the last question be)","3. Added 8 plus 4. Got 12. 12 is greater than 9, so subtracted 9. 12 minus 3 is 9. (I hit enter too soon on the last question b)","3. Added 8 plus 4. Got 12. 12 is greater than 9, so subtracted 9. 12 minus 3 is 9. (I hit enter too soon on the last question )","3. Added 8 plus 4. Got 12. 12 is greater than 9, so subtracted 9. 12 minus 3 is 9. (I  hit ente r too soon on the last question a)","3. Added 8 plus 4. Got 12. 12 is greater than 9, so subtracted 9. 12 minus 3 is 9. (I hit enter too soon on the last question and)","3. Added 8 plus 4. Got 12. 12 is greater than 9, so subtracted 9. 12 minus 3 is 9. (I hit enter too soon on the last question and )","3. Added 8 plus 4. Got 12. 12 is greater than 9, so subtracted 9. 12 minus 3 is 9. (I hit enter too soon on the last question and f)","3. Added 8 plus 4. Got 12. 12 is greater than 9, so subtracted 9. 12 minus 3 is 9. (I hit enter too soon on the last question and fo)","3. Added 8 plus 4. Got 12. 12 is greater than 9, so subtracted 9. 12 minus 3 is 9. (I hit enter too soon on the last question and for)","3. Added 8 plus 4. Got 12. 12 is greater than 9, so subtracted 9. 12 minus 3 is 9. (I hit enter too soon on the last question and forwa)","3. Added 8 plus 4. Got 12. 12 is greater than 9, so subtracted 9. 12 minus 3 is 9. (I hit enter too soon on the last question and forwar)","3. Add ed 8 plus 4. Got 12. 12 is greater than 9, so subtracted 9. 12 minus 3 is 9. (I hit enter too soon on the last question and forward)","3. Added 8 plus 4. Got 12. 12 is greater than 9, so subtracted 9. 12 minus 3 is 9. (I hit enter too soon on the last question and forward )","3. Added 8 plus 4. Got 12. 12 is greater than 9, so subtracted 9. 12 minus 3 is 9. (I hit enter too soon on the last question and forward)","3. Added 8 plus 4. Got 12. 12 is greater than 9, so subtracted 9. 12 minus 3 is 9. (I hit enter too soon on the last question and forwarde)","3. Added 8 plus 4. Got 12. 12 is greater than 9, so subtracted 9. 12 minus 3 is 9. (I hit enter too soon on the last question and forwarded )","3. Added 8 plus 4. Got 12. 12 is greater than 9, so subtracted 9. 12 minus 3 is 9. (I hit enter too soon on the last question and forwarded b)","3. Added 8 plus 4. Got 12. 12 is greater than 9, so subtracted 9. 12 minus 3 is 9. (I hit enter too soon on the last question and forwarded  be)","3.  Added 8 plus 4. Got 12. 12 is greater than 9, so subtracted 9. 12 minus 3 is 9. (I hit enter too soon on the last question and forwarded befo)","3. Added 8 plus 4. Got 12. 12 is greater than 9, so subtracted 9. 12 minus 3 is 9. (I hit enter too soon on the last question and forwarded before)","3. Added 8 plus 4. Got 12. 12 is greater than 9, so subtracted 9. 12 minus 3 is 9. (I hit enter too soon on the last question and forwarded before )","3. Added 8 plus 4. Got 12. 12 is greater than 9, so subtracted 9. 12 minus 3 is 9. (I hit enter too soon on the last question and forwarded before I)","3. Added 8 plus 4. Got 12. 12 is greater than 9, so subtracted 9. 12 minus 3 is 9. (I hit enter too soon on the last question and forwarded before I )","3. Added 8 plus 4. Got 12. 12 is greater than 9, so subtracted 9. 12 minus 3 is 9. (I hit enter too soon on the last question and forwarded before I w)","3. Added 8 plus 4. Got 12. 12 is greater than 9, so subtracted 9. 12 minus 3 is 9.  (I hit e nter too soon on the last question and forwarded before I )","3. Added 8 plus 4. Got 12. 12 is greater than 9, so subtracted 9. 12 minus 3 is 9. (I hit enter too soon on the last question and forwarded before I e)","3. Added 8 plus 4. Got 12. 12 is greater than 9, so subtracted 9. 12 minus 3 is 9. (I hit enter too soon on the last question and forwarded before I exp)","3. Added 8 plus 4. Got 12. 12 is greater than 9, so subtracted 9. 12 minus 3 is 9. (I hit enter too soon on the last question and forwarded before I expl)","3. Added 8 plus 4. Got 12. 12 is greater than 9, so subtracted 9. 12 minus 3 is 9. (I hit enter too soon on the last question and forwarded before I explai)","3. Added 8 plus 4. Got 12. 12 is greater than 9, so subtracted 9. 12 minus 3 is 9. (I hit enter too soon on the last question and forwarded before I explaine)","3. Added 8 plus 4. Got 12. 12 is greater than 9, so subtracted 9. 12 minus 3 is 9. (I hit enter too soon on the last question and forwarded  before I  explained )","3. Added 8 plus 4. Got 12. 12 is greater than 9, so subtracted 9. 12 minus 3 is 9. (I hit enter too soon on the last question and forwarded before I explained th)","3. Added 8 plus 4. Got 12. 12 is greater than 9, so subtracted 9. 12 minus 3 is 9. (I hit enter too soon on the last question and forwarded before I explained the )","3. Added 8 plus 4. Got 12. 12 is greater than 9, so subtracted 9. 12 minus 3 is 9. (I hit enter too soon on the last question and forwarded before I explained the a)","3. Added 8 plus 4. Got 12. 12 is greater than 9, so subtracted 9. 12 minus 3 is 9. (I hit enter too soon on the last question and forwarded before I explained the an)","3. Added 8 plus 4. Got 12. 12 is greater than 9, so subtracted 9. 12 minus 3 is 9. (I hit enter too soon on the last question and forwarded before I explained the ans)","3. Added 8 plus 4. Got 12. 12 is greater than 9, so subtracted 9. 12 minus 3 is 9. (I hit enter too soon on the last question and forwa rded bef ore I explained the answe)","3. Added 8 plus 4. Got 12. 12 is greater than 9, so subtracted 9. 12 minus 3 is 9. (I hit enter too soon on the last question and forwarded before I explained the answer)","3. Added 8 plus 4. Got 12. 12 is greater than 9, so subtracted 9. 12 minus 3 is 9. (I hit enter too soon on the last question and forwarded before I explained the answer,)","3. Added 8 plus 4. Got 12. 12 is greater than 9, so subtracted 9. 12 minus 3 is 9. (I hit enter too soon on the last question and forwarded before I explained the answer, )","3. Added 8 plus 4. Got 12. 12 is greater than 9, so subtracted 9. 12 minus 3 is 9. (I hit enter too soon on the last question and forwarded before I explained the answer, bu)","3. Added 8 plus 4. Got 12. 12 is greater than 9, so subtracted 9. 12 minus 3 is 9. (I hit enter too soon on the last question and forwarded before I explained the answer, but )","3. Added 8 plus 4. Got 12. 12 is greater than 9, so subtracted 9. 12 minus 3 is 9.  (I hit  enter too soon on the last question and forwarded before I explained the answer, but i)","3. Added 8 plus 4. Got 12. 12 is greater than 9, so subtracted 9. 12 minus 3 is 9. (I hit enter too soon on the last question and forwarded before I explained the answer, but )","3. Added 8 plus 4. Got 12. 12 is greater than 9, so subtracted 9. 12 minus 3 is 9. (I hit enter too soon on the last question and forwarded before I explained the answer, but I)","3. Added 8 plus 4. Got 12. 12 is greater than 9, so subtracted 9. 12 minus 3 is 9. (I hit enter too soon on the last question and forwarded before I explained the answer, but I )","3. Added 8 plus 4. Got 12. 12 is greater than 9, so subtracted 9. 12 minus 3 is 9. (I hit enter too soon on the last question and forwarded before I explained the answer, but I u)","3. Added 8 plus 4. Got 12. 12 is greater than 9, so subtracted 9. 12 minus 3 is 9. (I hit enter too soon on the last question and forwarded before I explained the answer, but I  use)","3 . Added 8 plus 4. Got 12. 12 is greater than 9, so subtracted 9. 12 minus 3 is 9. (I hit enter too soon on the last question and forwarded before I explained the answer, but I used )","3. Added 8 plus 4. Got 12. 12 is greater than 9, so subtracted 9. 12 minus 3 is 9. (I hit enter too soon on the last question and forwarded before I explained the answer, but I used th)","3. Added 8 plus 4. Got 12. 12 is greater than 9, so subtracted 9. 12 minus 3 is 9. (I hit enter too soon on the last question and forwarded before I explained the answer, but I used the )","3. Added 8 plus 4. Got 12. 12 is greater than 9, so subtracted 9. 12 minus 3 is 9. (I hit enter too soon on the last question and forwarded before I explained the answer, but I used the m)","3. Added 8 plus 4. Got 12. 12 is greater than 9, so subtracted 9. 12 minus 3 is 9. (I hit enter too soon on the last question and forwarded before I explained the answer, but I used the ma)","3. Added 8 plus 4. Got 12. 12 is greater th an 9, so  subtracted 9. 12 minus 3 is 9. (I hit enter too soon on the last question and forwarded before I explained the answer, but I used the mat)","3. Added 8 plus 4. Got 12. 12 is greater than 9, so subtracted 9. 12 minus 3 is 9. (I hit enter too soon on the last question and forwarded before I explained the answer, but I used the math)","3. Added 8 plus 4. Got 12. 12 is greater than 9, so subtracted 9. 12 minus 3 is 9. (I hit enter too soon on the last question and forwarded before I explained the answer, but I used the math )","3. Added 8 plus 4. Got 12. 12 is greater than 9, so subtracted 9. 12 minus 3 is 9. (I hit enter too soon on the last question and forwarded before I explained the answer, but I used the math m)","3. Added 8 plus 4. Got 12. 12 is greater than 9, so subtracted 9. 12 minus 3 is 9. (I hit enter too soon on the last question and forwarded before I explained the answer, but I used the math me)","3. Added 8 plus 4. Got 12. 12 is greater than 9, so subtracted 9.  12 minu s 3 is 9. (I hit enter too soon on the last question and forwarded before I explained the answer, but I used the math meth)","3. Added 8 plus 4. Got 12. 12 is greater than 9, so subtracted 9. 12 minus 3 is 9. (I hit enter too soon on the last question and forwarded before I explained the answer, but I used the math metho)","3. Added 8 plus 4. Got 12. 12 is greater than 9, so subtracted 9. 12 minus 3 is 9. (I hit enter too soon on the last question and forwarded before I explained the answer, but I used the math method)","3. Added 8 plus 4. Got 12. 12 is greater than 9, so subtracted 9. 12 minus 3 is 9. (I hit enter too soon on the last question and forwarded before I explained the answer, but I used the math method )","3. Added 8 plus 4. Got 12. 12 is greater than 9, so subtracted 9. 12 minus 3 is 9. (I hit enter too soon on the last question and forwarded before I explained the answer, but I used the math method a)","3. Added 8 plus 4. Got 12. 12 is greater than 9, so subtr acted 9.  12 minus 3 is 9. (I hit enter too soon on the last question and forwarded before I explained the answer, but I used the math method an)","3. Added 8 plus 4. Got 12. 12 is greater than 9, so subtracted 9. 12 minus 3 is 9. (I hit enter too soon on the last question and forwarded before I explained the answer, but I used the math method and )","3. Added 8 plus 4. Got 12. 12 is greater than 9, so subtracted 9. 12 minus 3 is 9. (I hit enter too soon on the last question and forwarded before I explained the answer, but I used the math method and w)","3. Added 8 plus 4. Got 12. 12 is greater than 9, so subtracted 9. 12 minus 3 is 9. (I hit enter too soon on the last question and forwarded before I explained the answer, but I used the math method and )","3. Added 8 plus 4. Got 12. 12 is greater than 9, so subtracted 9. 12 minus 3 is 9. (I hit enter too soon on the last question and forwarded before I explained the answer, but I used the math method and)","3. Added 8 plus 4. Got 12.  12 is g reater than 9, so subtracted 9. 12 minus 3 is 9. (I hit enter too soon on the last question and forwarded before I explained the answer, but I used the math method an)","3. Added 8 plus 4. Got 12. 12 is greater than 9, so subtracted 9. 12 minus 3 is 9. (I hit enter too soon on the last question and forwarded before I explained the answer, but I used the math method a)","3. Added 8 plus 4. Got 12. 12 is greater than 9, so subtracted 9. 12 minus 3 is 9. (I hit enter too soon on the last question and forwarded before I explained the answer, but I used the math method as)","3. Added 8 plus 4. Got 12. 12 is greater than 9, so subtracted 9. 12 minus 3 is 9. (I hit enter too soon on the last question and forwarded before I explained the answer, but I used the math method as )","3. Added 8 plus 4. Got 12. 12 is greater than 9, so subtracted 9. 12 minus 3 is 9. (I hit enter too soon on the last question and forwarded before I explained the answer, but I used the math method as we)"," 3. Added  8 plus 4. Got 12. 12 is greater than 9, so subtracted 9. 12 minus 3 is 9. (I hit enter too soon on the last question and forwarded before I explained the answer, but I used the math method as wel)","3. Added 8 plus 4. Got 12. 12 is greater than 9, so subtracted 9. 12 minus 3 is 9. (I hit enter too soon on the last question and forwarded before I explained the answer, but I used the math method as well)","3. Added 8 plus 4. Got 12. 12 is greater than 9, so subtracted 9. 12 minus 3 is 9. (I hit enter too soon on the last question and forwarded before I explained the answer, but I used the math method as well )","3. Added 8 plus 4. Got 12. 12 is greater than 9, so subtracted 9. 12 minus 3 is 9. (I hit enter too soon on the last question and forwarded before I explained the answer, but I used the math method as well a)","3. Added 8 plus 4. Got 12. 12 is greater than 9, so subtracted 9. 12 minus 3 is 9. (I hit enter too soon on the last question and forwarded before I explained  the answ er, but I used the math method as well an)","3. Added 8 plus 4. Got 12. 12 is greater than 9, so subtracted 9. 12 minus 3 is 9. (I hit enter too soon on the last question and forwarded before I explained the answer, but I used the math method as well and )","3. Added 8 plus 4. Got 12. 12 is greater than 9, so subtracted 9. 12 minus 3 is 9. (I hit enter too soon on the last question and forwarded before I explained the answer, but I used the math method as well and a)","3. Added 8 plus 4. Got 12. 12 is greater than 9, so subtracted 9. 12 minus 3 is 9. (I hit enter too soon on the last question and forwarded before I explained the answer, but I used the math method as well and ad)","3. Added 8 plus 4. Got 12. 12 is greater than 9, so subtracted 9. 12 minus 3 is 9. (I hit enter too soon on the last question and forwarded before I explained the answer, but I used the math method as well and add)","3. Added 8 plus 4. Got 12. 12 is greater than 9, so subtracted 9. 12 minus 3 is 9.  (I hit  enter too soon on the last question and forwarded before I explained the answer, but I used the math method as well and adde)","3. Added 8 plus 4. Got 12. 12 is greater than 9, so subtracted 9. 12 minus 3 is 9. (I hit enter too soon on the last question and forwarded before I explained the answer, but I used the math method as well and added )","3. Added 8 plus 4. Got 12. 12 is greater than 9, so subtracted 9. 12 minus 3 is 9. (I hit enter too soon on the last question and forwarded before I explained the answer, but I used the math method as well and added t)","3. Added 8 plus 4. Got 12. 12 is greater than 9, so subtracted 9. 12 minus 3 is 9. (I hit enter too soon on the last question and forwarded before I explained the answer, but I used the math method as well and added th)","3. Added 8 plus 4. Got 12. 12 is greater than 9, so subtracted 9. 12 minus 3 is 9. (I hit enter too soon on the last question and forwarded before I explained the answer, but I used the math method  as well  and added the )","3. Added 8 plus 4. Got 12. 12 is greater than 9, so subtracted 9. 12 minus 3 is 9. (I hit enter too soon on the last question and forwarded before I explained the answer, but I used the math method as well and added the t)","3. Added 8 plus 4. Got 12. 12 is greater than 9, so subtracted 9. 12 minus 3 is 9. (I hit enter too soon on the last question and forwarded before I explained the answer, but I used the math method as well and added the to)","3. Added 8 plus 4. Got 12. 12 is greater than 9, so subtracted 9. 12 minus 3 is 9. (I hit enter too soon on the last question and forwarded before I explained the answer, but I used the math method as well and added the t)","3. Added 8 plus 4. Got 12. 12 is greater than 9, so subtracted 9. 12 minus 3 is 9. (I hit enter too soon on the last question and forwarded before I explained the answer, but I used the math method as well and added the tw)","3. Added 8 plus 4. Got 12. 12 is greater than 9, so subtracted 9. 12  minus 3  is 9. (I hit enter too soon on the last question and forwarded before I explained the answer, but I used the math method as well and added the two)","3. Added 8 plus 4. Got 12. 12 is greater than 9, so subtracted 9. 12 minus 3 is 9. (I hit enter too soon on the last question and forwarded before I explained the answer, but I used the math method as well and added the two )","3. Added 8 plus 4. Got 12. 12 is greater than 9, so subtracted 9. 12 minus 3 is 9. (I hit enter too soon on the last question and forwarded before I explained the answer, but I used the math method as well and added the two n)","3. Added 8 plus 4. Got 12. 12 is greater than 9, so subtracted 9. 12 minus 3 is 9. (I hit enter too soon on the last question and forwarded before I explained the answer, but I used the math method as well and added the two nu)","3. Added 8 plus 4. Got 12. 12 is greater than 9, so subtracted 9. 12 minus 3 is 9. (I hit enter too soon on the last question and forwarded before I exp lained t he answer, but I used the math method as well and added the two num)","3. Added 8 plus 4. Got 12. 12 is greater than 9, so subtracted 9. 12 minus 3 is 9. (I hit enter too soon on the last question and forwarded before I explained the answer, but I used the math method as well and added the two numb)","3. Added 8 plus 4. Got 12. 12 is greater than 9, so subtracted 9. 12 minus 3 is 9. (I hit enter too soon on the last question and forwarded before I explained the answer, but I used the math method as well and added the two number)","3. Added 8 plus 4. Got 12. 12 is greater than 9, so subtracted 9. 12 minus 3 is 9. (I hit enter too soon on the last question and forwarded before I explained the answer, but I used the math method as well and added the two numbers )","3. Added 8 plus 4. Got 12. 12 is greater than 9, so subtracted 9. 12 minus 3 is 9. (I hit enter too soon on the last question and forwarded before I explained the answer, but I used the math method as well and added  the two  numbers t)","3. Added 8 plus 4. Got 12. 12 is greater than 9, so subtracted 9. 12 minus 3 is 9. (I hit enter too soon on the last question and forwarded before I explained the answer, but I used the math method as well and added the two numbers to)","3. Added 8 plus 4. Got 12. 12 is greater than 9, so subtracted 9. 12 minus 3 is 9. (I hit enter too soon on the last question and forwarded before I explained the answer, but I used the math method as well and added the two numbers tog)","3. Added 8 plus 4. Got 12. 12 is greater than 9, so subtracted 9. 12 minus 3 is 9. (I hit enter too soon on the last question and forwarded before I explained the answer, but I used the math method as well and added the two numbers toget)","3. Added 8 plus 4. Got 12. 12 is greater than 9, so subtracted 9. 12 minus 3 is 9. (I hit enter too soon on the last question and forwarded before I explained the answer, but I used the math method as well and added the two numbers togeth)","3. Added 8 plus  4. Got 1 2. 12 is greater than 9, so subtracted 9. 12 minus 3 is 9. (I hit enter too soon on the last question and forwarded before I explained the answer, but I used the math method as well and added the two numbers together)."],"rt":124115,"trial_type":"polygon-arrow-question","trial_index":0,"trial_index_global":54,"time_elapsed":846685,"internal_chunk_id":"0-0.12-0"},{"nsides":9,"question":"What is the identity under <img src=./images/nonagon_symbol.png style=width:14px;height:14px>? Please explain in words how you got your answer.","response_type":"free","response_choices":[],"correct_response":"0","response":"0 because it gives you the same number back when it is in the operation. ","orientation_history":[[0]],"response_history":["0 because it gives you the same numbr ","0 because it gives you the same numbr","0 because it gives you the same number back a","0 because it gives you the same number back when it is in the operationa","0 because it gives you the same number  back whe n it is in the operation. "],"rt":71022,"trial_type":"polygon-arrow-question","trial_index":0,"trial_index_global":55,"time_elapsed":917708,"internal_chunk_id":"0-0.12-0"},{"nsides":9,"question":"What is the inverse of 5 under <img src=./images/nonagon_symbol.png style=width:14px;height:14px>?","response_type":"free","response_choices":[],"correct_response":"4","response":"4","orientation_history":[[0],[3.474412866516542,3.474412866516542,3.474412866516542,3.474412866516542,3.474412866516542,3.474412866516542,3.474412866516542,3.474412866516542,3.490658503988659]],"response_history":["4"],"rt":22803,"trial_type":"polygon-arrow-question","trial_index":0,"trial_index_global":56,"time_elapsed":940511,"internal_chunk_id":"0-0.12-0"},{"nsides":9,"question":"What is the inverse of 2 under <img src=./images/nonagon_symbol.png style=width:14px;height:14px>?","response_type":"free","response_choices":[],"correct_response":"7","response":"7","orientation_history":[[0]],"response_history":["7"],"rt":3965,"trial_type":"polygon-arrow-question","trial_index":0,"trial_index_global":57,"time_elapsed":944477,"internal_chunk_id":"0-0.12-0"},{"nsides":9,"question":"What is the inverse of 0 under <img src=./images/nonagon_symbol.png style=width:14px;height:14px>?","response_type":"free","response_choices":[],"correct_response":"0","response":"0","orientation_history":[[0]],"response_history":["0"],"rt":3692,"trial_type":"polygon-arrow-question","trial_index":0,"trial_index_global":58,"time_elapsed":948170,"internal_chunk_id":"0-0.12-0"},{"nsides":9,"question":"What is the inverse of 3 under <img src=./images/nonagon_symbol.png style=width:14px;height:14px>? Please explain in words how you got your answer.","response_type":"free","response_choices":[],"correct_response":"","response":"6. 6+3=9. Since it is 9, subtract 9. Get 0, which is the identity number.","orientation_history":[[0]],"response_history":["6. S","6. 6+3=9. 9-9","6. 6+3=9. 9- ","6. 6+ 3=9. 9","6. 6+3=9. 9","6. 6+3=9. Since it is n","6. 6+3=9. Since it is 9, subtract 9 ","6. 6+3=9. Since it is 9, subtract 9. Get 0 ","6. 6+3=9. Since it is 9, subtract 9. Get 0, which is the identity number."],"rt":38276,"trial_type":"polygon-arrow-question","trial_index":0,"trial_index_global":59,"time_elapsed":986447,"internal_chunk_id":"0-0.12-0"},{"nsides":9,"question":"Is 2 a generator under <img src=./images/nonagon_symbol.png style=width:14px;height:14px>? Please explain in words how you got your answer.","response_type":"free","response_choices":[],"correct_response":"","response":"No, there is no way to make zero just using twos.","orientation_history":[[0]],"response_history":["No, the ","No, there is no way to make z","No, there is no way to make zo","No, there is no way to make zero just using tw","No, there is no way to make zero just using t","No, there is no way to make zero just using 2","No, there is no way to make zero just using T","No, there is no  way to  make zero just using twos."],"rt":192262,"trial_type":"polygon-arrow-question","trial_index":0,"trial_index_global":60,"time_elapsed":1178710,"internal_chunk_id":"0-0.12-0"},{"nsides":9,"question":"Is 3 a generator under <img src=./images/nonagon_symbol.png style=width:14px;height:14px>? Please explain in words how you got your answer.","response_type":"free","response_choices":[],"correct_response":"","response":"No. You can't make 1, 2, 4, 5, or 8 using just 3s. ","orientation_history":[[0]],"response_history":["No. You can't make 1, 2, 4, 5, or 8 j","No. You can't make 1, 2, 4, 5, or 8 using just 3s. "],"rt":200191,"trial_type":"polygon-arrow-question","trial_index":0,"trial_index_global":61,"time_elapsed":1378902,"internal_chunk_id":"0-0.12-0"},{"nsides":9,"question":"Is 5 a generator under <img src=./images/nonagon_symbol.png style=width:14px;height:14px>? Please explain in words how you got your answer.","response_type":"free","response_choices":[],"correct_response":"","response":"No, you can only make 1 and 6 out of 5s. You can't make the other numbers.","orientation_history":[[0]],"response_history":["No, you can only mk","No, you can only make n","No, you can only make 1 and 6 out of 5s. You can't make the other numbers."],"rt":61499,"trial_type":"polygon-arrow-question","trial_index":0,"trial_index_global":62,"time_elapsed":1440402,"internal_chunk_id":"0-0.12-0"},{"nsides":9,"question":"Is 6 a generator under <img src=./images/nonagon_symbol.png style=width:14px;height:14px>? Please explain in words how you got your answer.","response_type":"free","response_choices":[],"correct_response":"","response":"No, you can only generate 3 and 9 from sixes.","orientation_history":[[0]],"response_history":["no ","no","n","No, you can you","No, you can yo","No, you can y","No, you can only generate 3 and 9 from si","No, you can only generate 3 and 9 from s","No, you can only generate 3 and 9 from ","No, you can only generate 3 an d 9 from 7","No, you can only generate 3 and 9 from sixes."],"rt":79967,"trial_type":"polygon-arrow-question","trial_index":0,"trial_index_global":63,"time_elapsed":1520370,"internal_chunk_id":"0-0.12-0"},{"nsides":"n","instructions":"Now we'd like to ask you some questions about <img src=./images/ngon_symbol.png style=width:14px;height:14px>, where n could be any postive counting number. For example, n could be 3, and the polygon a triangle, or n could be any other counting number you can think of, in which case the corresponding polygon would have n sides. Just as before, you can use either the polygon or arithmetic methods. If you need to write the operation, you can use (n), and your answers can include n to stand in for the arbitrary value if necessary. (You can use the polygon at the right to think, but it doesn't necessarily correspond to the real polygon, which is why we've left most of it dashed.)","orientation_history":[0],"rt":39172,"trial_type":"polygon-arrow- instruct ions","trial_index":0,"trial_index_global":64,"time_elapsed":1559542,"internal_chunk_id":"0-0"},{"nsides":"n","question":"What is the formula for the inverse of 1 under <img src=./images/ngon_symbol.png style=width:14px;height:14px>?","response_type":"free","response_choices":[],"correct_response":"n-1","response":"Inverse of 1 is n-1","orientation_history":[[0]],"response_history":["n-","n","Inverse of 1 is n-","Inverse of 1 is n","Inverse of 1 is ","Inverse of 1 is","Inverse of 1 i","Inverse of 1 = ","Inverse of 1 =","Inverse of 1 ","Inverse of 1 is n-1"],"rt":211373,"trial_type":"polygon-arrow-question","trial_index":0,"trial_index_global":65,"time_elapsed":1770915,"internal_chunk_id":"0-0.14-0"},{"nsides":"n","question":"What is the formula for the inverse of an element x under <img src=./images/ngon_symbol.png style=width:14px;height:14px>? Please explain in words how you got your answer.","response_type":"free","response_choices":[],"correct_response":" n-x","response":"inverse of x = n - x because whatever equals n is how you get the identity. So if n were 3, x would be 1 and the inverse would be 3-1, or 2. 2+1 would equal 3. Since 3 is equal to 3, which is n, subtract 3-3=0.","orientation_history":[[0]],"response_history":["inverse i","inverse of x = n - x.","inverse of x = n - x because what ","inverse of x = n - x because whatever equals n is what you're going to ","inverse of x = n - x because whatever equals n is what","inverse of x = n - x because whatever equals n is wha","inverse of x = n - x because whatever equals n is wh","inverse of x = n - x because whatever equals n is w","inverse of x = n - x because whatever equals n is ","inverse of x = n - x because whatever equals n is","inverse of x = n - x because whatever equals n is how you get the identity. So if n were 3, x would be one and","inverse of x = n - x because whatever equals n is how you get the identity. So if n were 3, x would be one an","inverse of x = n - x  because  whatever equals n is how you get the identity. So if n were 3, x would be one a","inverse of x = n - x because whatever equals n is how you get the identity. So if n were 3, x would be one ","inverse of x = n - x because whatever equals n is how you get the identity. So if n were 3, x would be one","inverse of x = n - x because whatever equals n is how you get the identity. So if n were 3, x would be on","inverse of x = n - x because whatever equals n is how you get the identity. So if n were 3, x would be o","inverse of x = n - x because whatever equals n is how you get the identity. So if n were 3, x would be 1 and the inverse would be 3-2 ","inverse of x = n - x because whatever equals n is how you get the identity. So if n were 3, x would be 1 and the inverse would be 3-2","inverse of x = n - x because whatever equals n is how you get the identity. So if n were 3, x would be 1 and the inverse would be 3-","inverse of x = n - x because whatever equals n is how you get th e identi ty. So if n were 3, x would be 1 and the inverse would be 31","inverse of x = n - x because whatever equals n is how you get the identity. So if n were 3, x would be 1 and the inverse would be 3-1, or 2. 2+1 would equi","inverse of x = n - x because whatever equals n is how you get the identity. So if n were 3, x would be 1 and the inverse would be 3-1, or 2. 2+1 would equal 3. sinc","inverse of x = n - x because whatever equals n is how you get the identity. So if n were 3, x would be 1 and the inverse would be 3-1, or 2. 2+1 would equal 3. sin","inverse of x = n - x because whatever equals n is how you get the identity. So if n were 3, x would be 1 and the inverse would be 3-1, or 2. 2+1 would equal 3. si","inverse of x = n - x because whatever equals n is how you get the identity. So if n were 3, x would be 1 and the inverse would be 3-1, or 2. 2+1 would equal 3. s","inverse of x = n - x because whatever equals n is how you get the identity. So if n were 3, x would be 1 a nd the i nverse would be 3-1, or 2. 2+1 would equal 3. Since 3 is equal to 3 ","inverse of x = n - x because whatever equals n is how you get the identity. So if n were 3, x would be 1 and the inverse would be 3-1, or 2. 2+1 would equal 3. Since 3 is equal to 3, whihc is","inverse of x = n - x because whatever equals n is how you get the identity. So if n were 3, x would be 1 and the inverse would be 3-1, or 2. 2+1 would equal 3. Since 3 is equal to 3, whihc i","inverse of x = n - x because whatever equals n is how you get the identity. So if n were 3, x would be 1 and the inverse would be 3-1, or 2. 2+1 would equal 3. Since 3 is equal to 3, whihc ","inverse of x = n - x because whatever equals n is how you get the identity. So if n were 3, x would be 1 and the inverse would be 3-1, or 2. 2+1 would equal 3. Since 3 is equal to 3, whihc","inverse of x = n - x because whatever equals n is how you get the identity. So if n were 3, x would be 1 and the inverse would be 3-1, or 2. 2+1 wou ld equal  3. Since 3 is equal to 3, whih","inverse of x = n - x because whatever equals n is how you get the identity. So if n were 3, x would be 1 and the inverse would be 3-1, or 2. 2+1 would equal 3. Since 3 is equal to 3, whi","inverse of x = n - x because whatever equals n is how you get the identity. So if n were 3, x would be 1 and the inverse would be 3-1, or 2. 2+1 would equal 3. Since 3 is equal to 3, whc","inverse of x = n - x because whatever equals n is how you get the identity. So if n were 3, x would be 1 and the inverse would be 3-1, or 2. 2+1 would equal 3. Since 3 is equal to 3, which is n, sube","inverse of x = n - x because whatever equals n is how you get the identity. So if n were 3, x would be 1 and the inverse would be 3-1, or 2. 2+1 would equal 3. Since 3 is equal to 3, which is n, subtract 3-3=0."],"rt":136707,"trial_type":"polygon-arrow-question","trial_index":0,"trial_index_global":66,"time_elapsed":1907623,"internal_chunk_id":"0-0.14-0"},{"nsides":"n","question":"Is there a pattern to which elements are generators? How can you know if an element x is a generator under <img src=./images/ngon_symbol.png style=width:14px;height:14px> without seeing whether it can make all the elements?.","response_type":"free","response_choices":[],"correct_response":"","response":"I'm sure there's a pattern, but I'm terrible at seeing it. 1 will always be a generator, but I haven't gotten the pattern for numbers beyond that yet.","orientation_history":[[0]],"response_history":["Ter","Te","There is a pattern, bt ","There is a pattern, bt","There is a pattern, bt","There is a pattern, but ","I'm sure there's a pattern, but I'm terrible at seeing it. 1 will always be a geneato","I'm sure there's a pattern, but I'm terrible at seeing it. 1 will always be a geneat","I'm sure there's a pattern, but I'm terrible at seeing it. 1 will always be a genea","I'm sure there's a pattern, but I'm terrible at seeing it. 1 will always be a generator. ","I'm sur e there' s a pattern, but I'm terrible at seeing it. 1 will always be a generator.","I'm sure there's a pattern, but I'm terrible at seeing it. 1 will always be a generator, but I haven't gotten the","I'm sure there's a pattern, but I'm terrible at seeing it. 1 will always be a generator, but I haven't gotten ","I'm sure there's a pattern, but I'm terrible at seeing it. 1 will always be a generator, but I haven't gotten the b","I'm sure there's a pattern, but I'm terrible at seeing it. 1 will always be a generator, but I haven't gotten the pattern yet.","I'm sure there's a pattern, but I'm terrible at seeing it. 1 will always be a generator, but I haven't gotten the pattern  fyet.","I'm sure there's a pattern, but I'm terrible at seeing it. 1 will always be a generator, but I haven't gotten the pattern  yet.","I'm sure there's a pattern, but I'm terrible at seeing it. 1 will always be a generator, but I haven't gotten the pattern yet.","I'm sure there's a pattern, but I'm terrible at  seeing  it. 1 will always be a generator, but I haven't gotten the pattern fyet.","I'm sure there's a pattern, but I'm terrible at seeing it. 1 will always be a generator, but I haven't gotten the pattern foryet.","I'm sure there's a pattern, but I'm terrible at seeing it. 1 will always be a generator, but I haven't gotten the pattern for yet.","I'm sure there's a pattern, but I'm terrible at seeing it. 1 will always be a generator, but I haven't gotten the pattern for nyet.","I'm sure there's a pattern, but I'm terrible at seeing it. 1 will always be a generator, but I haven't gotten the pattern for nuyet.","I'm sure there's a pattern, but I'm terrible at seeing it. 1 will always be a generator, but I haven't gotten the pattern for numbyet.","I'm sure there's a pattern, but I'm terrible at seeing it. 1 will always be a generator, but I haven't gotten the pattern for numberyet.","I'm sure there's a pattern, but I'm terrible at seeing it. 1 will always be a generator, but I haven't g otten th e pattern for numbers yet.","I'm sure there's a pattern, but I'm terrible at seeing it. 1 will always be a generator, but I haven't gotten the pattern for numbers byet.","I'm sure there's a pattern, but I'm terrible at seeing it. 1 will always be a generator, but I haven't gotten the pattern for numbers beyet.","I'm sure there's a pattern, but I'm terrible at seeing it. 1 will always be a generator, but I haven't gotten the pattern for numbers beyyet.","I'm sure there's a pattern, but I'm terrible at seeing it. 1 will always be a generator, but I haven't gotten the pattern for numbers beyoyet.","I'm sure there's a pattern, but I'm terrible at seeing it. 1 will always be a generator, but I haven't gotten the pattern for numbers beyondyet.","I'm sure there's a pattern, but I'm terrible at seeing it. 1 will always be a generator, but I haven't gotten the pattern for numbers beyond yet.","I'm sure there's a pattern, but I'm terrible at seeing it. 1 will always be a generator, bu t I have n't gotten the pattern for numbers beyond tyet.","I'm sure there's a pattern, but I'm terrible at seeing it. 1 will always be a generator, but I haven't gotten the pattern for numbers beyond thayet.","I'm sure there's a pattern, but I'm terrible at seeing it. 1 will always be a generator, but I haven't gotten the pattern for numbers beyond thatyet.","I'm sure there's a pattern, but I'm terrible at seeing it. 1 will always be a generator, but I haven't gotten the pattern for numbers beyond that yet."],"rt":112978,"trial_type":"polygon-arrow-question","trial_index":0,"trial_index_global":67,"time_elapsed":2020602,"internal_chunk_id":"0-0.14-0"},{"nsides":"n","question":"True or false: If x is an odd number, it must be a generator under <img src=./images/ngon_symbol.png style=width:14px;height:14px>.","response_type":"multi","response_choices":["True","False"],"correct_response":"False","response":"False","orientation_history":[[0]],"response_history":["False"],"rt":8145,"trial_type":"polygon-arrow-question","trial_index":0,"trial_index_global":68,"time_elapsed":2028748,"internal_chunk_id":"0-0.14-0"},{"nsides":"n","question":"True or false: If x is an even number, it must not be a generator under <img src=./images/ngon_symbol.png style=width:14px;height:14px>.","response_type":"multi","response_choices":["True","False"],"correct_response":"False","response":"False","orientation_history":[[0]],"response_history":["False"],"rt":4398,"trial_type":"polygon-arrow-question","trial_index":0,"trial_index_global":69,"time_elapsed":2033147,"internal_chunk_id":"0-0.14-0"},{"nsides":"n","question":"True or false: If x is not a generator under <img src=./images/ngon_symbol.png style=width:14px;height:14px>, x must be a divisor of n, that is, x must divide n evenly, with no remainder.","response_type":"multi","response_choices":["True","False"],"correct_response":"False","response":"False","orientation_history":[[0]],"response_history":["False","True","False"],"rt":45161,"trial_type":"polygon-arrow-question","trial_index":0,"trial_index_global":70,"time_elapsed":2078309,"internal_chunk_id":"0-0.14-0"},{"nsides":"n","question":"True or false: If x is not a generator under <img src=./images/ngon_symbol.png style=width:14px;height:14px>, x must be a multiple of a divisor of n. Please explain in words why your answer is correct.","response_type":"free","response_choices":[],"correct_response":"True","response":"True? I don't know.","orientation_history":[[0]],"response_history":["True, but I don'","True? I don't know."],"rt":167014,"trial_type":"polygon-arrow-question","trial_index":0,"trial_index_global":71,"time_elapsed":2245324,"internal_chunk_id":"0-0.14-0"},{"nsides":"n","question":"If an element x is a generator under <img src=./images/ngon_symbol.png style=width:14px;height:14px>, is its inverse a generator under <img src=./images/ngon_symbol.png style=width:14px;height:14px> always, sometimes,  or never ?","response_type":"multi","response_choices":["Always","Sometimes","Never"],"correct_response":"Always","response":"Sometimes","orientation_history":[[0]],"response_history":["Sometimes"],"rt":29219,"trial_type":"polygon-arrow-question","trial_index":0,"trial_index_global":72,"time_elapsed":2274544,"internal_chunk_id":"0-0.14-0"},{"nsides":"n","question":"if an element x is a generator under <img src=./images/ngon_symbol.png style=width:14px;height:14px>, is x <img src=./images/ngon_symbol.png style=width:14px;height:14px> x a generator under <img src=./images/ngon_symbol.png style=width:14px;height:14px> always, sometimes, or never? Please explain in words why your answer is correct.","response_type":"free","response_choices":[],"correct_response":"sometimes","response":"I don't know.","orientation_history":[[0]],"response_history":["I don't know. ","I d","I ","I","O","I don't know."],"rt":24398,"trial_type":"polygon-arrow-question","trial_index":0,"trial_index_global":73,"time_elapsed":2298942,"internal_chunk_id":"0-0.14-0"},{"nsides":"n","question":"If an element x is not a generator under <img src=./images/ngon_symbol.png style=width:14px;height:14px>, is x <img src=./images/ngon_symbol.png style=width:14px;height:14px> x a generator under <img src=./images/ngon_symbol.png style=width:14px;height:14px> always, sometimes, or never?","response_type":"multi","response_choices":["Always","Sometimes","Never"],"correct_response":"Never","response":"Sometimes","orientation_history":[[0]],"response_history":["Sometimes"],"rt":107494,"trial_type":"polygon-arrow-question","trial_index":0,"trial_index_global":74,"time_elapsed":2406437,"internal_chunk_id":"0-0.14-0"},{"instructions":"We would like to ask you some questions about your background. Please press Continue to continue.","rt":2141,"trial_type":"instructions","trial_index":0,"trial_index_global":75,"time_elapsed":2408580,"internal_chunk_id":"0-0.15- 0"},{"question":"What is your age?","response_type":"free","response_choices":[],"correct_response":"","response":"36","response_history":["36"],"rt":2968,"trial_type":"question","trial_index":0,"trial_index_global":76,"time_elapsed":2411549,"internal_chunk_id":"0-0.15-0"},{"question":"What is your level of education?","response_type":"multi","response_choices":["Did not graduate high school","High school diploma","Some college, no degree","Associates Degree","Bachelors Degree","Some graduate school, no degree","Masters Degree","Doctorate, M.D., etc."],"correct_response":"","response":"Bachelors Degree","response_history":["Bachelors Degree"],"rt":3210,"trial_type":"question","trial_index":0,"trial_index_global":77,"time_elapsed":2414759,"internal_chunk_id":"0-0.15-0"},{"question":"What is the most advanced math class you've completed? If you have multiple classes and you're not sure which one is most advanced, please list them.","response_type":"free","response_choices":[],"correct_response":"","response":"calculus","response_history":["calculua","calculus ","calculus"],"rt":13049,"trial_type":"question","trial_index":0,"trial_index_global":78,"time_elapsed":2427810,"internal_chunk_id":"0-0.15-0"},{"question":"How familiar are you with the concept of modular arithmetic?","response_type":"multi","response_choices":["1 - never heard of it","2 - heard of it but didn't know what it was","3 - seen it used or explained","4 - used it but not often or recently","5 - used it, remember and understand it"],"correct_response":"1","response":"1 - never heard of it","response_history":["2 - heard of it but didn't know what it was","1 - never heard of it"],"rt":10993,"trial_type":"question","trial_index":0,"trial_index_global":79,"time_elapsed":2438804,"internal_chunk_id":"0-0.15-0"},{"question":"How familiar are you with the concept of a mathematical group?","response_type":"multi","response_choices":["1 - never heard of it","2 - heard of it but didn't know what it was","3  - seen  it used or explained","4 - used it but not often or recently","5 - used it, remember and understand it"],"correct_response":"1","response":"2 - heard of it but didn't know what it was","response_history":["3 - seen it used or explained","2 - heard of it but didn't know what it was"],"rt":7448,"trial_type":"question","trial_index":0,"trial_index_global":80,"time_elapsed":2446253,"internal_chunk_id":"0-0.15-0"},{"question":"Do you feel you learned something from this HIT?","response_type":"multi","response_choices":["1 - not at all","2 - somewhat","3 - definitely"],"correct_response":"1","response":"2 - somewhat","response_history":["1 - not at all","2 - somewhat"],"rt":7246,"trial_type":"question","trial_index":0,"trial_index_global":81,"time_elapsed":2453499,"internal_chunk_id":"0-0.15-0"},{"question":"Do you feel you understood the concepts in this HIT?","response_type":"multi","response_choices":["1 - not at all","2 - somewhat","3 - definitely"],"correct_response":"1","response":" 2 - somewhat","response_history":["2 - somewhat"],"rt":2949,"trial_type":"question","trial_index":0,"trial_index_global":82,"time_elapsed":2456449,"internal_chunk_id":"0-0.15-0"},{"question":"Did you enjoy this HIT?","response_type":"multi","response_choices":["1 - not at all","2 - somewhat","3 - definitely"],"correct_response":"1","response":"2 - somewhat","response_history":["2 - somewhat"],"rt":3562,"trial_type":"question","trial_index":0,"trial_index_global":83,"time_elapsed":2460012,"internal_chunk_id":"0-0.15-0"},{"question":"What is your gender?","response_type":"multi","response_choices":["Female","Male","Other"],"correct_response":"","response":"Female","response_history":["Female"],"rt":2546,"trial_type":"question","trial_index":0,"trial_index_global":84,"time_elapsed":2462559,"internal_chunk_id":"0-0.15-0"},{"question":"What is/are your native language(s)? (The languages spoken in your household when you were a child.)","response_type":"free","response_choices":[],"correct_response":"","response":"English","response_history":["English"],"rt":6096,"trial_type":"question","trial_index":0,"trial_index_global":85,"time_elapsed":2468656,"internal_chunk_id":"0-0.15-0"},{"question":"Did you use pen and paper at any point on this HIT?","response_type":"free","response_choices":[],"correct_response":"","response":"No, but I used notepad on my computer. ","response_history":["NO","No.","No","N","I h","I used t","I used notepad on my computer wh","I used notepad on my computer w","I used notepad on my computer at ne ","I used notepad on my computer at ne","I used notepad on my computer at n","I used notepad on my computer at one point, so that ","I used notepad on my computer at one point, so that","I used notepad on my computer at one point, so tha","I used notepad on my computer at one point, so th","I used notepad on my computer at one point, so t","I used notepad on my computer at one point, so ","I used notepad on my computer. ","NI used notepad o n my com puter. ","NoI used notepad on my computer. ","No,I used notepad on my computer. ","No, I used notepad on my computer. ","No, ubI used notepad on my computer. ","No, uI used notepad on my computer. ","No, I used notepad on my computer. ","No, bI used notepad on my computer. ","No, buI used notepad on my computer. ","No, butI used notepad on my computer. ","No, but I used notepad on my computer. "],"rt":65952,"trial_type":"question","trial_index":0,"trial_index_global":86,"time_elapsed":2534609,"internal_chunk_id":"0-0.15-0"},{"question":"Do you have any comments on this HIT?","response_type":"free","response_choices":[],"correct_response":"","response":"","response_history":[],"rt":3795,"trial_type":"question","trial_index":0,"trial_index_global":87,"time_elapsed":2538405,"internal_chunk_id":"0-0.15-0"}]