[{"nsides":6,"instructions":"Let's define a new operation <img src=./images/hexagon_symbol.png style=width:14px;height:14px>. This operation will give us a way of combining two of the numbers 0, 1, 2, 3, 4, 5 to get another one of them back. Consider the hexagon at the right, where I've labeled each point with one of the numbers. To perform <img src=./images/hexagon_symbol.png style=width:14px;height:14px>, you can use the interactive diagram on the right, or perform the operation in your mind. Point the arrow at the first number on the hexagon by clicking, then click (or click and drag) to move the arrow the second number of points clockwise around the hexagon. The number the arrow arrives at is your result. (The operation is called <img src=./images/hexagon_symbol.png style=width:14px;height:14px> because it uses the hexagon, which has 6 sides.) <br /><br />For example, 3 <img src=./images/hexagon_symbol.png style=width:14px;height:14px> 5 =  2, becau se 5 steps clockwise from 3 on the hexagon brings us to 2. So 3 <img src=./images/hexagon_symbol.png style=width:14px;height:14px> 5 = 2.<br /><br />Similarly, 1 <img src=./images/hexagon_symbol.png style=width:14px;height:14px> 4 = 5, because 4 steps clockwise from 1 brings us to 5. <br /><br />Click Continue when you're ready to move on.","orientation_history":[0],"rt":37179,"trial_type":"polygon-arrow-instructions","trial_index":0,"trial_index_global":1,"time_elapsed":477952,"internal_chunk_id":"0-0"},{"nsides":6,"instructions":"Do you see how <img src=./images/hexagon_symbol.png style=width:14px;height:14px> works? By labeling the points of the hexagon with the numbers from 0 to 5, we ensure that when we combine two numbers under <img src=./images/hexagon_symbol.png style=width:14px;height:14px>, we only produce numbers between 0 and 5.<br /><br />Click Continue when you are ready to move on.","orientation_history":[0,[6.274094648514526,6.274094648514526,6.274094648514526,6.274094648514526,6.274094648514526,6.274094648514526,6.274094648514526,6.274094648514526,6.283185307179586]],"rt":15827,"trial_type":"polygon-arrow-instructions","trial_index":0,"trial_index_global":2,"time_elapsed":493782,"internal_chunk_id":"0-0"},{"nsides":6,"question":"Now try one on your own! What is 4 <img src=./images/hexagon_symbol.png style=width:14px;height:14px> 5? <br /><br /> (Remember, to perform <img src=./images/hexagon_symbol.png style=width:14px;height:14px>, you can use the interactive diagram on the right, or perform the operation in your mind. Point the arrow at the first number on the hexagon, then move the arrow the second number of points clockwise around the hexagon. The number the arrow arrives at is your result.)","response_type":"free","response_choices":[],"correct_response":"3","response":"3","orientation_history":[[0],[4.194607121772004,4.194607121772004,4.194607121772004,4.194607121772004,4.194607121772004,4.194607121772004,4.194607121772004,4.194607121772004,4.194607121772004,4.1887902047863905],[5.256431653206734,5.256431653206734,5.256431653206734,5.256431653206734,5.256431653206734,5.256431653206734,5.256431653206734,5.256431653206734,5.235987755982988],[0.02999100485687789,0.02999100485687789,0.02999100485687789,0.02999100485687789,0.02999100485687789,0.02999100485687789,0],[4.108310591388731,4.108310591388731,4.108310591388731,4.108310591388731,4.1887902047863905],[4.177794656943695,4.177794656943695,4.177794656943695,4.177794656943695,4.207527608725563,4.275761820571148,4.386589865112019,4.496622783977648,4.614115027128681,4.72688071945019,4.72688071945019,4.974848380210966,4.974848380210966,5.095466045921697,5.176036589385496,5.2268402934437175,5.256940688540727,5.264807904705036,5.278243307492749,5.287813630919974,5.291103925297889,5.288307580003043,5.2824294440844,5.276657169242622,5.285643390777662,5.285643390777662,5.285643390777662,5.285643390777662,5.285643390777662,5.285643390777662,5.285643390777662,5.285643390777662,5.285643390777662,5.285643390777662,5.285643390777662,5.285643390777662,5.285643390777662,5.285643390777662,5.285643390777662,5.285643390777662,5.285643390777662,5.285643390777662,5.285643390777662,5.285643390777662,5.306361662256794,5.405740294918731,5.528546669852608,5.65916225420283,5.79573267199371,5.885170991550734,5.954855900329927,6.000630354709998,6.04321913340094,6.067827607481848,6.099705350029845,6.121347875941163,6.142702678789188,6.142702678789188,6.142702678789188,6.142702678789188,6.142702678789188,6.142702678789188,6.142702678789188,6.152619212379959,6.153910303131443,6.163756381161248,6.1747019956246145,6.195177933651845,6.215328484323282,6.225556879702112,6.225556879702112,6.225556879702112,6.225556879702112,6.225556879702112,6.225556879702112,6.225556879702112,6.225556879702112,6.225556879702112,6.225556879702112,6.225556879702112,6.225556879702112,6.225556879702112,6.225556879702112,6.225556879702112,6.225556879702112,6.225556879702112,6.2356022039026024,6.2356022039026024,6.254890973331083,6.25515526721974,6.25515526721974,6.25515526721974,6.25515526721974,6.25515526721974,6.25515526721974,6.25515526721974,6.25515526721974,6.25515526721974,6.25515526721974,6.25515526721974,6.25515526721974,6.25515526721974,6.25515526721974,6.25515526721974,6.25515526721974,6.25515526721974,6.25515526721974,6.25515526721974,6.25515526721974,6.25515526721974,6.25515526721974,0,0.07058958981887353,0.07058958981887353,0.1846843800864546,0.32175055439664213,0.4483426816766143,0.5597969195614243,0.6345528017765085,0.7219912114306163,0.8247479197860536,0.9272952180016122,1.0191413442663497,1.0976703286642282,1.1164942401015803,1.1210367137250574,1.1210367137250574,1.1210367137250574,1.1210367137250574,1.1210367137250574,1.1210367137250574,1.1210367137250574,1.1210367137250574,1.1210367137250574,1.1210367137250574,1.1210367137250574,1.1210367137250574,1.1210367137250574,1.1210367137250574,1.1210367137250574,1.1210367137250574,1.1210367137250574,1.1210367137250574,1.1210367137250574,1.1210367137250574,1.1210367137250574,1.1210367137250574,1.1210367137250574,1.1210367137250574,1.1210367137250574,1.1210367137250574,1.1210367137250574,1.1210367137250574,1.1210367137250574,1.1210367137250574,1.1210367137250574,1.1210367137250574,1.1210367137250574,1.1210367137250574,1.1210367137250574,1.1210367137250574,1.1210367137250574,1.1304003406045533,1.13984733939452,1.1902899496825317,1.30047098041623,1.4479610879170015,1.5961073759377449,1.698305885010135,1.78538920828612,1.8370483759458218,1.9080495151165553,2.0023693780184018,2.075657698454023,2.1495112717080955,2.1948193797716535,2.20354516179708,2.21216068670335,2.21216068670335,2.21216068670335,2.21216068670335,2.21216068670335,2.21216068670335,2.21216068670335,2.21216068670335,2.21216068670335,2.21216068670335,2.21216068670335,2.21216068670335,2.21216068670335,2.21216068670335,2.21216068670335,2.21216068670335,2.21216068670335,2.21216068670335,2.21216068670335,2.21216068670335,2.21216068670335,2.21216068670335,2.21216068670335,2.2355708216122423,2.3336419235420403,2.431807633429175,2.5829933382462307,2.7106436661894167,2.816584781723145,2.864683814272035,2.9110708145464246,2.9325697107835285,2.9634997153585956,2.974838841117092,2.976443976175166,2.976443976175166,2.976443976175166,2.976443976175166,2.976443976175166,2.976443976175166,2.976443976175166,2.976443976175166,2.976443976175166,2.976443976175166,2.976443976175166,2.976443976175166,2.995580395878518,3.0172376590430314,3.046640947247037,3.0762651839664414,3.0762651839664414,3.0762651839664414,3.0762651839664414,3.0762651839664414,3.0762651839664414,3.0762651839664414,3.0762651839664414,3.0762651839664414,3.0860941483440762,3.1049118658331416,3.1049118658331416,3.123412838516815,3.1325019949247332,3.1325019949247332,3.1325019949247332,3.1325019949247332,3.1325019949247332,3.1325019949247332,3.1325019949247332,3.1325019949247332,3.1325019949247332,3.1325019949247332,3.1325019949247332,3.1325019949247332,3.1325019949247332,3.1325019949247332,3.1325019949247332,3.1325019949247332,3.1325019949247332,3.141592653589793]],"response_history":["3"],"rt":131468,"trial_type":"polygon-arrow-question","trial_index":0,"trial_index_global":3,"time_elapsed":625252,"internal_chunk_id":"0-0.3-0"},{"nsides":6,"feedback":"Correct! 4 <img src=./images/hexagon_symbol.png style=width:14px;height:14px> 5 = 3 because 5 steps clockwise on the hexagon from 4 brings us to 3","orientation_history":[0],"rt":2798,"trial_type":"polygon-arrow-feedback","trial_index":0,"trial_index_global":4,"time_elapsed":628054,"internal_chunk_id":"0-0.3-0"},{"nsides":6,"question":"What is 3 <img src=./images/hexagon_symbol.png style=width:14px;height:14px> 2? <br /><br /> (Remember, to perform <img src=./images/hexagon_symbol.png style=width:14px;height:14px>, you can use the interactive diagram on the right, or perform the operation in your mind. Point the  arrow at  the first number on the hexagon, then move the arrow the second number of points clockwise around the hexagon. The number the arrow arrives at is your result.)","response_type":"free","response_choices":[],"correct_response":"5","response":"5","orientation_history":[[0]],"response_history":["5"],"rt":9611,"trial_type":"polygon-arrow-question","trial_index":0,"trial_index_global":5,"time_elapsed":637665,"internal_chunk_id":"0-0.3-0"},{"nsides":6,"feedback":"Correct! 3 <img src=./images/hexagon_symbol.png style=width:14px;height:14px> 2 = 5 because 2 steps clockwise on the hexagon from 3 brings us to 5","orientation_history":[0],"rt":2280,"trial_type":"polygon-arrow-feedback","trial_index":0,"trial_index_global":6,"time_elapsed":639946,"internal_chunk_id":"0-0.3-0"},{"nsides":6,"question":"What is 1 <img src=./images/hexagon_symbol.png style=width:14px;height:14px> 5? <br /><br /> (Remember, to perform <img src=./images/hexagon_symbol.png style=width:14p x;height :14px>, you can use the interactive diagram on the right, or perform the operation in your mind. Point the arrow at the first number on the hexagon, then move the arrow the second number of points clockwise around the hexagon. The number the arrow arrives at is your result.)","response_type":"free","response_choices":[],"correct_response":"0","response":"0","orientation_history":[[0]],"response_history":["0"],"rt":11950,"trial_type":"polygon-arrow-question","trial_index":0,"trial_index_global":7,"time_elapsed":651897,"internal_chunk_id":"0-0.3-0"},{"nsides":6,"feedback":"Correct! 1 <img src=./images/hexagon_symbol.png style=width:14px;height:14px> 5 = 0 because 5 steps clockwise on the hexagon from 1 brings us to 0","orientation_history":[0],"rt":1456,"trial_type":"polygon-arrow-feedback","trial_index":0,"trial_index_global":8,"time_elapsed":653354,"internal_chunk_id":"0-0.3-0"},{"nsides":6,"question":"What is 1 <img src=./images/hexagon_symbol.png style=widt h:14px;h eight:14px> 1? <br /><br /> (Remember, to perform <img src=./images/hexagon_symbol.png style=width:14px;height:14px>, you can use the interactive diagram on the right, or perform the operation in your mind. Point the arrow at the first number on the hexagon, then move the arrow the second number of points clockwise around the hexagon. The number the arrow arrives at is your result.)","response_type":"free","response_choices":[],"correct_response":"2","response":"2","orientation_history":[[0]],"response_history":["2"],"rt":74005,"trial_type":"polygon-arrow-question","trial_index":0,"trial_index_global":9,"time_elapsed":727360,"internal_chunk_id":"0-0.3-0"},{"nsides":6,"feedback":"Correct! 1 <img src=./images/hexagon_symbol.png style=width:14px;height:14px> 1 = 2 because 1 step clockwise on the hexagon from 1 brings us to 2","orientation_history":[0],"rt":2811,"trial_type":"polygon-arrow-feedback","trial_index":0,"trial_index_global":10,"time_elapsed":730172,"internal_chunk_id":"0-0.3-0"},{"nsides":6,"question":"What is 3 <img src=./images/hexagon_symbol.png style=width:14px;height:14px> 0? <br /><br /> (Remember, to perform <img src=./images/hexagon_symbol.png style=width:14px;height:14px>, you can use the interactive diagram on the right, or perform the operation in your mind. Point the arrow at the first number on the hexagon, then move the arrow the second number of points clockwise around the hexagon. The number the arrow arrives at is your result.)","response_type":"free","response_choices":[],"correct_response":"3","response":"3","orientation_history":[[0]],"response_history":["3"],"rt":5643,"trial_type":"polygon-arrow-question","trial_index":0,"trial_index_global":11,"time_elapsed":735815,"internal_chunk_id":"0-0.3-0"},{"nsides":6,"feedback":"Correct! 3 <img src=./images/hexagon_symbol.png style=width:14px;height:14px> 0 = 3 because 0 steps clockwise on the hexagon from 3 brings us to 3","orientation_history":[0],"rt":1321,"trial_type":"polygon-arrow-feedback","trial_index":0,"trial_index_global":12,"time_elapsed":737137,"internal_chunk_id":"0-0.3-0"},{"nsides":6,"question":"What is 4 <img src=./images/hexagon_symbol.png style=width:14px;height:14px> 4? <br /><br /> (Remember, to perform <img src=./images/hexagon_symbol.png style=width:14px;height:14px>, you can use the interactive diagram on the right, or perform the operation in your mind. Point the arrow at the first number on the hexagon, then move the arrow the second number of points clockwise around the hexagon. The number the arrow arrives at is your result.)","response_type":"free","response_choices":[],"correct_response":"2","response":"2","orientation_history":[[0]],"response_history":["2"],"rt":4220,"trial_type":"polygon-arrow-question","trial_index":0,"trial_index_global":13,"time_elapsed":741358,"internal_chunk_id":"0-0.3-0"},{"nsides":6,"feedback":"Correct! 4 <img src=./images/hexagon_symbol.png st yle=wi dth:14px;height:14px> 4 = 2 because 4 steps clockwise on the hexagon from 4 brings us to 2","orientation_history":[0],"rt":1117,"trial_type":"polygon-arrow-feedback","trial_index":0,"trial_index_global":14,"time_elapsed":742476,"internal_chunk_id":"0-0.3-0"},{"nsides":6,"question":"What is 1 <img src=./images/hexagon_symbol.png style=width:14px;height:14px> 3? <br /><br /> (Remember, to perform <img src=./images/hexagon_symbol.png style=width:14px;height:14px>, you can use the interactive diagram on the right, or perform the operation in your mind. Point the arrow at the first number on the hexagon, then move the arrow the second number of points clockwise around the hexagon. The number the arrow arrives at is your result.)","response_type":"free","response_choices":[],"correct_response":"4","response":"4","orientation_history":[[0]],"response_history":["4"],"rt":4796,"trial_type":"polygon-arrow-question","trial_index":0,"trial_index_global":15,"time_elapsed":747274,"internal_chunk_id":"0-0.3-0"},{"nsides":6,"feedback":"Correct! 1 <img src=./images/hexagon_symbol.png style=width:14px;height:14px> 3 = 4 because 3 steps clockwise on the hexagon from 1 brings us to 4","orientation_history":[0],"rt":1269,"trial_type":"polygon-arrow-feedback","trial_index":0,"trial_index_global":16,"time_elapsed":748543,"internal_chunk_id":"0-0.3-0"},{"nsides":6,"question":"What is 4 <img src=./images/hexagon_symbol.png style=width:14px;height:14px> 3? <br /><br /> (Remember, to perform <img src=./images/hexagon_symbol.png style=width:14px;height:14px>, you can use the interactive diagram on the right, or perform the operation in your mind. Point the arrow at the first number on the hexagon, then move the arrow the second number of points clockwise around the hexagon. The number the arrow arrives at is your result.)","response_type":"free","response_choices":[],"correct_response":"1","response":"1","orientation_history":[[0]],"response_history":["1"],"rt":10075,"trial_type":"polygon-arrow-question","trial_index":0,"trial_index_global":17,"time_elapsed":758619,"internal_chunk_id":"0-0.3-0"},{"nsides":6,"feedback":"Correct! 4 <img src=./images/hexagon_symbol.png style=width:14px;height:14px> 3 = 1 because 3 steps clockwise on the hexagon from 4 brings us to 1","orientation_history":[0],"rt":1193,"trial_type":"polygon-arrow-feedback","trial_index":0,"trial_index_global":18,"time_elapsed":759813,"internal_chunk_id":"0-0.3-0"},{"nsides":6,"question":"What is 0 <img src=./images/hexagon_symbol.png style=width:14px;height:14px> 5? <br /><br /> (Remember, to perform <img src=./images/hexagon_symbol.png style=width:14px;height:14px>, you can use the interactive diagram on the right, or perform the operation in your mind. Point the arrow at the first number on the hexagon, then move the arrow the second number of points clockwise around the hexagon. The number the arrow arrives at is your result. )","response_type":"free","response_choices":[],"correct_response":"5","response":"5","orientation_history":[[0]],"response_history":["5"],"rt":3777,"trial_type":"polygon-arrow-question","trial_index":0,"trial_index_global":19,"time_elapsed":763591,"internal_chunk_id":"0-0.3-0"},{"nsides":6,"feedback":"Correct! 0 <img src=./images/hexagon_symbol.png style=width:14px;height:14px> 5 = 5 because 5 steps clockwise on the hexagon from 0 brings us to 5","orientation_history":[0],"rt":998,"trial_type":"polygon-arrow-feedback","trial_index":0,"trial_index_global":20,"time_elapsed":764591,"internal_chunk_id":"0-0.3-0"},{"nsides":6,"question":"What is 2 <img src=./images/hexagon_symbol.png style=width:14px;height:14px> 5? <br /><br /> (Remember, to perform <img src=./images/hexagon_symbol.png style=width:14px;height:14px>, you can use the interactive diagram on the right, or perform the operation in your mind. Point the arrow at the first number on the hexagon, then mo ve the a rrow the second number of points clockwise around the hexagon. The number the arrow arrives at is your result.)","response_type":"free","response_choices":[],"correct_response":"1","response":"1","orientation_history":[[0]],"response_history":["1"],"rt":8807,"trial_type":"polygon-arrow-question","trial_index":0,"trial_index_global":21,"time_elapsed":773398,"internal_chunk_id":"0-0.3-0"},{"nsides":6,"feedback":"Correct! 2 <img src=./images/hexagon_symbol.png style=width:14px;height:14px> 5 = 1 because 5 steps clockwise on the hexagon from 2 brings us to 1","orientation_history":[0],"rt":940,"trial_type":"polygon-arrow-feedback","trial_index":0,"trial_index_global":22,"time_elapsed":774339,"internal_chunk_id":"0-0.3-0"},{"nsides":6,"instructions":"Now we're going to discuss a couple special properties of this new operation, <img src=./images/hexagon_symbol.png style=width:14px;height:14px> that we've learned. First, notice that the number 0 behaves in a special  way und er <img src=./images/hexagon_symbol.png style=width:14px;height:14px>. Whenever we combine 0 with anything else, we get that same thing back. We'll say that 0 is the <i>identity</i> under <img src=./images/hexagon_symbol.png style=width:14px;height:14px>, because when you combine it with something it gives you that identical thing back.","orientation_history":[0],"rt":8927,"trial_type":"polygon-arrow-instructions","trial_index":0,"trial_index_global":23,"time_elapsed":783268,"internal_chunk_id":"0-0"},{"nsides":6,"instructions":"Now that we know 0 is the identity under <img src=./images/hexagon_symbol.png style=width:14px;height:14px>, we're going to make a new definition. We'll say that the <i>inverse</i> of a number is the element that you combine with it to produce the identity under our operation. For example, 5 <img src=./images/hexagon_symbol.png style=width:14px;height:14px> 1 = 0, so we say 1 is the inverse of 5 under <img src=./imag es/hexag on_symbol.png style=width:14px;height:14px>, (remember 0 is the identity under <img src=./images/hexagon_symbol.png style=width:14px;height:14px>). Similarly, 3 is its own inverse under <img src=./images/hexagon_symbol.png style=width:14px;height:14px>, because 3 <img src=./images/hexagon_symbol.png style=width:14px;height:14px> 3 = 0.","orientation_history":[0],"rt":22540,"trial_type":"polygon-arrow-instructions","trial_index":0,"trial_index_global":24,"time_elapsed":805808,"internal_chunk_id":"0-0"},{"nsides":6,"question":"Now you try! What is the inverse of 4 under <img src=./images/hexagon_symbol.png style=width:14px;height:14px>? <br /><br /> (Remember, the inverse of an element is the thing which you combine with it to produce the identity.)","response_type":"free","response_choices":[],"correct_response":"2","response":"0","orientation_history":[[0]],"response_history":["0"],"rt":13850,"trial_type":"polygon-arrow-question","trial_index":0,"trial_index_global":25,"time_elapsed":819659,"internal_chunk_id":"0-0.7-0"},{"nsides":6,"feedback":"Sorry, that was incorrect. The inverse of 4 under <img src=./images/hexagon_symbol.png style=width:14px;height:14px> is 2 because 4 <img src=./images/hexagon_symbol.png style=width:14px;height:14px> 2 = 0, and 0 is the identity under <img src=./images/hexagon_symbol.png style=width:14px;height:14px>.","orientation_history":[0],"rt":7774,"trial_type":"polygon-arrow-feedback","trial_index":0,"trial_index_global":26,"time_elapsed":827434,"internal_chunk_id":"0-0.7-0"},{"nsides":6,"question":"What is the inverse of 1 under <img src=./images/hexagon_symbol.png style=width:14px;height:14px>? <br /><br /> (Remember, the inverse of an element is the thing which you combine with it to produce the identity.)","response_type":"free","response_choices":[],"correct_response":"5","response":"5","orientation_history":[[0]],"response_history":["5"],"rt":14296,"trial_type":"polygon-arrow-question","trial_index":0,"trial_index_global":27,"time_elapsed":841731,"internal_chunk_id":"0-0.7-0"},{"nsides":6,"feedback":"Correct! The inverse of 1 under <img src=./images/hexagon_symbol.png style=width:14px;height:14px> is 5 because 1 <img src=./images/hexagon_symbol.png style=width:14px;height:14px> 5 = 0, and 0 is the identity under <img src=./images/hexagon_symbol.png style=width:14px;height:14px>.","orientation_history":[0],"rt":4153,"trial_type":"polygon-arrow-feedback","trial_index":0,"trial_index_global":28,"time_elapsed":845885,"internal_chunk_id":"0-0.7-0"},{"nsides":6,"question":"What is the inverse of 3 under <img src=./images/hexagon_symbol.png style=width:14px;height:14px>? <br /><br /> (Remember, the inverse of an element is the thing which you combine with it to produce the identity.)","response_type":"free","response_choices":[],"correct_response":"3","response":"0","orientation_history":[[0]],"response_history":["0"],"rt":3009,"trial_type":"polygon-arrow-question","trial_index":0,"trial_index_global":29,"time_elapsed":848895,"internal_chunk_id":"0-0.7-0"},{"nsides":6,"feedback":"Sorry, that was incorrect. The inverse of 3 under <img src=./images/hexagon_symbol.png style=width:14px;height:14px> is 3 because 3 <img src=./images/hexagon_symbol.png style=width:14px;height:14px> 3 = 0, and 0 is the identity under <img src=./images/hexagon_symbol.png style=width:14px;height:14px>.","orientation_history":[0],"rt":2516,"trial_type":"polygon-arrow-feedback","trial_index":0,"trial_index_global":30,"time_elapsed":851412,"internal_chunk_id":"0-0.7-0"},{"nsides":6,"question":"What is the inverse of 2 under <img src=./images/hexagon_symbol.png style=width:14px;height:14px>? <br /><br /> (Remember, the inverse of an element is the thing which you combine with it to produce the identity.)","response_type":"free","response_choices":[],"correct_response":"4","response":"4 ","orientation_history":[[0]],"response_history":["4"],"rt":2473,"trial_type":"polygon-arrow-question","trial_index":0,"trial_index_global":31,"time_elapsed":853885,"internal_chunk_id":"0-0.7-0"},{"nsides":6,"feedback":"Correct! The inverse of 2 under <img src=./images/hexagon_symbol.png style=width:14px;height:14px> is 4 because 2 <img src=./images/hexagon_symbol.png style=width:14px;height:14px> 4 = 0, and 0 is the identity under <img src=./images/hexagon_symbol.png style=width:14px;height:14px>.","orientation_history":[0],"rt":809,"trial_type":"polygon-arrow-feedback","trial_index":0,"trial_index_global":32,"time_elapsed":854695,"internal_chunk_id":"0-0.7-0"},{"nsides":6,"question":"What is the inverse of 0 under <img src=./images/hexagon_symbol.png style=width:14px;height:14px>? <br /><br /> (Remember, the inverse of an element is the thing which you combine with it to produce the identity.)","response_type":"free","response_choices":[],"correct_response":"0","response":"0","orientation_history":[[0]],"response_history":["0"],"rt":2709,"trial_type":"polygon-arrow-question","trial_index":0,"trial_index_global":33,"time_elapsed":857405,"internal_chunk_id":"0-0.7-0"},{"nsides":6,"feedback":"Correct! The inverse of 0 under <img src=./images/hexagon_symbol.png style=width:14px;height:14px> is 0 because 0 <img src=./images/hexagon_symbol.png style=width:14px;height:14px> 0 = 0, and 0 is the identity under <img src=./images/hexagon_symbol.png style=width:14px;height:14px>.","orientation_history":[0],"rt":985,"trial_type":"polygon-arrow-feedback","trial_index":0,"trial_index_global":34,"time_elapsed":858391,"internal_chunk_id":"0-0.7-0"},{"instructions":"It is also possible to successively apply <img src=./images/hexagon_symbol.png style=width:14px;height:14px>, and the operation can simply be performed starting with the left-most pair. For example, 2 <img src=./images/hexagon_symbol.png s tyle=w idth:14px;height:14px> 3 <img src=./images/hexagon_symbol.png style=width:14px;height:14px> 4 = 5 <img src=./images/hexagon_symbol.png style=width:14px;height:14px> 4 = 3.","rt":10664,"trial_type":"instructions","trial_index":0,"trial_index_global":35,"time_elapsed":869056,"internal_chunk_id":"0-0"},{"nsides":6,"instructions":"We have one last definition to learn today. Let's start with an example. Under our operation <img src=./images/hexagon_symbol.png style=width:14px;height:14px> we can make every other number using just 1: 2 = 1 <img src=./images/hexagon_symbol.png style=width:14px;height:14px> 1, 3 = 1 <img src=./images/hexagon_symbol.png style=width:14px;height:14px> 1 <img src=./images/hexagon_symbol.png style=width:14px;height:14px> 1, 4 = 1 <img src=./images/hexagon_symbol.png style=width:14px;height:14px> 1 <img src=./images/hexagon_symbol.png style=width:14px;height:14px> 1 <img src=./images/hexa gon_symb ol.png style=width:14px;height:14px> 1, 5 = 1 <img src=./images/hexagon_symbol.png style=width:14px;height:14px> 1 <img src=./images/hexagon_symbol.png style=width:14px;height:14px> 1 <img src=./images/hexagon_symbol.png style=width:14px;height:14px> 1 <img src=./images/hexagon_symbol.png style=width:14px;height:14px> 1, and 0 = 1 <img src=./images/hexagon_symbol.png style=width:14px;height:14px> 1 <img src=./images/hexagon_symbol.png style=width:14px;height:14px> 1 <img src=./images/hexagon_symbol.png style=width:14px;height:14px> 1 <img src=./images/hexagon_symbol.png style=width:14px;height:14px> 1 <img src=./images/hexagon_symbol.png style=width:14px;height:14px> 1. Because 1 can make every other element under <img src=./images/hexagon_symbol.png style=width:14px;height:14px>, we say that 1 is a <i>generator</i> under <img src=./images/hexagon_symbol.png style=width:14px;height:14 px>. < br /><br /> However, 2 is not a generator under <img src=./images/hexagon_symbol.png style=width:14px;height:14px>, because 4 = 2 <img src=./images/hexagon_symbol.png style=width:14px;height:14px> 2, and 0 = 2 <img src=./images/hexagon_symbol.png style=width:14px;height:14px> 2 <img src=./images/hexagon_symbol.png style=width:14px;height:14px> 2, but there is no way to make 1, 3, or 5 using just 2.","orientation_history":[0],"rt":26506,"trial_type":"polygon-arrow-instructions","trial_index":0,"trial_index_global":36,"time_elapsed":895563,"internal_chunk_id":"0-0"},{"nsides":6,"question":"Now you try! Is 3 a generator under <img src=./images/hexagon_symbol.png style=width:14px;height:14px>? <br /><br /> (Remember, a generator is an element which can make every other element.)","response_type":"multi","response_choices":["Yes","No"],"correct_response":"No","response":"No","orientation_history":[[0]],"response_history":["No"],"rt":7244,"trial_type":"polygon-arrow-question","trial_index":0,"trial_index_global":37,"time_elapsed":902808,"internal_chunk_id":"0-0.10-0"},{"nsides":6,"feedback":"Correct! 3 is not a generator under <img src=./images/hexagon_symbol.png style=width:14px;height:14px>, because 3 = 3, 0 = 3 <img src=./images/hexagon_symbol.png style=width:14px;height:14px> 3, but there is no way to make 1, 2, 4, or 5 using just 3.","orientation_history":[0],"rt":1118,"trial_type":"polygon-arrow-feedback","trial_index":0,"trial_index_global":38,"time_elapsed":903926,"internal_chunk_id":"0-0.10-0"},{"nsides":6,"question":"Is 5 a generator under <img src=./images/hexagon_symbol.png style=width:14px;height:14px>? <br /><br /> (Remember, a generator is an element which can make every other element.)","response_type":"multi","response_choices":["Yes","No"],"correct_response":"Yes","response":"No","orientation_history":[[0]],"response_history":["No"],"rt":2312,"trial_type":"polygon-arrow-questio n","trial_index":0,"trial_index_global":39,"time_elapsed":906239,"internal_chunk_id":"0-0.10-0"},{"nsides":6,"feedback":"Sorry, that's incorrect. 5 is a generator under <img src=./images/hexagon_symbol.png style=width:14px;height:14px>, because 5 = 5, 4 = 5 <img src=./images/hexagon_symbol.png style=width:14px;height:14px> 5, 3 = 5 <img src=./images/hexagon_symbol.png style=width:14px;height:14px> 5 <img src=./images/hexagon_symbol.png style=width:14px;height:14px> 5, 2 = 5 <img src=./images/hexagon_symbol.png style=width:14px;height:14px> 5 <img src=./images/hexagon_symbol.png style=width:14px;height:14px> 5 <img src=./images/hexagon_symbol.png style=width:14px;height:14px> 5, 1 = 5 <img src=./images/hexagon_symbol.png style=width:14px;height:14px> 5 <img src=./images/hexagon_symbol.png style=width:14px;height:14px> 5 <img src=./images/hexagon_symbol.png style=width:14px;height:14px> 5 <img src=./imag es/hexag on_symbol.png style=width:14px;height:14px> 5, and 0 = 5 <img src=./images/hexagon_symbol.png style=width:14px;height:14px> 5 <img src=./images/hexagon_symbol.png style=width:14px;height:14px> 5 <img src=./images/hexagon_symbol.png style=width:14px;height:14px> 5 <img src=./images/hexagon_symbol.png style=width:14px;height:14px> 5 <img src=./images/hexagon_symbol.png style=width:14px;height:14px> 5, so you can make all of the numbers under <img src=./images/hexagon_symbol.png style=width:14px;height:14px> using 5","orientation_history":[0],"rt":3373,"trial_type":"polygon-arrow-feedback","trial_index":0,"trial_index_global":40,"time_elapsed":909612,"internal_chunk_id":"0-0.10-0"},{"nsides":6,"question":"Is 4 a generator under <img src=./images/hexagon_symbol.png style=width:14px;height:14px>? <br /><br /> (Remember, a generator is an element which can make every other element.)","response_type":"multi","response_choices":["Yes","No"],"correct_response":"No","response":"Yes","orientation_history":[[0]],"response_history":["Yes"],"rt":3492,"trial_type":"polygon-arrow-question","trial_index":0,"trial_index_global":41,"time_elapsed":913105,"internal_chunk_id":"0-0.10-0"},{"nsides":6,"feedback":"Sorry, that's incorrect. 4 is not a generator under <img src=./images/hexagon_symbol.png style=width:14px;height:14px>, because 4 = 4, 2 = 4 <img src=./images/hexagon_symbol.png style=width:14px;height:14px> 4, and 0 = 4 <img src=./images/hexagon_symbol.png style=width:14px;height:14px> 4 <img src=./images/hexagon_symbol.png style=width:14px;height:14px> 4, but there is no way to make 1, 3, or 5 using just 4.","orientation_history":[0],"rt":835,"trial_type":"polygon-arrow-feedback","trial_index":0,"trial_index_global":42,"time_elapsed":913941,"internal_chunk_id":"0-0.10-0"},{"nsides":6,"question":"Is 0 a generator under <img src=./images/hexagon_symbol.png style=width: 14px;hei ght:14px>? <br /><br /> (Remember, a generator is an element which can make every other element.)","response_type":"multi","response_choices":["Yes","No"],"correct_response":"No","response":"No","orientation_history":[[0]],"response_history":["No"],"rt":3808,"trial_type":"polygon-arrow-question","trial_index":0,"trial_index_global":43,"time_elapsed":917750,"internal_chunk_id":"0-0.10-0"},{"nsides":6,"feedback":"Correct! 0 is not a generator under <img src=./images/hexagon_symbol.png style=width:14px;height:14px>, because 0 = 0, but there is no way to make 1, 2, 3, 4, or 5 using just 0.","orientation_history":[0],"rt":991,"trial_type":"polygon-arrow-feedback","trial_index":0,"trial_index_global":44,"time_elapsed":918742,"internal_chunk_id":"0-0.10-0"},{"nsides":9,"instructions":"Now we are going to ask you some questions about a new operation, <img src=./images/nonagon_symbol.png style=width:14px;height:14px>, on the numbers 0, 1, 2, 3, 4, 5, 6, 7, 8. It wor ks exact ly like <img src=./images/hexagon_symbol.png style=width:14px;height:14px>, except now you use the nonagon shown at the right. <br /><br />Do you see how <img src=./images/nonagon_symbol.png style=width:14px;height:14px> works just like <img src=./images/hexagon_symbol.png style=width:14px;height:14px>? By labeling the points of the nonagon with the numbers from 0 to 8, we ensure that when we combine two numbers under <img src=./images/nonagon_symbol.png style=width:14px;height:14px>, we only produce numbers between 0 and 8. <br /><br />We'll give you one practice question with feedback to make sure you understand the new operation. After that, try to complete the remaining questions as accurately as possible.","orientation_history":[0],"rt":14934,"trial_type":"polygon-arrow-instructions","trial_index":0,"trial_index_global":45,"time_elapsed":933677,"internal_chunk_id":"0-0"},{"nsides":9,"question":"Practice: What is 5 <img src=./images/nona gon_symb ol.png style=width:14px;height:14px> 5?","response_type":"free","response_choices":[],"correct_response":"1","response":"1","orientation_history":[[0]],"response_history":["1"],"rt":5299,"trial_type":"polygon-arrow-question","trial_index":0,"trial_index_global":46,"time_elapsed":938977,"internal_chunk_id":"0-0.12-0"},{"nsides":9,"feedback":"Correct! 5 <img src=./images/nonagon_symbol.png style=width:14px;height:14px> 5 = 1 because 5 steps clockwise on the nonagon from 5 brings us to 1","orientation_history":[0],"rt":847,"trial_type":"polygon-arrow-feedback","trial_index":0,"trial_index_global":47,"time_elapsed":939824,"internal_chunk_id":"0-0.12-0"},{"nsides":9,"question":"What is 3 <img src=./images/nonagon_symbol.png style=width:14px;height:14px> 3?","response_type":"free","response_choices":[],"correct_response":"6","response":"6","orientation_history":[[0]],"response_history":["6"],"rt":4697,"trial_type":"polygon-arrow-question","trial_index":0,"trial_index_global":48,"time_elapsed":944522,"internal_chunk_id":"0-0.12-0"},{"nsides":9,"question":"What is 7 <img src=./images/nonagon_symbol.png style=width:14px;height:14px> 4?","response_type":"free","response_choices":[],"correct_response":"2","response":"2","orientation_history":[[0]],"response_history":["2"],"rt":6098,"trial_type":"polygon-arrow-question","trial_index":0,"trial_index_global":49,"time_elapsed":950621,"internal_chunk_id":"0-0.12-0"},{"nsides":9,"question":"What is 1 <img src=./images/nonagon_symbol.png style=width:14px;height:14px> 8?","response_type":"free","response_choices":[],"correct_response":"0","response":"0","orientation_history":[[0]],"response_history":["0"],"rt":7117,"trial_type":"polygon-arrow-question","trial_index":0,"trial_index_global":50,"time_elapsed":957739,"internal_chunk_id":"0-0.12-0"},{"nsides":9,"question":"What is 5 <img src=./images/nonagon_symbol.png style=width:14px;height:14px> 4?","response_type":"free","response_choices":[],"correct_response":"0","response":"0","orientation_history":[[0]],"response_history":["10","0"],"rt":6530,"trial_type":"polygon-arrow-question","trial_index":0,"trial_index_global":51,"time_elapsed":964269,"internal_chunk_id":"0-0.12-0"},{"nsides":9,"question":"What is 6 <img src=./images/nonagon_symbol.png style=width:14px;height:14px> 6?","response_type":"free","response_choices":[],"correct_response":"3","response":"3","orientation_history":[[0]],"response_history":["3"],"rt":4912,"trial_type":"polygon-arrow-question","trial_index":0,"trial_index_global":52,"time_elapsed":969182,"internal_chunk_id":"0-0.12-0"},{"nsides":9,"question":"What is 4 <img src=./images/nonagon_symbol.png style=width:14px;height:14px> 1? Please explain in words how you got your answer.","response_type":"free","response_choices":[],"correct_response":"","response":"5. I started at 4, and moved one ahead, exactly like I did under the hexagonal method.","orientation_history":[[0]],"response_history":["It's five. ","5. I moved ","5. I mo","5. I m","5. I startd ","5. I startd","5. I startte","5. I startt","5. I started at 4, and moved one ahead, exactly like I did under the hexagonal method."],"rt":28029,"trial_type":"polygon-arrow-question","trial_index":0,"trial_index_global":53,"time_elapsed":997212,"internal_chunk_id":"0-0.12-0"},{"nsides":9,"question":"What is 8 <img src=./images/nonagon_symbol.png style=width:14px;height:14px> 4? Please explain in words how you got your answer.","response_type":"free","response_choices":[],"correct_response":"","response":"3. I started at 8, and moved four ahead clockwise.","orientation_history":[[0]],"response_history":["3. I started at 8, and moved four ahead o","3. I started at 8, and moved four ahead clockwise."],"rt":14591,"trial_type":"polygon-arrow-question","trial_index":0,"trial_index_global":54,"time_elapsed":1011804,"internal_chunk_id":"0-0.12-0"},{"nsides":9,"question":"What is the identity under  <img sr c=./images/nonagon_symbol.png style=width:14px;height:14px>? Please explain in words how you got your answer.","response_type":"free","response_choices":[],"correct_response":"0","response":"0. It functions the same way as identity did under the hexagonal method.","orientation_history":[[0]],"response_history":["0, because it","0, b","0, ","0,","0. It functions the same was ","0. It functions the same was","0. It functions the same way as identity did under the hexagonal method."],"rt":26027,"trial_type":"polygon-arrow-question","trial_index":0,"trial_index_global":55,"time_elapsed":1037832,"internal_chunk_id":"0-0.12-0"},{"nsides":9,"question":"What is the inverse of 5 under <img src=./images/nonagon_symbol.png style=width:14px;height:14px>?","response_type":"free","response_choices":[],"correct_response":"4","response":"4","orientation_history":[[0]],"response_history":["4"],"rt":9697,"trial_type":"polygon-arrow-question","trial_index":0,"trial_index_global":56,"time_elapsed":1047530,"internal_chunk_id":"0-0.12-0"},{"nsides":9,"question":"What is the inverse of 2 under <img src=./images/nonagon_symbol.png style=width:14px;height:14px>?","response_type":"free","response_choices":[],"correct_response":"7","response":"7","orientation_history":[[0]],"response_history":["7"],"rt":3713,"trial_type":"polygon-arrow-question","trial_index":0,"trial_index_global":57,"time_elapsed":1051244,"internal_chunk_id":"0-0.12-0"},{"nsides":9,"question":"What is the inverse of 0 under <img src=./images/nonagon_symbol.png style=width:14px;height:14px>?","response_type":"free","response_choices":[],"correct_response":"0","response":"0","orientation_history":[[0]],"response_history":["0"],"rt":2389,"trial_type":"polygon-arrow-question","trial_index":0,"trial_index_global":58,"time_elapsed":1053634,"internal_chunk_id":"0-0.12-0"},{"nsides":9,"question":"What is the inverse of 3 under <img src=./images/nonagon_symbol.png style=width:14px; height:1 4px>? Please explain in words how you got your answer.","response_type":"free","response_choices":[],"correct_response":"","response":"6. 6 is the inverse because it is the element you combine to produce the operation.","orientation_history":[[0]],"response_history":["6. The ","6. The","6. Th","6. T","6. 6 is the inverse because of the wa","6. 6 is the inverse because it is the element you combine to produce the operation."],"rt":32919,"trial_type":"polygon-arrow-question","trial_index":0,"trial_index_global":59,"time_elapsed":1086554,"internal_chunk_id":"0-0.12-0"},{"nsides":9,"question":"Is 2 a generator under <img src=./images/nonagon_symbol.png style=width:14px;height:14px>? Please explain in words how you got your answer.","response_type":"free","response_choices":[],"correct_response":"","response":"No. It cannot be used to make all other numbers.","orientation_history":[[0]],"response_history":["No. It cannot be used to make all other numbers."],"rt":13210,"trial_type":"polygon-arrow-question","trial_index":0,"trial_index_global":60,"time_elapsed":1099765,"internal_chunk_id":"0-0.12-0"},{"nsides":9,"question":"Is 3 a generator under <img src=./images/nonagon_symbol.png style=width:14px;height:14px>? Please explain in words how you got your answer.","response_type":"free","response_choices":[],"correct_response":"","response":"Yes. It can be used to make all other numbers.","orientation_history":[[0]],"response_history":["Yes. It can be used to make all other numbers."],"rt":12921,"trial_type":"polygon-arrow-question","trial_index":0,"trial_index_global":61,"time_elapsed":1112686,"internal_chunk_id":"0-0.12-0"},{"nsides":9,"question":"Is 5 a generator under <img src=./images/nonagon_symbol.png style=width:14px;height:14px>? Please explain in words how you got your answer.","response_type":"free","response_choices":[],"correct_response":"","response":"Yes, it can be used to make all other numbers.","orientation_history":[[0]],"response_history":["Yes, it can be used to make all othern umb","Yes, it can be used to make all other numbers."],"rt":9255,"trial_type":"polygon-arrow-question","trial_index":0,"trial_index_global":62,"time_elapsed":1121941,"internal_chunk_id":"0-0.12-0"},{"nsides":9,"question":"Is 6 a generator under <img src=./images/nonagon_symbol.png style=width:14px;height:14px>? Please explain in words how you got your answer.","response_type":"free","response_choices":[],"correct_response":"","response":"No, it cannot be used to make all other numbers.","orientation_history":[[0]],"response_history":["No, it cannot be used to make all other numbers."],"rt":6692,"trial_type":"polygon-arrow-question","trial_index":0,"trial_index_global":63,"time_elapsed":1128634,"internal_chunk_id":"0-0.12-0"},{"nsides":"n","instructions":"Now we'd like to ask you some questions about <img src=./images/ngon_symbol.png style=width:14px;height:14px>, where n could be any positive counting n umber. F or example, n could be 3, and the polygon a triangle, or n could be any other counting number you can think of. If you need to write the operation, you can use (n), and your answers can include n to stand in for the arbitrary value if necessary. (You can use the polygon at the right to think, but it doesn't necessarily correspond to the real polygon, which is why we've left most of it dashed.)","orientation_history":[0],"rt":23407,"trial_type":"polygon-arrow-instructions","trial_index":0,"trial_index_global":64,"time_elapsed":1152043,"internal_chunk_id":"0-0"},{"nsides":"n","question":"What is the formula for the inverse of 1 under <img src=./images/ngon_symbol.png style=width:14px;height:14px>?","response_type":"free","response_choices":[],"correct_response":"n-1","response":"(n) + 1","orientation_history":[[0]],"response_history":["(","(n_","(n) = 1","(n) = ","(n) =","(n) + 1"],"rt":35886,"trial_type":"polygon-arrow-question","trial_index":0,"trial_index_global":65,"time_elapsed":1187929,"internal_chunk_id":"0-0.14-0"},{"nsides":"n","question":"What is the formula for the inverse of an element x under <img src=./images/ngon_symbol.png style=width:14px;height:14px>? Please explain in words why your answer is correct.","response_type":"free","response_choices":[],"correct_response":"n-x","response":"(n) = x + 1","orientation_history":[[0]],"response_history":["(n) - ","(n) -","(n) = x _","(n) = x _ ","(n) = x _","(n) = x + 1"],"rt":36028,"trial_type":"polygon-arrow-question","trial_index":0,"trial_index_global":66,"time_elapsed":1223958,"internal_chunk_id":"0-0.14-0"},{"nsides":"n","question":"Is there a pattern to which elements are generators? How can you know if an element x is a generator under <img src=./images/ngon_symbol.png style=width:14px;height:14px> without seeing whether it can make all the elements?.","response_type":"free","response_choices":[],"correct_response":"","response":"I cannot actually tell if there' s a patt ern.","orientation_history":[[0]],"response_history":["I'm not sure whether there is a ","I think there's a pattern regarding ","I cannot actually tell if there's a pattern."],"rt":29543,"trial_type":"polygon-arrow-question","trial_index":0,"trial_index_global":67,"time_elapsed":1253502,"internal_chunk_id":"0-0.14-0"},{"nsides":"n","question":"True or false: If x is an odd number, it must be a generator under <img src=./images/ngon_symbol.png style=width:14px;height:14px>.","response_type":"multi","response_choices":["True","False"],"correct_response":"False","response":"True","orientation_history":[[0]],"response_history":["True"],"rt":3448,"trial_type":"polygon-arrow-question","trial_index":0,"trial_index_global":68,"time_elapsed":1256950,"internal_chunk_id":"0-0.14-0"},{"nsides":"n","question":"True or false: If x is an even number, it must not be a generator under <img src=./images/ngon_symbol.png style=width:14px;height:14px>.","response_type":"multi","response_choices":["True","False"],"correct_response":"False","response":"True","orientation_history":[[0]],"response_history":["True"],"rt":2920,"trial_type":"polygon-arrow-question","trial_index":0,"trial_index_global":69,"time_elapsed":1259870,"internal_chunk_id":"0-0.14-0"},{"nsides":"n","question":"True or false: If x is not a generator under <img src=./images/ngon_symbol.png style=width:14px;height:14px>, x must be a divisor of n, that is, x must divide n evenly, with no remainder.","response_type":"multi","response_choices":["True","False"],"correct_response":"False","response":"True","orientation_history":[[0]],"response_history":["False","True"],"rt":12082,"trial_type":"polygon-arrow-question","trial_index":0,"trial_index_global":70,"time_elapsed":1271953,"internal_chunk_id":"0-0.14-0"},{"nsides":"n","question":"True or false: If x is not a generator under <img src=./images/ngon_symbol.png style=width:14px;height:14px>, x must be a multiple of a divisor of n.  Please  explain in words why your answer is correct.","response_type":"free","response_choices":[],"correct_response":"True","response":"This is true because a number that is not a generator will function this way.","orientation_history":[[0]],"response_history":["This is true because a generator ","This is true becc","This is true because a number that is not a generator will function this way."],"rt":39712,"trial_type":"polygon-arrow-question","trial_index":0,"trial_index_global":71,"time_elapsed":1311665,"internal_chunk_id":"0-0.14-0"},{"nsides":"n","question":"If an element x is a generator under <img src=./images/ngon_symbol.png style=width:14px;height:14px>, is its inverse a generator under <img src=./images/ngon_symbol.png style=width:14px;height:14px> always, sometimes, or never?","response_type":"multi","response_choices":["Always","Sometimes","Never"],"correct_response":"Always","response":"Sometimes","orientation_history":[[0]],"response_history":["Sometim es"],"rt":7295,"trial_type":"polygon-arrow-question","trial_index":0,"trial_index_global":72,"time_elapsed":1318961,"internal_chunk_id":"0-0.14-0"},{"nsides":"n","question":"If an element x is a generator under <img src=./images/ngon_symbol.png style=width:14px;height:14px>, is x <img src=./images/ngon_symbol.png style=width:14px;height:14px> x a generator under <img src=./images/ngon_symbol.png style=width:14px;height:14px> always, sometimes, or never? Please explain in words why your answer is correct.","response_type":"free","response_choices":[],"correct_response":"Sometimes","response":"It sometimes is a generator because it will occasionally work out that way, but other times it does not.","orientation_history":[[0]],"response_history":["It sometimes i s","It sometimes i ","It sometimes is a generator because it will occasio","It sometimes is a generator because it will occasis","It sometimes is a generator because it will occasionalyl wor","It sometime s is a g enerator because it will occasionaly","It sometimes is a generator because it will occasionally work out that way, but other times it does not."],"rt":19382,"trial_type":"polygon-arrow-question","trial_index":0,"trial_index_global":73,"time_elapsed":1338344,"internal_chunk_id":"0-0.14-0"},{"nsides":"n","question":"If an element x is not a generator under <img src=./images/ngon_symbol.png style=width:14px;height:14px>, is x <img src=./images/ngon_symbol.png style=width:14px;height:14px> x a generator under <img src=./images/ngon_symbol.png style=width:14px;height:14px> always, sometimes, or never?","response_type":"multi","response_choices":["Always","Sometimes","Never"],"correct_response":"Never","response":"Never","orientation_history":[[0]],"response_history":["Never"],"rt":9453,"trial_type":"polygon-arrow-question","trial_index":0,"trial_index_global":74,"time_elapsed":1347798,"internal_chunk_id":"0-0.14-0"},{"instructions":"We would like to ask yo u some q uestions about your background. Please press Continue to continue.","rt":1838,"trial_type":"instructions","trial_index":0,"trial_index_global":75,"time_elapsed":1349637,"internal_chunk_id":"0-0.15-0"},{"question":"What is your age?","response_type":"free","response_choices":[],"correct_response":"","response":"34","response_history":["34"],"rt":1801,"trial_type":"question","trial_index":0,"trial_index_global":76,"time_elapsed":1351439,"internal_chunk_id":"0-0.15-0"},{"question":"What is your level of education?","response_type":"multi","response_choices":["Did not graduate high school","High school diploma","Some college, no degree","Associates Degree","Bachelors Degree","Some graduate school, no degree","Masters Degree","Doctorate, M.D., etc."],"correct_response":"","response":"Bachelors Degree","response_history":["Bachelors Degree"],"rt":2234,"trial_type":"question","trial_index":0,"trial_index_global":77,"time_elapsed":1353674,"internal_chunk_id":"0-0.15-0"},{"question":"Wha t is the most advanced math class you've completed? If you have multiple classes and you're not sure which one is most advanced, please list them.","response_type":"free","response_choices":[],"correct_response":"","response":"Spirit of Mathematics","response_history":["Algebra II","Spirit of Mathematics"],"rt":21272,"trial_type":"question","trial_index":0,"trial_index_global":78,"time_elapsed":1374948,"internal_chunk_id":"0-0.15-0"},{"question":"How familiar are you with the concept of modular arithmetic?","response_type":"multi","response_choices":["1 - never heard of it","2 - heard of it but didn't know what it was","3 - seen it used or explained","4 - used it but not often or recently","5 - used it, remember and understand it"],"correct_response":"1","response":"2 - heard of it but didn't know what it was","response_history":["2 - heard of it but didn't know what it was"],"rt":5855,"trial_type":"question","trial_index":0,"trial_index_global":79,"time_elapsed":1380803,"internal_chunk_id":"0-0.15-0"},{"question":"How familiar are you with the concept of a mathematical group?","response_type":"multi","response_choices":["1 - never heard of it","2 - heard of it but didn't know what it was","3 - seen it used or explained","4 - used it but not often or recently","5 - used it, remember and understand it"],"correct_response":"1","response":"2 - heard of it but didn't know what it was","response_history":["2 - heard of it but didn't know what it was"],"rt":3749,"trial_type":"question","trial_index":0,"trial_index_global":80,"time_elapsed":1384553,"internal_chunk_id":"0-0.15-0"},{"question":"Do you feel you learned something from this HIT?","response_type":"multi","response_choices":["1 - not at all","2 - somewhat","3 - definitely"],"correct_response":"1","response":"2 - somewhat","response_history":["2 - somewhat"],"rt":3150,"trial_type":"question","trial_index":0,"trial_index_global":81,"time_elapsed":1387704,"internal_chunk_id":"0-0.15-0"},{"question":"Do  you fee l you understood the concepts in this HIT?","response_type":"multi","response_choices":["1 - not at all","2 - somewhat","3 - definitely"],"correct_response":"1","response":"2 - somewhat","response_history":["2 - somewhat"],"rt":2585,"trial_type":"question","trial_index":0,"trial_index_global":82,"time_elapsed":1390290,"internal_chunk_id":"0-0.15-0"},{"question":"Did you enjoy this HIT?","response_type":"multi","response_choices":["1 - not at all","2 - somewhat","3 - definitely"],"correct_response":"1","response":"2 - somewhat","response_history":["2 - somewhat"],"rt":2845,"trial_type":"question","trial_index":0,"trial_index_global":83,"time_elapsed":1393136,"internal_chunk_id":"0-0.15-0"},{"question":"What is your gender?","response_type":"multi","response_choices":["Female","Male","Other"],"correct_response":"","response":"Female","response_history":["Female"],"rt":1991,"trial_type":"question","trial_index":0,"trial_index_global":84,"time_elapsed":1395128,"internal_chunk_id":"0-0.1 5-0"},{"question":"What is/are your native language(s)? (The languages spoken in your household when you were a child.)","response_type":"free","response_choices":[],"correct_response":"","response":"English","response_history":["English"],"rt":6678,"trial_type":"question","trial_index":0,"trial_index_global":85,"time_elapsed":1401806,"internal_chunk_id":"0-0.15-0"},{"question":"Did you use pen and paper at any point on this HIT?","response_type":"free","response_choices":[],"correct_response":"","response":"No, I did not use a pen or paper.","response_history":["No, I did not use a pen or paper."],"rt":5930,"trial_type":"question","trial_index":0,"trial_index_global":86,"time_elapsed":1407737,"internal_chunk_id":"0-0.15-0"},{"question":"Do you have any comments on this HIT?","response_type":"free","response_choices":[],"correct_response":"","response":"Thanks for a positive experience.","response_history":["Thanks for a positive experience."],"rt":9012,"trial_type":"questio n","trial_index":0,"trial_index_global":87,"time_elapsed":1416750,"internal_chunk_id":"0-0.15-0"}]