[{"nsides":6,"instructions":"Let's define a new operation <img src=./images/hexagon_symbol.png style=width:14px;height:14px>. This operation will give us a way of combining two of the numbers 0, 1, 2, 3, 4, 5 to get another one of them back. Consider the hexagon at the right, where I've labeled each point with one of the numbers. To perform <img src=./images/hexagon_symbol.png style=width:14px;height:14px>, you can use the interactive diagram on the right, or perform the operation in your mind. Point the arrow at the first number on the hexagon by clicking, then click (or click and drag) to move the arrow the second number of points clockwise around the hexagon. The number the arrow arrives at is your result. (The operation is called <img src=./images/hexagon_symbol.png style=width:14px;height:14px> because it uses the hexagon, which has 6 sides.) <br /><br />For example, 3 <img src=./images/hexagon_symbol.png style=width:14px;height:14px> 5 =  2, becau se 5 steps clockwise from 3 on the hexagon brings us to 2. So 3 <img src=./images/hexagon_symbol.png style=width:14px;height:14px> 5 = 2.<br /><br />Similarly, 1 <img src=./images/hexagon_symbol.png style=width:14px;height:14px> 4 = 5, because 4 steps clockwise from 1 brings us to 5. <br /><br />Click Continue when you're ready to move on.","orientation_history":[0,[3.2192141623271864,3.2192141623271864,3.2192141623271864,3.2192141623271864,3.2192141623271864,3.2192141623271864,3.2192141623271864,3.2192141623271864,3.2192141623271864,3.2192141623271864,3.141592653589793],[5.242946867414137,5.242946867414137,5.242946867414137,5.242946867414137,5.242946867414137,5.242946867414137,5.242946867414137,5.242946867414137,5.242946867414137,5.242946867414137,5.242946867414137,5.235987755982988]],"rt":75019,"trial_type":"polygon-arrow-instructions","trial_index":0,"trial_index_global":1,"time_elapsed":144848,"internal_chunk_id":"0-0"},{"nsides":6,"instructions":"Do  you see  how <img src=./images/hexagon_symbol.png style=width:14px;height:14px> works? By labeling the points of the hexagon with the numbers from 0 to 5, we ensure that when we combine two numbers under <img src=./images/hexagon_symbol.png style=width:14px;height:14px>, we only produce numbers between 0 and 5.<br /><br />Click Continue when you are ready to move on.","orientation_history":[0],"rt":6180,"trial_type":"polygon-arrow-instructions","trial_index":0,"trial_index_global":2,"time_elapsed":151039,"internal_chunk_id":"0-0"},{"nsides":6,"question":"Now try one on your own! What is 4 <img src=./images/hexagon_symbol.png style=width:14px;height:14px> 5? <br /><br /> (Remember, to perform <img src=./images/hexagon_symbol.png style=width:14px;height:14px>, you can use the interactive diagram on the right, or perform the operation in your mind. Point the arrow at the first number on the hexagon, then move the arrow the second number of points cloc kwise ar ound the hexagon. The number the arrow arrives at is your result.)","response_type":"free","response_choices":[],"correct_response":"3","response":"3","orientation_history":[[0]],"response_history":["3"],"rt":15921,"trial_type":"polygon-arrow-question","trial_index":0,"trial_index_global":3,"time_elapsed":166968,"internal_chunk_id":"0-0.3-0"},{"nsides":6,"feedback":"Correct! 4 <img src=./images/hexagon_symbol.png style=width:14px;height:14px> 5 = 3 because 5 steps clockwise on the hexagon from 4 brings us to 3","orientation_history":[0],"rt":1494,"trial_type":"polygon-arrow-feedback","trial_index":0,"trial_index_global":4,"time_elapsed":168470,"internal_chunk_id":"0-0.3-0"},{"nsides":6,"question":"What is 3 <img src=./images/hexagon_symbol.png style=width:14px;height:14px> 2? <br /><br /> (Remember, to perform <img src=./images/hexagon_symbol.png style=width:14px;height:14px>, you can use the interactive diagram on the right, or perform the operation  in your  mind. Point the arrow at the first number on the hexagon, then move the arrow the second number of points clockwise around the hexagon. The number the arrow arrives at is your result.)","response_type":"free","response_choices":[],"correct_response":"5","response":"5","orientation_history":[[0]],"response_history":["5"],"rt":7813,"trial_type":"polygon-arrow-question","trial_index":0,"trial_index_global":5,"time_elapsed":176285,"internal_chunk_id":"0-0.3-0"},{"nsides":6,"feedback":"Correct! 3 <img src=./images/hexagon_symbol.png style=width:14px;height:14px> 2 = 5 because 2 steps clockwise on the hexagon from 3 brings us to 5","orientation_history":[0],"rt":1447,"trial_type":"polygon-arrow-feedback","trial_index":0,"trial_index_global":6,"time_elapsed":177734,"internal_chunk_id":"0-0.3-0"},{"nsides":6,"question":"What is 1 <img src=./images/hexagon_symbol.png style=width:14px;height:14px> 5? <br /><br /> (Remember, to perform <img src=./images/hexagon_symbol .png s tyle=width:14px;height:14px>, you can use the interactive diagram on the right, or perform the operation in your mind. Point the arrow at the first number on the hexagon, then move the arrow the second number of points clockwise around the hexagon. The number the arrow arrives at is your result.)","response_type":"free","response_choices":[],"correct_response":"0","response":"0","orientation_history":[[0]],"response_history":["0"],"rt":7574,"trial_type":"polygon-arrow-question","trial_index":0,"trial_index_global":7,"time_elapsed":185309,"internal_chunk_id":"0-0.3-0"},{"nsides":6,"feedback":"Correct! 1 <img src=./images/hexagon_symbol.png style=width:14px;height:14px> 5 = 0 because 5 steps clockwise on the hexagon from 1 brings us to 0","orientation_history":[0],"rt":1396,"trial_type":"polygon-arrow-feedback","trial_index":0,"trial_index_global":8,"time_elapsed":186708,"internal_chunk_id":"0-0.3-0"},{"nsides":6,"question":"What is 1 <img src=./images/hexagon_sy mbol.png  style=width:14px;height:14px> 1? <br /><br /> (Remember, to perform <img src=./images/hexagon_symbol.png style=width:14px;height:14px>, you can use the interactive diagram on the right, or perform the operation in your mind. Point the arrow at the first number on the hexagon, then move the arrow the second number of points clockwise around the hexagon. The number the arrow arrives at is your result.)","response_type":"free","response_choices":[],"correct_response":"2","response":"2","orientation_history":[[0]],"response_history":["2"],"rt":15188,"trial_type":"polygon-arrow-question","trial_index":0,"trial_index_global":9,"time_elapsed":201899,"internal_chunk_id":"0-0.3-0"},{"nsides":6,"feedback":"Correct! 1 <img src=./images/hexagon_symbol.png style=width:14px;height:14px> 1 = 2 because 1 step clockwise on the hexagon from 1 brings us to 2","orientation_history":[0],"rt":2651,"trial_type":"polygon-arrow-feedback","trial_index":0,"trial_index_global":10,"time_elapsed":204555,"internal_chunk_id":"0-0.3-0"},{"nsides":6,"question":"What is 3 <img src=./images/hexagon_symbol.png style=width:14px;height:14px> 0? <br /><br /> (Remember, to perform <img src=./images/hexagon_symbol.png style=width:14px;height:14px>, you can use the interactive diagram on the right, or perform the operation in your mind. Point the arrow at the first number on the hexagon, then move the arrow the second number of points clockwise around the hexagon. The number the arrow arrives at is your result.)","response_type":"free","response_choices":[],"correct_response":"3","response":"3","orientation_history":[[0]],"response_history":["3"],"rt":5097,"trial_type":"polygon-arrow-question","trial_index":0,"trial_index_global":11,"time_elapsed":209654,"internal_chunk_id":"0-0.3-0"},{"nsides":6,"feedback":"Correct! 3 <img src=./images/hexagon_symbol.png style=width:14px;height:14px> 0 = 3 because 0 steps clockwise on the hexagon from 3 brings us  to 3","orientation_history":[0],"rt":1216,"trial_type":"polygon-arrow-feedback","trial_index":0,"trial_index_global":12,"time_elapsed":210874,"internal_chunk_id":"0-0.3-0"},{"nsides":6,"question":"What is 4 <img src=./images/hexagon_symbol.png style=width:14px;height:14px> 4? <br /><br /> (Remember, to perform <img src=./images/hexagon_symbol.png style=width:14px;height:14px>, you can use the interactive diagram on the right, or perform the operation in your mind. Point the arrow at the first number on the hexagon, then move the arrow the second number of points clockwise around the hexagon. The number the arrow arrives at is your result.)","response_type":"free","response_choices":[],"correct_response":"2","response":"2","orientation_history":[[0]],"response_history":["2"],"rt":5499,"trial_type":"polygon-arrow-question","trial_index":0,"trial_index_global":13,"time_elapsed":216374,"internal_chunk_id":"0-0.3-0"},{"nsides":6,"feedback":"Correct! 4 <img src=./images/ hexagon_ symbol.png style=width:14px;height:14px> 4 = 2 because 4 steps clockwise on the hexagon from 4 brings us to 2","orientation_history":[0],"rt":1082,"trial_type":"polygon-arrow-feedback","trial_index":0,"trial_index_global":14,"time_elapsed":217458,"internal_chunk_id":"0-0.3-0"},{"nsides":6,"question":"What is 1 <img src=./images/hexagon_symbol.png style=width:14px;height:14px> 3? <br /><br /> (Remember, to perform <img src=./images/hexagon_symbol.png style=width:14px;height:14px>, you can use the interactive diagram on the right, or perform the operation in your mind. Point the arrow at the first number on the hexagon, then move the arrow the second number of points clockwise around the hexagon. The number the arrow arrives at is your result.)","response_type":"free","response_choices":[],"correct_response":"4","response":"4","orientation_history":[[0]],"response_history":["4"],"rt":4243,"trial_type":"polygon-arrow-question","trial_index":0,"trial_index_global":15,"time_elapsed":221703,"internal_chunk_id":"0-0.3-0"},{"nsides":6,"feedback":"Correct! 1 <img src=./images/hexagon_symbol.png style=width:14px;height:14px> 3 = 4 because 3 steps clockwise on the hexagon from 1 brings us to 4","orientation_history":[0],"rt":1189,"trial_type":"polygon-arrow-feedback","trial_index":0,"trial_index_global":16,"time_elapsed":222894,"internal_chunk_id":"0-0.3-0"},{"nsides":6,"question":"What is 4 <img src=./images/hexagon_symbol.png style=width:14px;height:14px> 3? <br /><br /> (Remember, to perform <img src=./images/hexagon_symbol.png style=width:14px;height:14px>, you can use the interactive diagram on the right, or perform the operation in your mind. Point the arrow at the first number on the hexagon, then move the arrow the second number of points clockwise around the hexagon. The number the arrow arrives at is your result.)","response_type":"free","response_choices":[],"correct_response":"1","response":"1","orientation_history":[[0]],"response_history":["1"],"rt":5312,"trial_type":"polygon-arrow-question","trial_index":0,"trial_index_global":17,"time_elapsed":228208,"internal_chunk_id":"0-0.3-0"},{"nsides":6,"feedback":"Correct! 4 <img src=./images/hexagon_symbol.png style=width:14px;height:14px> 3 = 1 because 3 steps clockwise on the hexagon from 4 brings us to 1","orientation_history":[0],"rt":1153,"trial_type":"polygon-arrow-feedback","trial_index":0,"trial_index_global":18,"time_elapsed":229364,"internal_chunk_id":"0-0.3-0"},{"nsides":6,"question":"What is 0 <img src=./images/hexagon_symbol.png style=width:14px;height:14px> 5? <br /><br /> (Remember, to perform <img src=./images/hexagon_symbol.png style=width:14px;height:14px>, you can use the interactive diagram on the right, or perform the operation in your mind. Point the arrow at the first number on the hexagon, then move the arrow the second number of points clockwise around the hexagon. The number the arrow arri ves at i s your result.)","response_type":"free","response_choices":[],"correct_response":"5","response":"5","orientation_history":[[0]],"response_history":["5"],"rt":5384,"trial_type":"polygon-arrow-question","trial_index":0,"trial_index_global":19,"time_elapsed":234750,"internal_chunk_id":"0-0.3-0"},{"nsides":6,"feedback":"Correct! 0 <img src=./images/hexagon_symbol.png style=width:14px;height:14px> 5 = 5 because 5 steps clockwise on the hexagon from 0 brings us to 5","orientation_history":[0],"rt":1285,"trial_type":"polygon-arrow-feedback","trial_index":0,"trial_index_global":20,"time_elapsed":236040,"internal_chunk_id":"0-0.3-0"},{"nsides":6,"question":"What is 2 <img src=./images/hexagon_symbol.png style=width:14px;height:14px> 5? <br /><br /> (Remember, to perform <img src=./images/hexagon_symbol.png style=width:14px;height:14px>, you can use the interactive diagram on the right, or perform the operation in your mind. Point the arrow at the first number  on the h exagon, then move the arrow the second number of points clockwise around the hexagon. The number the arrow arrives at is your result.)","response_type":"free","response_choices":[],"correct_response":"1","response":"1","orientation_history":[[0]],"response_history":["1"],"rt":7844,"trial_type":"polygon-arrow-question","trial_index":0,"trial_index_global":21,"time_elapsed":243888,"internal_chunk_id":"0-0.3-0"},{"nsides":6,"feedback":"Correct! 2 <img src=./images/hexagon_symbol.png style=width:14px;height:14px> 5 = 1 because 5 steps clockwise on the hexagon from 2 brings us to 1","orientation_history":[0],"rt":988,"trial_type":"polygon-arrow-feedback","trial_index":0,"trial_index_global":22,"time_elapsed":244881,"internal_chunk_id":"0-0.3-0"},{"nsides":6,"instructions":"Now we're going to discuss a couple special properties of this new operation, <img src=./images/hexagon_symbol.png style=width:14px;height:14px> that we've learned. First, notice that the number  0 behav es in a special way under <img src=./images/hexagon_symbol.png style=width:14px;height:14px>. Whenever we combine 0 with anything else, we get that same thing back. We'll say that 0 is the <i>identity</i> under <img src=./images/hexagon_symbol.png style=width:14px;height:14px>, because when you combine it with something it gives you that identical thing back.","orientation_history":[0],"rt":15138,"trial_type":"polygon-arrow-instructions","trial_index":0,"trial_index_global":23,"time_elapsed":260028,"internal_chunk_id":"0-0"},{"nsides":6,"instructions":"Now that we know 0 is the identity under <img src=./images/hexagon_symbol.png style=width:14px;height:14px>, we're going to make a new definition. We'll say that the <i>inverse</i> of a number is the element that you combine with it to produce the identity under our operation. For example, 5 <img src=./images/hexagon_symbol.png style=width:14px;height:14px> 1 = 0, so we say 1 is the inverse of 5  under < img src=./images/hexagon_symbol.png style=width:14px;height:14px>, (remember 0 is the identity under <img src=./images/hexagon_symbol.png style=width:14px;height:14px>). Similarly, 3 is its own inverse under <img src=./images/hexagon_symbol.png style=width:14px;height:14px>, because 3 <img src=./images/hexagon_symbol.png style=width:14px;height:14px> 3 = 0.","orientation_history":[0],"rt":53660,"trial_type":"polygon-arrow-instructions","trial_index":0,"trial_index_global":24,"time_elapsed":313690,"internal_chunk_id":"0-0"},{"nsides":6,"question":"Now you try! What is the inverse of 4 under <img src=./images/hexagon_symbol.png style=width:14px;height:14px>? <br /><br /> (Remember, the inverse of an element is the thing which you combine with it to produce the identity.)","response_type":"free","response_choices":[],"correct_response":"2","response":"2","orientation_history":[[0]],"response_history":["2"],"rt":7491,"trial_type":"polygon- arrow-qu estion","trial_index":0,"trial_index_global":25,"time_elapsed":321185,"internal_chunk_id":"0-0.7-0"},{"nsides":6,"feedback":"Correct! The inverse of 4 under <img src=./images/hexagon_symbol.png style=width:14px;height:14px> is 2 because 4 <img src=./images/hexagon_symbol.png style=width:14px;height:14px> 2 = 0, and 0 is the identity under <img src=./images/hexagon_symbol.png style=width:14px;height:14px>.","orientation_history":[0],"rt":1035,"trial_type":"polygon-arrow-feedback","trial_index":0,"trial_index_global":26,"time_elapsed":322226,"internal_chunk_id":"0-0.7-0"},{"nsides":6,"question":"What is the inverse of 1 under <img src=./images/hexagon_symbol.png style=width:14px;height:14px>? <br /><br /> (Remember, the inverse of an element is the thing which you combine with it to produce the identity.)","response_type":"free","response_choices":[],"correct_response":"5","response":"5","orientation_history":[[0]],"response_history":["5"],"rt":7032,"trial_type":"polygon-arrow-question","trial_index":0,"trial_index_global":27,"time_elapsed":329259,"internal_chunk_id":"0-0.7-0"},{"nsides":6,"feedback":"Correct! The inverse of 1 under <img src=./images/hexagon_symbol.png style=width:14px;height:14px> is 5 because 1 <img src=./images/hexagon_symbol.png style=width:14px;height:14px> 5 = 0, and 0 is the identity under <img src=./images/hexagon_symbol.png style=width:14px;height:14px>.","orientation_history":[0],"rt":1011,"trial_type":"polygon-arrow-feedback","trial_index":0,"trial_index_global":28,"time_elapsed":330271,"internal_chunk_id":"0-0.7-0"},{"nsides":6,"question":"What is the inverse of 3 under <img src=./images/hexagon_symbol.png style=width:14px;height:14px>? <br /><br /> (Remember, the inverse of an element is the thing which you combine with it to produce the identity.)","response_type":"free","response_choices":[],"correct_response":"3","response":"3","orientation_history":[[0]],"response_history":["3"],"rt":5554,"trial_type":"polygon-arrow-question","trial_index":0,"trial_index_global":29,"time_elapsed":335826,"internal_chunk_id":"0-0.7-0"},{"nsides":6,"feedback":"Correct! The inverse of 3 under <img src=./images/hexagon_symbol.png style=width:14px;height:14px> is 3 because 3 <img src=./images/hexagon_symbol.png style=width:14px;height:14px> 3 = 0, and 0 is the identity under <img src=./images/hexagon_symbol.png style=width:14px;height:14px>.","orientation_history":[0],"rt":1392,"trial_type":"polygon-arrow-feedback","trial_index":0,"trial_index_global":30,"time_elapsed":337221,"internal_chunk_id":"0-0.7-0"},{"nsides":6,"question":"What is the inverse of 2 under <img src=./images/hexagon_symbol.png style=width:14px;height:14px>? <br /><br /> (Remember, the inverse of an element is the thing which you combine with it to produce the identity.)","response_type":"free","response_choices":[],"correct_response":"4","response":"4","orientation_history":[[0]],"response_history":["4"],"rt":5502,"trial_type":"polygon-arrow-question","trial_index":0,"trial_index_global":31,"time_elapsed":342725,"internal_chunk_id":"0-0.7-0"},{"nsides":6,"feedback":"Correct! The inverse of 2 under <img src=./images/hexagon_symbol.png style=width:14px;height:14px> is 4 because 2 <img src=./images/hexagon_symbol.png style=width:14px;height:14px> 4 = 0, and 0 is the identity under <img src=./images/hexagon_symbol.png style=width:14px;height:14px>.","orientation_history":[0],"rt":975,"trial_type":"polygon-arrow-feedback","trial_index":0,"trial_index_global":32,"time_elapsed":343703,"internal_chunk_id":"0-0.7-0"},{"nsides":6,"question":"What is the inverse of 0 under <img src=./images/hexagon_symbol.png style=width:14px;height:14px>? <br /><br /> (Remember, the inverse of an element is the thing which you combine with it to produce the identity.)","response_type":"free","response_choices":[],"correct_response":"0","response":"0","orientation_history":[[0]],"response_history":["0"],"rt":10976,"trial_type":"polygon-arrow-question","trial_index":0,"trial_index_global":33,"time_elapsed":354681,"internal_chunk_id":"0-0.7-0"},{"nsides":6,"feedback":"Correct! The inverse of 0 under <img src=./images/hexagon_symbol.png style=width:14px;height:14px> is 0 because 0 <img src=./images/hexagon_symbol.png style=width:14px;height:14px> 0 = 0, and 0 is the identity under <img src=./images/hexagon_symbol.png style=width:14px;height:14px>.","orientation_history":[0],"rt":989,"trial_type":"polygon-arrow-feedback","trial_index":0,"trial_index_global":34,"time_elapsed":355677,"internal_chunk_id":"0-0.7-0"},{"instructions":"It is also possible to successively apply <img src=./images/hexagon_symbol.png style=width:14px;height:14px>, and the operation can simply be performed starting with the left-most pair. For example, 2 <img src=./images/hexagon_symbol.png style=width: 14px;hei ght:14px> 3 <img src=./images/hexagon_symbol.png style=width:14px;height:14px> 4 = 5 <img src=./images/hexagon_symbol.png style=width:14px;height:14px> 4 = 3.","rt":19199,"trial_type":"instructions","trial_index":0,"trial_index_global":35,"time_elapsed":374879,"internal_chunk_id":"0-0"},{"nsides":6,"instructions":"We have one last definition to learn today. Let's start with an example. Under our operation <img src=./images/hexagon_symbol.png style=width:14px;height:14px> we can make every other number using just 1: 2 = 1 <img src=./images/hexagon_symbol.png style=width:14px;height:14px> 1, 3 = 1 <img src=./images/hexagon_symbol.png style=width:14px;height:14px> 1 <img src=./images/hexagon_symbol.png style=width:14px;height:14px> 1, 4 = 1 <img src=./images/hexagon_symbol.png style=width:14px;height:14px> 1 <img src=./images/hexagon_symbol.png style=width:14px;height:14px> 1 <img src=./images/hexagon_symbol.pn g styl e=width:14px;height:14px> 1, 5 = 1 <img src=./images/hexagon_symbol.png style=width:14px;height:14px> 1 <img src=./images/hexagon_symbol.png style=width:14px;height:14px> 1 <img src=./images/hexagon_symbol.png style=width:14px;height:14px> 1 <img src=./images/hexagon_symbol.png style=width:14px;height:14px> 1, and 0 = 1 <img src=./images/hexagon_symbol.png style=width:14px;height:14px> 1 <img src=./images/hexagon_symbol.png style=width:14px;height:14px> 1 <img src=./images/hexagon_symbol.png style=width:14px;height:14px> 1 <img src=./images/hexagon_symbol.png style=width:14px;height:14px> 1 <img src=./images/hexagon_symbol.png style=width:14px;height:14px> 1. Because 1 can make every other element under <img src=./images/hexagon_symbol.png style=width:14px;height:14px>, we say that 1 is a <i>generator</i> under <img src=./images/hexagon_symbol.png style=width:14px;height:14px>. <br /> <br /> H owever, 2 is not a generator under <img src=./images/hexagon_symbol.png style=width:14px;height:14px>, because 4 = 2 <img src=./images/hexagon_symbol.png style=width:14px;height:14px> 2, and 0 = 2 <img src=./images/hexagon_symbol.png style=width:14px;height:14px> 2 <img src=./images/hexagon_symbol.png style=width:14px;height:14px> 2, but there is no way to make 1, 3, or 5 using just 2.","orientation_history":[0],"rt":83541,"trial_type":"polygon-arrow-instructions","trial_index":0,"trial_index_global":36,"time_elapsed":458424,"internal_chunk_id":"0-0"},{"nsides":6,"question":"Now you try! Is 3 a generator under <img src=./images/hexagon_symbol.png style=width:14px;height:14px>? <br /><br /> (Remember, a generator is an element which can make every other element.)","response_type":"multi","response_choices":["Yes","No"],"correct_response":"No","response":"No","orientation_history":[[0]],"response_history":["No"],"rt":7872,"trial_type":"p olygon-a rrow-question","trial_index":0,"trial_index_global":37,"time_elapsed":466306,"internal_chunk_id":"0-0.10-0"},{"nsides":6,"feedback":"Correct! 3 is not a generator under <img src=./images/hexagon_symbol.png style=width:14px;height:14px>, because 3 = 3, 0 = 3 <img src=./images/hexagon_symbol.png style=width:14px;height:14px> 3, but there is no way to make 1, 2, 4, or 5 using just 3.","orientation_history":[0],"rt":1328,"trial_type":"polygon-arrow-feedback","trial_index":0,"trial_index_global":38,"time_elapsed":467640,"internal_chunk_id":"0-0.10-0"},{"nsides":6,"question":"Is 5 a generator under <img src=./images/hexagon_symbol.png style=width:14px;height:14px>? <br /><br /> (Remember, a generator is an element which can make every other element.)","response_type":"multi","response_choices":["Yes","No"],"correct_response":"Yes","response":"No","orientation_history":[[0]],"response_history":["No"],"rt":5719,"trial_type":"polygon-arrow-question","trial_index":0,"trial_index_global":39,"time_elapsed":473363,"internal_chunk_id":"0-0.10-0"},{"nsides":6,"feedback":"Sorry, that's incorrect. 5 is a generator under <img src=./images/hexagon_symbol.png style=width:14px;height:14px>, because 5 = 5, 4 = 5 <img src=./images/hexagon_symbol.png style=width:14px;height:14px> 5, 3 = 5 <img src=./images/hexagon_symbol.png style=width:14px;height:14px> 5 <img src=./images/hexagon_symbol.png style=width:14px;height:14px> 5, 2 = 5 <img src=./images/hexagon_symbol.png style=width:14px;height:14px> 5 <img src=./images/hexagon_symbol.png style=width:14px;height:14px> 5 <img src=./images/hexagon_symbol.png style=width:14px;height:14px> 5, 1 = 5 <img src=./images/hexagon_symbol.png style=width:14px;height:14px> 5 <img src=./images/hexagon_symbol.png style=width:14px;height:14px> 5 <img src=./images/hexagon_symbol.png style=width:14px;height:14px> 5 <img src=./images/hexagon_sy mbol.png  style=width:14px;height:14px> 5, and 0 = 5 <img src=./images/hexagon_symbol.png style=width:14px;height:14px> 5 <img src=./images/hexagon_symbol.png style=width:14px;height:14px> 5 <img src=./images/hexagon_symbol.png style=width:14px;height:14px> 5 <img src=./images/hexagon_symbol.png style=width:14px;height:14px> 5 <img src=./images/hexagon_symbol.png style=width:14px;height:14px> 5, so you can make all of the numbers under <img src=./images/hexagon_symbol.png style=width:14px;height:14px> using 5","orientation_history":[0],"rt":1300,"trial_type":"polygon-arrow-feedback","trial_index":0,"trial_index_global":40,"time_elapsed":474667,"internal_chunk_id":"0-0.10-0"},{"nsides":6,"question":"Is 4 a generator under <img src=./images/hexagon_symbol.png style=width:14px;height:14px>? <br /><br /> (Remember, a generator is an element which can make every other element.)","response_type":"multi","response_choices":["Yes","No"],"correct_response":"No","response":"Yes","orientation_history":[[0]],"response_history":["Yes"],"rt":3782,"trial_type":"polygon-arrow-question","trial_index":0,"trial_index_global":41,"time_elapsed":478452,"internal_chunk_id":"0-0.10-0"},{"nsides":6,"feedback":"Sorry, that's incorrect. 4 is not a generator under <img src=./images/hexagon_symbol.png style=width:14px;height:14px>, because 4 = 4, 2 = 4 <img src=./images/hexagon_symbol.png style=width:14px;height:14px> 4, and 0 = 4 <img src=./images/hexagon_symbol.png style=width:14px;height:14px> 4 <img src=./images/hexagon_symbol.png style=width:14px;height:14px> 4, but there is no way to make 1, 3, or 5 using just 4.","orientation_history":[0],"rt":1290,"trial_type":"polygon-arrow-feedback","trial_index":0,"trial_index_global":42,"time_elapsed":479749,"internal_chunk_id":"0-0.10-0"},{"nsides":6,"question":"Is 0 a generator under <img src=./images/hexagon_symbol.png style=width:14px;height: 14px>?  <br /><br /> (Remember, a generator is an element which can make every other element.)","response_type":"multi","response_choices":["Yes","No"],"correct_response":"No","response":"No","orientation_history":[[0]],"response_history":["No"],"rt":9160,"trial_type":"polygon-arrow-question","trial_index":0,"trial_index_global":43,"time_elapsed":488913,"internal_chunk_id":"0-0.10-0"},{"nsides":6,"feedback":"Correct! 0 is not a generator under <img src=./images/hexagon_symbol.png style=width:14px;height:14px>, because 0 = 0, but there is no way to make 1, 2, 3, 4, or 5 using just 0.","orientation_history":[0],"rt":1088,"trial_type":"polygon-arrow-feedback","trial_index":0,"trial_index_global":44,"time_elapsed":490006,"internal_chunk_id":"0-0.10-0"},{"nsides":9,"instructions":"Now we are going to ask you some questions about a new operation, <img src=./images/nonagon_symbol.png style=width:14px;height:14px>, on the numbers 0, 1, 2, 3, 4, 5, 6, 7, 8. It works exactly  like <im g src=./images/hexagon_symbol.png style=width:14px;height:14px>, except now you use the nonagon shown at the right. <br /><br />Do you see how <img src=./images/nonagon_symbol.png style=width:14px;height:14px> works just like <img src=./images/hexagon_symbol.png style=width:14px;height:14px>? By labeling the points of the nonagon with the numbers from 0 to 8, we ensure that when we combine two numbers under <img src=./images/nonagon_symbol.png style=width:14px;height:14px>, we only produce numbers between 0 and 8. <br /><br />We'll give you one practice question with feedback to make sure you understand the new operation. After that, try to complete the remaining questions as accurately as possible.","orientation_history":[0],"rt":15127,"trial_type":"polygon-arrow-instructions","trial_index":0,"trial_index_global":45,"time_elapsed":505137,"internal_chunk_id":"0-0"},{"nsides":9,"question":"Practice: What is 5 <img src=./images/nonagon_symbol. png st yle=width:14px;height:14px> 5?","response_type":"free","response_choices":[],"correct_response":"1","response":"1","orientation_history":[[0]],"response_history":["1"],"rt":8716,"trial_type":"polygon-arrow-question","trial_index":0,"trial_index_global":46,"time_elapsed":513858,"internal_chunk_id":"0-0.12-0"},{"nsides":9,"feedback":"Correct! 5 <img src=./images/nonagon_symbol.png style=width:14px;height:14px> 5 = 1 because 5 steps clockwise on the nonagon from 5 brings us to 1","orientation_history":[0],"rt":1193,"trial_type":"polygon-arrow-feedback","trial_index":0,"trial_index_global":47,"time_elapsed":515054,"internal_chunk_id":"0-0.12-0"},{"nsides":9,"question":"What is 3 <img src=./images/nonagon_symbol.png style=width:14px;height:14px> 3?","response_type":"free","response_choices":[],"correct_response":"6","response":"6","orientation_history":[[0]],"response_history":["6"],"rt":4672,"trial_type":"polygon-arrow-question","trial_index":0,"trial_index_global":48,"time_elapsed":519727,"internal_chunk_id":"0-0.12-0"},{"nsides":9,"question":"What is 7 <img src=./images/nonagon_symbol.png style=width:14px;height:14px> 4?","response_type":"free","response_choices":[],"correct_response":"2","response":"2","orientation_history":[[0]],"response_history":["2"],"rt":9890,"trial_type":"polygon-arrow-question","trial_index":0,"trial_index_global":49,"time_elapsed":529618,"internal_chunk_id":"0-0.12-0"},{"nsides":9,"question":"What is 1 <img src=./images/nonagon_symbol.png style=width:14px;height:14px> 8?","response_type":"free","response_choices":[],"correct_response":"0","response":"0","orientation_history":[[0]],"response_history":["0"],"rt":8672,"trial_type":"polygon-arrow-question","trial_index":0,"trial_index_global":50,"time_elapsed":538294,"internal_chunk_id":"0-0.12-0"},{"nsides":9,"question":"What is 5 <img src=./images/nonagon_symbol.png style=width:14px;height:14px> 4?","response_type":"free","response_choices":[],"correct_response":"0","response":"0","orientation_history":[[0]],"response_history":["0"],"rt":5819,"trial_type":"polygon-arrow-question","trial_index":0,"trial_index_global":51,"time_elapsed":544115,"internal_chunk_id":"0-0.12-0"},{"nsides":9,"question":"What is 6 <img src=./images/nonagon_symbol.png style=width:14px;height:14px> 6?","response_type":"free","response_choices":[],"correct_response":"3","response":"3","orientation_history":[[0]],"response_history":["3"],"rt":15907,"trial_type":"polygon-arrow-question","trial_index":0,"trial_index_global":52,"time_elapsed":560023,"internal_chunk_id":"0-0.12-0"},{"nsides":9,"question":"What is 4 <img src=./images/nonagon_symbol.png style=width:14px;height:14px> 1? Please explain in words how you got your answer.","response_type":"free","response_choices":[],"correct_response":"","response":"5 is 1 past 4 on the diagram.","orientation_history":[[0]],"response_history":["5 is 1 past 4 on the diagram."],"rt":25473,"trial_type":"polygon-arrow-question","trial_index":0,"trial_index_global":53,"time_elapsed":585501,"internal_chunk_id":"0-0.12-0"},{"nsides":9,"question":"What is 8 <img src=./images/nonagon_symbol.png style=width:14px;height:14px> 4? Please explain in words how you got your answer.","response_type":"free","response_choices":[],"correct_response":"","response":"3 is 4 after 8 on the diagram.","orientation_history":[[0]],"response_history":["3 is 4 after 8 on the diagram."],"rt":19193,"trial_type":"polygon-arrow-question","trial_index":0,"trial_index_global":54,"time_elapsed":604697,"internal_chunk_id":"0-0.12-0"},{"nsides":9,"question":"What is the identity under <img src=./images/nonagon_symbol.png style=width:14px;height:14px>? Please explain in words how you got your answer.","response_type":"free","response_choices":[],"correct_response":"0","response":"0, I can't remember how to find the identity.","orientation_history":[[0]],"response_history":["0,  can'","0, I  can't r emember ha","0, I can't remember how to find the identif","0, I can't remember how to find the identity."],"rt":76876,"trial_type":"polygon-arrow-question","trial_index":0,"trial_index_global":55,"time_elapsed":681583,"internal_chunk_id":"0-0.12-0"},{"nsides":9,"question":"What is the inverse of 5 under <img src=./images/nonagon_symbol.png style=width:14px;height:14px>?","response_type":"free","response_choices":[],"correct_response":"4","response":"4, I'm not sure, I can't remember how to find it.","orientation_history":[[0]],"response_history":["I can't re","4, I'm not sure. ","4, I'm not sure.","4, I'm not sure, I can't remember how to find it."],"rt":22057,"trial_type":"polygon-arrow-question","trial_index":0,"trial_index_global":56,"time_elapsed":703646,"internal_chunk_id":"0-0.12-0"},{"nsides":9,"question":"What is the inverse of 2 under <img src=./images/nonagon_symbol.png style=width:14px;height:14px>?","response_type":"free","response_choices":[],"correct_response":"7","response":"7","orientation_history":[[0]],"response_history":["I ","I","7"],"rt":13029,"trial_type":"polygon-arrow-question","trial_index":0,"trial_index_global":57,"time_elapsed":716678,"internal_chunk_id":"0-0.12-0"},{"nsides":9,"question":"What is the inverse of 0 under <img src=./images/nonagon_symbol.png style=width:14px;height:14px>?","response_type":"free","response_choices":[],"correct_response":"0","response":"0","orientation_history":[[0]],"response_history":["0"],"rt":3337,"trial_type":"polygon-arrow-question","trial_index":0,"trial_index_global":58,"time_elapsed":720022,"internal_chunk_id":"0-0.12-0"},{"nsides":9,"question":"What is the inverse of 3 under <img src=./images/nonagon_symbol.png style=width:14px;height:14px>? Please explain in words how you got your answer.","response_type":"free","response_choices":[],"correct_response":"","response":"6, I don't remember how to figure it.","orientation_history":[[0]],"response_history":["6, I do n't remember how to figure it."],"rt":17565,"trial_type":"polygon-arrow-question","trial_index":0,"trial_index_global":59,"time_elapsed":737595,"internal_chunk_id":"0-0.12-0"},{"nsides":9,"question":"Is 2 a generator under <img src=./images/nonagon_symbol.png style=width:14px;height:14px>? Please explain in words how you got your answer.","response_type":"free","response_choices":[],"correct_response":"","response":"I  didn't understand this the first time, I don't really know. ","orientation_history":[[0]],"response_history":["I  don't ","I  don't","I  don'","I  don","I  do","I  didn't understand this the first time, I don't really khnow","I  didn't understand this the first time, I don't really khno","I  didn't understand this the first time, I don't really khn","I  didn't understand this the first time, I don't really kh","I  didn't understand this the first time, I don't really know. "],"rt":20182,"trial_type":"polygon-arrow-question","trial_index":0,"trial_index_global":60,"time_elapsed":757783,"internal_chunk_id":"0-0.12-0"},{"nsides":9,"question":"Is 3 a generator under <img src=./images/nonagon_symbol.png style=width:14px;height:14px>? Please explain in words how you got your answer.","response_type":"free","response_choices":[],"correct_response":"","response":"I don't know, I didn't understand this in the first example.","orientation_history":[[0]],"response_history":["I don't  know","I don't  kno","I don't  kn","I don't  k","I don't  ","I don't know, I didn't understand this in the first example."],"rt":15939,"trial_type":"polygon-arrow-question","trial_index":0,"trial_index_global":61,"time_elapsed":773728,"internal_chunk_id":"0-0.12-0"},{"nsides":9,"question":"Is 5 a generator under <img src=./images/nonagon_symbol.png style=width:14px;height:14px>? Please explain in words how you got your answer.","response_type":"free","response_choices":[],"correct_response":"","response":"I don't understand how to figure this.","orientation_history":[[0]],"response_history":["I don't understand how to figure this."],"rt":12728,"trial_type":"polygon-arrow-question","trial_index":0,"trial_index_global":62,"time_elapsed":786458,"internal_chunk_id":"0-0.12-0"},{"nsides":9,"question":"Is 6 a generator under <img src=./images/nonagon_symbol.png style=width:14px;height:14px>? Please explain in words how you got your answer.","response_type":"free","response_choices":[],"correct_response":"","response":"I don't understand how to figure this.","orientation_history":[[0]],"response_history":["I don't u nde","I don't u nd","I don't u n","I don't u ","I don't underd","I don't understand how to figure this."],"rt":11130,"trial_type":"polygon-arrow-question","trial_index":0,"trial_index_global":63,"time_elapsed":797591,"internal_chunk_id":"0-0.12-0"},{"nsides":"n","instructions":"Now we'd like to ask you some questions about <img src=./images/ngon_symbol.png style=width:14px;height:14px>, where n could b e any po sitive counting number. For example, n could be 3, and the polygon a triangle, or n could be any other counting number you can think of. If you need to write the operation, you can use (n), and your answers can include n to stand in for the arbitrary value if necessary. (You can use the polygon at the right to think, but it doesn't necessarily correspond to the real polygon, which is why we've left most of it dashed.)","orientation_history":[0],"rt":29672,"trial_type":"polygon-arrow-instructions","trial_index":0,"trial_index_global":64,"time_elapsed":827269,"internal_chunk_id":"0-0"},{"nsides":"n","question":"What is the formula for the inverse of 1 under <img src=./images/ngon_symbol.png style=width:14px;height:14px>?","response_type":"free","response_choices":[],"correct_response":"n-1","response":"I can't remember how to figure these. I didn't write it down.","orientation_history":[[0]],"response_history":["I c an't ","I c an't","I c an'","I c an","I c a","I c  ","I ca n't remember how to figure the4se. ","I can't remember how to figure the4se.","I can't remember how to figure the4se","I can't remember how to figure the4s","I can't remember how to figure the4","I can't remember how to figure these. I didnt' ","I can't remember how to figure these. I didnt'","I can't remember how to figure these. I didnt","I can't remember how to figure these. I didn","I can't remember how to figure these. I didn't write it dwon.","I can't remember how to figure these. I didn't write it dwon","I can't remember how to figure these. I didn't write it dwo","I can't remember how to figure these. I didn't write it dw","I can't remember how to figure these. I didn't write it down."],"rt":30160,"trial_type":"polygon-arrow-question","trial_index":0,"trial_index_global":65,"time_elapsed":857434,"internal_chunk_id":"0-0.14-0"},{"nsides":"n","question":"What is the formula for the inverse of an element x under <img src=./images/ngon_symbol.png style=width:14px;h eight:14 px>? Please explain in words why your answer is correct.","response_type":"free","response_choices":[],"correct_response":"n-x","response":"I don't remember how to figure this. I didn't take notes.","orientation_history":[[0]],"response_history":["I don't rembme","I don't rembm","I don't remb","I don't remember how to figure this. I didn't take notes."],"rt":21312,"trial_type":"polygon-arrow-question","trial_index":0,"trial_index_global":66,"time_elapsed":878749,"internal_chunk_id":"0-0.14-0"},{"nsides":"n","question":"Is there a pattern to which elements are generators? How can you know if an element x is a generator under <img src=./images/ngon_symbol.png style=width:14px;height:14px> without seeing whether it can make all the elements?.","response_type":"free","response_choices":[],"correct_response":"","response":"It seems like there would be a pattern.","orientation_history":[[0]],"response_history":["It seems like there would be a pe","It seems like there wou ld be a  pattern."],"rt":19063,"trial_type":"polygon-arrow-question","trial_index":0,"trial_index_global":67,"time_elapsed":897817,"internal_chunk_id":"0-0.14-0"},{"nsides":"n","question":"True or false: If x is an odd number, it must be a generator under <img src=./images/ngon_symbol.png style=width:14px;height:14px>.","response_type":"multi","response_choices":["True","False"],"correct_response":"False","response":"True","orientation_history":[[0]],"response_history":["True"],"rt":11542,"trial_type":"polygon-arrow-question","trial_index":0,"trial_index_global":68,"time_elapsed":909367,"internal_chunk_id":"0-0.14-0"},{"nsides":"n","question":"True or false: If x is an even number, it must not be a generator under <img src=./images/ngon_symbol.png style=width:14px;height:14px>.","response_type":"multi","response_choices":["True","False"],"correct_response":"False","response":"True","orientation_history":[[0]],"response_history":["True"],"rt":5547,"trial_type":"polygon -arrow-q uestion","trial_index":0,"trial_index_global":69,"time_elapsed":914919,"internal_chunk_id":"0-0.14-0"},{"nsides":"n","question":"True or false: If x is not a generator under <img src=./images/ngon_symbol.png style=width:14px;height:14px>, x must be a divisor of n, that is, x must divide n evenly, with no remainder.","response_type":"multi","response_choices":["True","False"],"correct_response":"False","response":"False","orientation_history":[[0]],"response_history":["False"],"rt":6709,"trial_type":"polygon-arrow-question","trial_index":0,"trial_index_global":70,"time_elapsed":921632,"internal_chunk_id":"0-0.14-0"},{"nsides":"n","question":"True or false: If x is not a generator under <img src=./images/ngon_symbol.png style=width:14px;height:14px>, x must be a multiple of a divisor of n. Please explain in words why your answer is correct.","response_type":"free","response_choices":[],"correct_response":"True","response":"I don't understand any of this.","orientation_history":[[0]],"response_history":["I don't u nde","I don't u nd","I don't u n","I don't u ","I don't underd","I don't understand i","I don't understand anmy","I don't understand anm","I don't understand any of this."],"rt":47678,"trial_type":"polygon-arrow-question","trial_index":0,"trial_index_global":71,"time_elapsed":969313,"internal_chunk_id":"0-0.14-0"},{"nsides":"n","question":"If an element x is a generator under <img src=./images/ngon_symbol.png style=width:14px;height:14px>, is its inverse a generator under <img src=./images/ngon_symbol.png style=width:14px;height:14px> always, sometimes, or never?","response_type":"multi","response_choices":["Always","Sometimes","Never"],"correct_response":"Always","response":"Sometimes","orientation_history":[[0]],"response_history":["Sometimes"],"rt":7698,"trial_type":"polygon-arrow-question","trial_index":0,"trial_index_global":72,"time_elapsed":977017,"internal_chunk_id":"0-0.14-0"},{"nsides":"n","question":"If  an elem ent x is a generator under <img src=./images/ngon_symbol.png style=width:14px;height:14px>, is x <img src=./images/ngon_symbol.png style=width:14px;height:14px> x a generator under <img src=./images/ngon_symbol.png style=width:14px;height:14px> always, sometimes, or never? Please explain in words why your answer is correct.","response_type":"free","response_choices":[],"correct_response":"Sometimes","response":"I don't understand any of this.","orientation_history":[[0]],"response_history":["I don't underd","I don't understand any of this."],"rt":15271,"trial_type":"polygon-arrow-question","trial_index":0,"trial_index_global":73,"time_elapsed":992291,"internal_chunk_id":"0-0.14-0"},{"nsides":"n","question":"If an element x is not a generator under <img src=./images/ngon_symbol.png style=width:14px;height:14px>, is x <img src=./images/ngon_symbol.png style=width:14px;height:14px> x a generator under <img src=./images/ngon_symbol.png  style=width:14px;height:14px> always, sometimes, or never?","response_type":"multi","response_choices":["Always","Sometimes","Never"],"correct_response":"Never","response":"Never","orientation_history":[[0]],"response_history":["Never"],"rt":6355,"trial_type":"polygon-arrow-question","trial_index":0,"trial_index_global":74,"time_elapsed":998650,"internal_chunk_id":"0-0.14-0"},{"instructions":"We would like to ask you some questions about your background. Please press Continue to continue.","rt":1742,"trial_type":"instructions","trial_index":0,"trial_index_global":75,"time_elapsed":1000397,"internal_chunk_id":"0-0.15-0"},{"question":"What is your age?","response_type":"free","response_choices":[],"correct_response":"","response":"42","response_history":["42"],"rt":2862,"trial_type":"question","trial_index":0,"trial_index_global":76,"time_elapsed":1003262,"internal_chunk_id":"0-0.15-0"},{"question":"What is your level of education?","response_type":"multi","response_choices":["Did no t graduate high school","High school diploma","Some college, no degree","Associates Degree","Bachelors Degree","Some graduate school, no degree","Masters Degree","Doctorate, M.D., etc."],"correct_response":"","response":"High school diploma","response_history":["High school diploma"],"rt":6821,"trial_type":"question","trial_index":0,"trial_index_global":77,"time_elapsed":1010086,"internal_chunk_id":"0-0.15-0"},{"question":"What is the most advanced math class you've completed? If you have multiple classes and you're not sure which one is most advanced, please list them.","response_type":"free","response_choices":[],"correct_response":"","response":"Trigonometry. I have used very little math since I left school, so I remember little of it.   ","response_history":["Trigonometry in high school, star","Trigonometry in high school, sta","Trigonometry in high school, st","Trigonometry in high school, s","Trigonometry in high school, ","Trigonometry in high school,","Trigonometry i n high s chool","Trigonometry. It has b","Trigonometry. It has ","Trigonometry. It has","Trigonometry. It ha","Trigonometry. It h","Trigonometry. It ","Trigonometry. It","Trigonometry. I used to ","Trigonometry. I u","Trigonometry. I have not used math in ","Trigonometry. I have not  used math in ","Trigonometry. I have not r used math in ","Trigonometry. I have not re used math in ","Trigonometry. I have not rea used math in ","Trigonometry. I have not real used math in ","Trigonometry. I have not reall used math in ","Trigonometry. I have not really used math in 25 years t houg","Trigonometry. I have not really used math in 25 years t hou","Trigonometry. I have not really used math in 25 years t ho","Trigonometry. I have not really used math in 25 years t h","Trigonometry. I have not really used math in 25 years t ","Trigonometry. I have not really used math in 25 years t","Trigonometry. I have not really used math in 25 years though.","Trigonometry. I have v in 25 years though."," Trigonom etry. I have ve in 25 years though.","Trigonometry. I have ver in 25 years though.","Trigonometry. I have very in 25 years though.","Trigonometry. I have very l in 25 years though.","Trigonometry. I have very li in 25 years though.","Trigonometry. I have very lit in 25 years though.","Trigonometry. I have very litt in 25 years though.","Trigonometry. I have very littl in 25 years though.","Trigonometry. I have very little in 25 years though.","Trigonometry. I have very little  in 25 years though.","Trigonometry. I have very little si in 25 years though.","Trigonometry. I have very little sin in 25 years though.","Trigonometry. I have very little sinc in 25 years though.","Trigonometry. I have very little since in 25 years though.","Trigonometry. I have very little since  in 25 years though.","Trigonometry. I have very little since I in 25 years though.","Trigonometry. I have very little since I  in 25 years though.","Trigonometry. I have very little since I l in 25 years tho ugh.","T rigonometry. I have very little since I le in 25 years though.","Trigonometry. I have very little since I lef in 25 years though.","Trigonometry. I have very little since I left in 25 years though.","Trigonometry. I have very little since I left s in 25 years though.","Trigonometry. I have very little since I left sch in 25 years though.","Trigonometry. I have very little since I left scho in 25 years though.","Trigonometry. I have very little since I left schoo in 25 years though.","Trigonometry. I have very little since I left school in 25 years though.","Trigonometry. I have very little since I left school,  in 25 years though.","Trigonometry. I have very little since I left school, so in 25 years though.","Trigonometry. I have very little since I left school, so  in 25 years though.","Trigonometry. I have very little since I left school, so I in 25 years though.","Trigonometry. I have very little since I left school, so I  in 25 years though.","Trigonometry. I have very  little s ince I left school, so I d in 25 years though.","Trigonometry. I have very little since I left school, so I do in 25 years though.","Trigonometry. I have very little since I left school, so I dont' in 25 years though.","Trigonometry. I have very little since I left school, so I dont'  in 25 years though.","Trigonometry. I have very little since I left school, so I dont' in 25 years though.","Trigonometry. I have very little since I left school, so I dont in 25 years though.","Trigonometry. I have very little since I left school, so I don in 25 years though.","Trigonometry. I have very little since I left school, so I do in 25 years though.","Trigonometry. I have very little since I left school, so I d in 25 years though.","Trigonometry. I have very little since I left school, so I  in 25 years though.","Trigonometry. I have very little since I left school, so I r in 25 years though.","Trigonometry. I have very little since I left school, so I re in 25 years though.","Trigono metry. I  have very little since I left school, so I rem in 25 years though.","Trigonometry. I have very little since I left school, so I reme in 25 years though.","Trigonometry. I have very little since I left school, so I remem in 25 years though.","Trigonometry. I have very little since I left school, so I rememb in 25 years though.","Trigonometry. I have very little since I left school, so I remembe in 25 years though.","Trigonometry. I have very little since I left school, so I remember in 25 years though.","Trigonometry. I have very little since I left school, so I remember  in 25 years though.","Trigonometry. I have very little since I left school, so I remember li in 25 years though.","Trigonometry. I have very little since I left school, so I remember lit in 25 years though.","Trigonometry. I have very little since I left school, so I remember litt in 25 years though.","Trigonometry. I have very little since I left school, so I remember littl in 25 years though.","Trigonomet ry. I ha ve very little since I left school, so I remember little in 25 years though.","Trigonometry. I have very little since I left school, so I remember little  in 25 years though.","Trigonometry. I have very little since I left school, so I remember little o in 25 years though.","Trigonometry. I have very little since I left school, so I remember little of in 25 years though.","Trigonometry. I have very little since I left school, so I remember little of  in 25 years though.","Trigonometry. I have very little since I left school, so I remember little of i in 25 years though.","Trigonometry. I have very little since I left school, so I remember little of it in 25 years though.","Trigonometry. I have very little since I left school, so I remember little of it. in 25 years though.","Trigonometry. I have very little since I left school, so I remember little of it.  .","Trigonometry. I have uvery little since I left school, so I remember little of it.  .","Trigonometry. I have usvery  little s ince I left school, so I remember little of it.  .","Trigonometry. I have usevery little since I left school, so I remember little of it.  .","Trigonometry. I have usedvery little since I left school, so I remember little of it.  .","Trigonometry. I have used very little since I left school, so I remember little of it.  .","Trigonometry. I have used very little masince I left school, so I remember little of it.  .","Trigonometry. I have used very little matsince I left school, so I remember little of it.  .","Trigonometry. I have used very little mathsince I left school, so I remember little of it.  .","Trigonometry. I have used very little math since I left school, so I remember little of it.  .","Trigonometry. I have used very little math since I left school, so I remember little of it.   "],"rt":105509,"trial_type":"question","trial_index":0,"trial_index_global":78,"time_elapsed":1115601,"internal_chunk_id":"0-0.15-0"},{"question":"How familiar are you with the concept of  modular  arithmetic?","response_type":"multi","response_choices":["1 - never heard of it","2 - heard of it but didn't know what it was","3 - seen it used or explained","4 - used it but not often or recently","5 - used it, remember and understand it"],"correct_response":"1","response":"1 - never heard of it","response_history":["1 - never heard of it"],"rt":24859,"trial_type":"question","trial_index":0,"trial_index_global":79,"time_elapsed":1140464,"internal_chunk_id":"0-0.15-0"},{"question":"How familiar are you with the concept of a mathematical group?","response_type":"multi","response_choices":["1 - never heard of it","2 - heard of it but didn't know what it was","3 - seen it used or explained","4 - used it but not often or recently","5 - used it, remember and understand it"],"correct_response":"1","response":"1 - never heard of it","response_history":["1 - never heard of it"],"rt":4339,"trial_type":"question","trial_index":0,"trial_index_global":80,"time_elapsed":1144808,"internal_chunk_id":"0-0.15-0"},{"question":"Do you feel you learned something from this HIT?","response_type":"multi","response_choices":["1 - not at all","2 - somewhat","3 - definitely"],"correct_response":"1","response":"1 - not at all","response_history":["1 - not at all"],"rt":16656,"trial_type":"question","trial_index":0,"trial_index_global":81,"time_elapsed":1161467,"internal_chunk_id":"0-0.15-0"},{"question":"Do you feel you understood the concepts in this HIT?","response_type":"multi","response_choices":["1 - not at all","2 - somewhat","3 - definitely"],"correct_response":"1","response":"1 - not at all","response_history":["2 - somewhat","1 - not at all"],"rt":5378,"trial_type":"question","trial_index":0,"trial_index_global":82,"time_elapsed":1166850,"internal_chunk_id":"0-0.15-0"},{"question":"Did you enjoy this HIT?","response_type":"multi","response_choices":["1 - not at all","2 - somewhat","3 - definitely"],"correct_response":"1","response":"2 - somewhat","response_history":[" 2 - some what"],"rt":3840,"trial_type":"question","trial_index":0,"trial_index_global":83,"time_elapsed":1170692,"internal_chunk_id":"0-0.15-0"},{"question":"What is your gender?","response_type":"multi","response_choices":["Female","Male","Other"],"correct_response":"","response":"Female","response_history":["Female"],"rt":3563,"trial_type":"question","trial_index":0,"trial_index_global":84,"time_elapsed":1174258,"internal_chunk_id":"0-0.15-0"},{"question":"What is/are your native language(s)? (The languages spoken in your household when you were a child.)","response_type":"free","response_choices":[],"correct_response":"","response":"English","response_history":["English"],"rt":5623,"trial_type":"question","trial_index":0,"trial_index_global":85,"time_elapsed":1179885,"internal_chunk_id":"0-0.15-0"},{"question":"Did you use pen and paper at any point on this HIT?","response_type":"free","response_choices":[],"correct_response":"","response":"no","response_history":["no"],"rt":4486,"trial_type":"question","trial_index":0,"trial_index_global":86,"time_elapsed":1184376,"internal_chunk_id":"0-0.15-0"},{"question":"Do you have any comments on this HIT?","response_type":"free","response_choices":[],"correct_response":"","response":"I tried, sorry I didn't do well. The beginning was understandable, but then I was just lost. Everything at the end built on the concept I didn't understand, so I couldn't recover.","response_history":["I tried, sorry I didn't do well. Af","I tried, sorry I didn't do well. A","I tried, sorry I didn't do well. The beginning was understandable, but then I wan ju","I tried, sorry I didn't do well. The beginning was understandable, but then I wan j","I tried, sorry I didn't do well. The beginning was understandable, but then I wan ","I tried, sorry I didn't do well. The beginning was understandable, but then I wan","I tried, sorry I didn't do well. The beginning was understandable, but then I was just low","I tried, sorry I didn't do well. Th e beginn ing was understandable, but then I was just lost. Everything at the end bulit","I tried, sorry I didn't do well. The beginning was understandable, but then I was just lost. Everything at the end buli","I tried, sorry I didn't do well. The beginning was understandable, but then I was just lost. Everything at the end bul","I tried, sorry I didn't do well. The beginning was understandable, but then I was just lost. Everything at the end built on the concept I didn't underd","I tried, sorry I didn't do well. The beginning was understandable, but then I was just lost. Everything at the end built on the concept I didn't understand, so I couldn't recover."],"rt":55253,"trial_type":"question","trial_index":0,"trial_index_global":87,"time_elapsed":1239631,"internal_chunk_id":"0-0.15-0"}]