[{"nsides":6,"instructions":"Let's define a new operation <img src=./images/hexagon_symbol.png style=width:14px;height:14px>. This operation will give us a way of combining two of the numbers 0, 1, 2, 3, 4, 5 to get another one of them back. To perform <img src=./images/hexagon_symbol.png style=width:14px;height:14px>, you can either use a method based on the hexagon at right, or a method based on arithmetic.<br /><b>Hexagon method:</b> you can use the interactive diagram on the right, or perform the operation in your mind. Point the arrow at the first number on the hexagon by clicking, then click (or click and drag) to move the arrow the second number of points clockwise around the hexagon. The number the arrow arrives at is your result. (The operation is called <img src=./images/hexagon_symbol.png style=width:14px;height:14px> because it uses the hexagon, which has 6 sides.) <br ><b>Arithmetic method:</b> you start with the first number, and then add  the sec ond one to it. If the sum is smaller than 6, that's your result. If the sum is 6 or bigger, you subtract 6 to get your result. <br /><br />For example, 3 <img src=./images/hexagon_symbol.png style=width:14px;height:14px> 5 = 2, because 5 steps clockwise from 3 on the hexagon brings us to 2. Equivalently, 3 + 5 = 8, and 8 is bigger than 6, so we subtract 6, and 8 - 6 = 2. So 3 <img src=./images/hexagon_symbol.png style=width:14px;height:14px> 5 = 2.<br /><br />Similarly, 1 <img src=./images/hexagon_symbol.png style=width:14px;height:14px> 4 = 5, because 1 + 4 = 5, and 5 is less than 6 so we leave it alone. Equivalently, 4 steps clockwise from 1 on the hexagon brings us to 5. <br /><br />Click Continue when you're ready to move on.","orientation_history":[0],"rt":7472,"trial_type":"polygon-arrow-instructions","trial_index":0,"trial_index_global":1,"time_elapsed":18908,"internal_chunk_id":"0-0"},{"nsides":6,"instructions":"Do you see how the differen t ways o f performing <img src=./images/hexagon_symbol.png style=width:14px;height:14px> give the same result? By labeling the points of the hexagon with the numbers from 0 to 5, we ensure that when we combine two numbers using the hexagon, we only produce numbers between 0 and 5. When we use the arithmetic strategy, adding the second number to the first mimics counting around the hexagon, and subtracting 6 each time we get above 5 makes sure the results correspond to the numbers on the points of the hexagon. <br /><br />Click Continue when you're ready to move on.","orientation_history":[0],"rt":152843,"trial_type":"polygon-arrow-instructions","trial_index":0,"trial_index_global":2,"time_elapsed":171809,"internal_chunk_id":"0-0"},{"nsides":6,"question":"Now try one on your own! What is 4 <img src=./images/hexagon_symbol.png style=width:14px;height:14px> 5? <br /><br /> (Remember, to perform <img src=./images/hexagon_symbol.png style=width:14px;height:14px >, you c an either use a method based on the hexagon at right, or a method based on arithmetic.<br /><br /><b>Hexagon method:</b> you can use the interactive diagram on the right, or perform the operation in your mind. Point the arrow at the first number, then move the arrow the second number of points clockwise around the hexagon. The number the arrow arrives at is your result. <br /><br /><b>Arithmetic method:</b> you start with the first number, and then add the second one to it. If the sum is smaller than 6, that's your result. If the sum is 6 or bigger, you subtract 6 to get your result.)","response_type":"free","response_choices":[],"correct_response":"3","response":"5","orientation_history":[[0]],"response_history":["5"],"rt":10793,"trial_type":"polygon-arrow-question","trial_index":0,"trial_index_global":3,"time_elapsed":182631,"internal_chunk_id":"0-0.3-0"},{"nsides":6,"feedback":"Sorry, that was incorrect. 4 <img src=./images/hexagon_symbol.png style=width:14px;height :14px>  5 = 3 because 5 steps clockwise on the hexagon from 4 brings us to 3. Equivalently, 4 + 5 = 9 and 9 - 6 = 3.","orientation_history":[0],"rt":3356,"trial_type":"polygon-arrow-feedback","trial_index":0,"trial_index_global":4,"time_elapsed":186013,"internal_chunk_id":"0-0.3-0"},{"nsides":6,"question":"What is 3 <img src=./images/hexagon_symbol.png style=width:14px;height:14px> 2? Try to solve this problem using the hexagon. <br /><br /> (Remember, to perform <img src=./images/hexagon_symbol.png style=width:14px;height:14px> on the hexagon, you can use the interactive diagram on the right, or perform the operation in your mind. Point the arrow at the first number on the hexagon, and then move the arrow the second number of points clockwise around the hexagon.)","response_type":"free","response_choices":[],"correct_response":"5","response":"2","orientation_history":[[0]],"response_history":["2"],"rt":5434,"trial_type":"polygon-arrow-question","trial_index":0,"trial_index_global":5,"time_elapsed":191486,"internal_chunk_id":"0-0.3-0"},{"nsides":6,"feedback":"Sorry, that was incorrect. 3 <img src=./images/hexagon_symbol.png style=width:14px;height:14px> 2 = 5 because 2 steps clockwise on the hexagon from 3 brings us to 5. Equivalently, 3 + 2 = 5 and 5 is less than 6.","orientation_history":[0],"rt":1069,"trial_type":"polygon-arrow-feedback","trial_index":0,"trial_index_global":6,"time_elapsed":192589,"internal_chunk_id":"0-0.3-0"},{"nsides":6,"question":"What is 1 <img src=./images/hexagon_symbol.png style=width:14px;height:14px> 5? Try to solve this probem using the arithmetic technique. <br /><br /> (Remember, to perform <img src=./images/hexagon_symbol.png style=width:14px;height:14px> by arithmetic, you start with the first number, and then add the second one to it. If the sum is smaller than 6, that's your result. If the sum is 6 or bigger, you subtract 6 to get your result.)","response_type":"free","response_choices":[],"correct_response":"0","response":"6","orientation_history":[[0]],"response_history":["6"],"rt":3368,"trial_type":"polygon-arrow-question","trial_index":0,"trial_index_global":7,"time_elapsed":195991,"internal_chunk_id":"0-0.3-0"},{"nsides":6,"feedback":"Sorry, that was incorrect. 1 <img src=./images/hexagon_symbol.png style=width:14px;height:14px> 5 = 0 because 1 + 5 = 6 and 6 - 6 = 0.  Equivalently, 5 steps clockwise on the hexagon from 1 brings us to 0.","orientation_history":[0],"rt":4457,"trial_type":"polygon-arrow-feedback","trial_index":0,"trial_index_global":8,"time_elapsed":200489,"internal_chunk_id":"0-0.3-0"},{"nsides":6,"question":"What is 1 <img src=./images/hexagon_symbol.png style=width:14px;height:14px> 1? Try to solve this problem using the hexagon. <br /><br /> (Remember, to perform <img src=./images/hexagon_symbol.png style=width:14px;height:14px> on the hexagon, you can use the interactive diagram on the right, or perform the operat ion in y our mind. Point the arrow at the first number on the hexagon, and then move the arrow the second number of points clockwise around the hexagon.)","response_type":"free","response_choices":[],"correct_response":"2","response":"6","orientation_history":[[0]],"response_history":["6"],"rt":2964,"trial_type":"polygon-arrow-question","trial_index":0,"trial_index_global":9,"time_elapsed":203481,"internal_chunk_id":"0-0.3-0"},{"nsides":6,"feedback":"Sorry, that was incorrect. 1 <img src=./images/hexagon_symbol.png style=width:14px;height:14px> 1 = 2 because 1 step clockwise on the hexagon from 1 brings us to 2. Equivalently, 1 + 1 = 2 and 2 is less than 6.","orientation_history":[0],"rt":9258,"trial_type":"polygon-arrow-feedback","trial_index":0,"trial_index_global":10,"time_elapsed":212773,"internal_chunk_id":"0-0.3-0"},{"nsides":6,"question":"What is 3 <img src=./images/hexagon_symbol.png style=width:14px;height:14px> 0? Try to solve this problem using the arithmet ic techn ique. <br /><br /> (Remember, to perform <img src=./images/hexagon_symbol.png style=width:14px;height:14px> using arithmetic, you start with the first number, and then add the second one to it. If the sum is smaller than 6, that's your result. If the sum is 6 or bigger, you subtract 6 to get your result.)","response_type":"free","response_choices":[],"correct_response":"3","response":"3","orientation_history":[[0]],"response_history":["3"],"rt":2447,"trial_type":"polygon-arrow-question","trial_index":0,"trial_index_global":11,"time_elapsed":215255,"internal_chunk_id":"0-0.3-0"},{"nsides":6,"feedback":"Correct! 3 <img src=./images/hexagon_symbol.png style=width:14px;height:14px> 0 = 3 because 3 + 0 = 3 and 3 - 6 = 3.  Equivalently, 0 steps clockwise on the hexagon from 3 brings us to 3.","orientation_history":[0],"rt":2577,"trial_type":"polygon-arrow-feedback","trial_index":0,"trial_index_global":12,"time_elapsed":217865,"internal_chunk_id":"0-0.3-0"},{"nsides":6,"question":"What is 4 <img src=./images/hexagon_symbol.png style=width:14px;height:14px> 4? Try to solve this problem using the hexagon. <br /><br /> (Remember, to perform <img src=./images/hexagon_symbol.png style=width:14px;height:14px> on the hexagon, you can use the interactive diagram on the right, or perform the operation in your mind. Point the arrow at the first number on the hexagon, and then move the arrow the second number of points clockwise around the hexagon.)","response_type":"free","response_choices":[],"correct_response":"2","response":"8","orientation_history":[[0]],"response_history":["8"],"rt":1602,"trial_type":"polygon-arrow-question","trial_index":0,"trial_index_global":13,"time_elapsed":219504,"internal_chunk_id":"0-0.3-0"},{"nsides":6,"feedback":"Sorry, that was incorrect. 4 <img src=./images/hexagon_symbol.png style=width:14px;height:14px> 4 = 2 because 4 steps clockwise on the hexagon from 4 brings us to 2. Equivalently, 4 + 4 =  8 and 8  - 6 = 2.","orientation_history":[0],"rt":1751,"trial_type":"polygon-arrow-feedback","trial_index":0,"trial_index_global":14,"time_elapsed":221280,"internal_chunk_id":"0-0.3-0"},{"nsides":6,"question":"What is 1 <img src=./images/hexagon_symbol.png style=width:14px;height:14px> 3? Try to solve this problem using the arithmetic technique. <br /><br /> (Remember, to perform <img src=./images/hexagon_symbol.png style=width:14px;height:14px> by arithmetic, you start with the first number, and then add the second one to it. If the sum is smaller than 6, that's your result. If the sum is 6 or bigger, you subtract 6 to get your result.)","response_type":"free","response_choices":[],"correct_response":"4","response":"4","orientation_history":[[0]],"response_history":["4"],"rt":2177,"trial_type":"polygon-arrow-question","trial_index":0,"trial_index_global":15,"time_elapsed":223491,"internal_chunk_id":"0-0.3-0"},{"nsides":6,"feedback":"Correct! 1 <img src=./images/hex agon_sym bol.png style=width:14px;height:14px> 3 = 4 because 1 + 3 = 4 and 4 - 6 = 4.  Equivalently, 3 steps clockwise on the hexagon from 1 brings us to 4.","orientation_history":[0],"rt":670,"trial_type":"polygon-arrow-feedback","trial_index":0,"trial_index_global":16,"time_elapsed":224204,"internal_chunk_id":"0-0.3-0"},{"nsides":6,"question":"What is 4 <img src=./images/hexagon_symbol.png style=width:14px;height:14px> 3? <br /><br /> (Remember, to perform <img src=./images/hexagon_symbol.png style=width:14px;height:14px>, you can either use a method based on the hexagon at right, or a method based on arithmetic.<br /><br /><b>Hexagon method:</b> you can use the interactive diagram on the right, or perform the operation in your mind. Point the arrow at the first number, then move the arrow the second number of points clockwise around the hexagon. The number the arrow arrives at is your result. <br /><br /><b>Arithmetic method:</b> you start with the first numb er, and  then add the second one to it. If the sum is smaller than 6, that's your result. If the sum is 6 or bigger, you subtract 6 to get your result.)","response_type":"free","response_choices":[],"correct_response":"1","response":"7","orientation_history":[[0]],"response_history":["7"],"rt":1862,"trial_type":"polygon-arrow-question","trial_index":0,"trial_index_global":17,"time_elapsed":226079,"internal_chunk_id":"0-0.3-0"},{"nsides":6,"feedback":"Sorry, that was incorrect. 4 <img src=./images/hexagon_symbol.png style=width:14px;height:14px> 3 = 1 because 3 steps clockwise on the hexagon from 4 brings us to 1. Equivalently, 4 + 3 = 7 and 7 - 6 = 1.","orientation_history":[0],"rt":867,"trial_type":"polygon-arrow-feedback","trial_index":0,"trial_index_global":18,"time_elapsed":226976,"internal_chunk_id":"0-0.3-0"},{"nsides":6,"question":"What is 0 <img src=./images/hexagon_symbol.png style=width:14px;height:14px> 5? <br /><br /> (Remember, to perform <img src=./ima ges/hexa gon_symbol.png style=width:14px;height:14px>, you can either use a method based on the hexagon at right, or a method based on arithmetic.<br /><br /><b>Hexagon method:</b> you can use the interactive diagram on the right, or perform the operation in your mind. Point the arrow at the first number, then move the arrow the second number of points clockwise around the hexagon. The number the arrow arrives at is your result. <br /><br /><b>Arithmetic method:</b> you start with the first number, and then add the second one to it. If the sum is smaller than 6, that's your result. If the sum is 6 or bigger, you subtract 6 to get your result.)","response_type":"free","response_choices":[],"correct_response":"5","response":"5","orientation_history":[[0]],"response_history":["5"],"rt":31402,"trial_type":"polygon-arrow-question","trial_index":0,"trial_index_global":19,"time_elapsed":258394,"internal_chunk_id":"0-0.3-0"},{"nsides":6,"feedback":"Correct! 0 <img src=./images/hexago n_symbol .png style=width:14px;height:14px> 5 = 5 because 5 steps clockwise on the hexagon from 0 brings us to 5. Equivalently, 0 + 5 = 5 and 5 is less than 6.","orientation_history":[0],"rt":1040,"trial_type":"polygon-arrow-feedback","trial_index":0,"trial_index_global":20,"time_elapsed":259474,"internal_chunk_id":"0-0.3-0"},{"nsides":6,"question":"What is 2 <img src=./images/hexagon_symbol.png style=width:14px;height:14px> 5? <br /><br /> (Remember, to perform <img src=./images/hexagon_symbol.png style=width:14px;height:14px>, you can either use a method based on the hexagon at right, or a method based on arithmetic.<br /><br /><b>Hexagon method:</b> you can use the interactive diagram on the right, or perform the operation in your mind. Point the arrow at the first number, then move the arrow the second number of points clockwise around the hexagon. The number the arrow arrives at is your result. <br /><br /><b>Arithmetic method:</b> you start with the first  number,  and then add the second one to it. If the sum is smaller than 6, that's your result. If the sum is 6 or bigger, you subtract 6 to get your result.)","response_type":"free","response_choices":[],"correct_response":"1","response":"7","orientation_history":[[0]],"response_history":["7"],"rt":2246,"trial_type":"polygon-arrow-question","trial_index":0,"trial_index_global":21,"time_elapsed":261753,"internal_chunk_id":"0-0.3-0"},{"nsides":6,"feedback":"Sorry, that was incorrect. 2 <img src=./images/hexagon_symbol.png style=width:14px;height:14px> 5 = 1 because 5 steps clockwise on the hexagon from 2 brings us to 1. Equivalently, 2 + 5 = 7 and 7 - 6 = 1.","orientation_history":[0],"rt":2339,"trial_type":"polygon-arrow-feedback","trial_index":0,"trial_index_global":22,"time_elapsed":264125,"internal_chunk_id":"0-0.3-0"},{"nsides":6,"question":"What is 3 <img src=./images/hexagon_symbol.png style=width:14px;height:14px> 3? <br /><br /> (Remember, to perform <img src= ./images /hexagon_symbol.png style=width:14px;height:14px>, you can either use a method based on the hexagon at right, or a method based on arithmetic.<br /><br /><b>Hexagon method:</b> you can use the interactive diagram on the right, or perform the operation in your mind. Point the arrow at the first number, then move the arrow the second number of points clockwise around the hexagon. The number the arrow arrives at is your result. <br /><br /><b>Arithmetic method:</b> you start with the first number, and then add the second one to it. If the sum is smaller than 6, that's your result. If the sum is 6 or bigger, you subtract 6 to get your result.)","response_type":"free","response_choices":[],"correct_response":"0","response":"6","orientation_history":[[0]],"response_history":["6"],"rt":2016,"trial_type":"polygon-arrow-question","trial_index":0,"trial_index_global":23,"time_elapsed":266180,"internal_chunk_id":"0-0.4-0"},{"nsides":6,"feedback":"Sorry, that was incorrect. 3 <img  src=. /images/hexagon_symbol.png style=width:14px;height:14px> 3 = 0 because 3 steps clockwise on the hexagon from 3 brings us to 0. Equivalently, 3 + 3 = 6 and 6 - 6 = 0.","orientation_history":[0],"rt":689,"trial_type":"polygon-arrow-feedback","trial_index":0,"trial_index_global":24,"time_elapsed":266903,"internal_chunk_id":"0-0.4-0"},{"nsides":6,"question":"What is 1 <img src=./images/hexagon_symbol.png style=width:14px;height:14px> 2? <br /><br /> (Remember, to perform <img src=./images/hexagon_symbol.png style=width:14px;height:14px>, you can either use a method based on the hexagon at right, or a method based on arithmetic.<br /><br /><b>Hexagon method:</b> you can use the interactive diagram on the right, or perform the operation in your mind. Point the arrow at the first number, then move the arrow the second number of points clockwise around the hexagon. The number the arrow arrives at is your result. <br /><br /><b>Arithmetic method:</b> you start w ith the  first number, and then add the second one to it. If the sum is smaller than 6, that's your result. If the sum is 6 or bigger, you subtract 6 to get your result.)","response_type":"free","response_choices":[],"correct_response":"3","response":"3","orientation_history":[[0]],"response_history":["3"],"rt":1829,"trial_type":"polygon-arrow-question","trial_index":0,"trial_index_global":25,"time_elapsed":268746,"internal_chunk_id":"0-0.4-0"},{"nsides":6,"feedback":"Correct! 1 <img src=./images/hexagon_symbol.png style=width:14px;height:14px> 2 = 3 because 2 steps clockwise on the hexagon from 1 brings us to 3. Equivalently, 1 + 2 = 3 and 3 is less than 6.","orientation_history":[0],"rt":625,"trial_type":"polygon-arrow-feedback","trial_index":0,"trial_index_global":26,"time_elapsed":269420,"internal_chunk_id":"0-0.4-0"},{"nsides":6,"question":"What is 5 <img src=./images/hexagon_symbol.png style=width:14px;height:14px> 5? <br /><br /> (Remember, to perform <img src= ./imag es/hexagon_symbol.png style=width:14px;height:14px>, you can either use a method based on the hexagon at right, or a method based on arithmetic.<br /><br /><b>Hexagon method:</b> you can use the interactive diagram on the right, or perform the operation in your mind. Point the arrow at the first number, then move the arrow the second number of points clockwise around the hexagon. The number the arrow arrives at is your result. <br /><br /><b>Arithmetic method:</b> you start with the first number, and then add the second one to it. If the sum is smaller than 6, that's your result. If the sum is 6 or bigger, you subtract 6 to get your result.)","response_type":"free","response_choices":[],"correct_response":"4","response":"0","orientation_history":[[0]],"response_history":["0"],"rt":2835,"trial_type":"polygon-arrow-question","trial_index":0,"trial_index_global":27,"time_elapsed":272270,"internal_chunk_id":"0-0.4-0"},{"nsides":6,"feedback":"Sorry, that was incorrect. 5 <i mg src=./images/hexagon_symbol.png style=width:14px;height:14px> 5 = 4 because 5 steps clockwise on the hexagon from 5 brings us to 4. Equivalently, 5 + 5 = 10 and 10 - 6 = 4.","orientation_history":[0],"rt":713,"trial_type":"polygon-arrow-feedback","trial_index":0,"trial_index_global":28,"time_elapsed":273025,"internal_chunk_id":"0-0.4-0"},{"nsides":6,"question":"What is 4 <img src=./images/hexagon_symbol.png style=width:14px;height:14px> 2? <br /><br /> (Remember, to perform <img src=./images/hexagon_symbol.png style=width:14px;height:14px>, you can either use a method based on the hexagon at right, or a method based on arithmetic.<br /><br /><b>Hexagon method:</b> you can use the interactive diagram on the right, or perform the operation in your mind. Point the arrow at the first number, then move the arrow the second number of points clockwise around the hexagon. The number the arrow arrives at is your result. <br /><br /><b>Arithmetic method:</b> you sta rt with  the first number, and then add the second one to it. If the sum is smaller than 6, that's your result. If the sum is 6 or bigger, you subtract 6 to get your result.)","response_type":"free","response_choices":[],"correct_response":"0","response":"0","orientation_history":[[0]],"response_history":["6","0"],"rt":3824,"trial_type":"polygon-arrow-question","trial_index":0,"trial_index_global":29,"time_elapsed":276862,"internal_chunk_id":"0-0.4-0"},{"nsides":6,"feedback":"Correct! 4 <img src=./images/hexagon_symbol.png style=width:14px;height:14px> 2 = 0 because 2 steps clockwise on the hexagon from 4 brings us to 0. Equivalently, 4 + 2 = 6 and 6 - 6 = 0.","orientation_history":[0],"rt":687,"trial_type":"polygon-arrow-feedback","trial_index":0,"trial_index_global":30,"time_elapsed":277575,"internal_chunk_id":"0-0.4-0"},{"nsides":6,"question":"What is 0 <img src=./images/hexagon_symbol.png style=width:14px;height:14px> 2? <br /><br /> (Remember, to perform <img src =./ima ges/hexagon_symbol.png style=width:14px;height:14px>, you can either use a method based on the hexagon at right, or a method based on arithmetic.<br /><br /><b>Hexagon method:</b> you can use the interactive diagram on the right, or perform the operation in your mind. Point the arrow at the first number, then move the arrow the second number of points clockwise around the hexagon. The number the arrow arrives at is your result. <br /><br /><b>Arithmetic method:</b> you start with the first number, and then add the second one to it. If the sum is smaller than 6, that's your result. If the sum is 6 or bigger, you subtract 6 to get your result.)","response_type":"free","response_choices":[],"correct_response":"2","response":"2","orientation_history":[[0]],"response_history":["2"],"rt":1774,"trial_type":"polygon-arrow-question","trial_index":0,"trial_index_global":31,"time_elapsed":279359,"internal_chunk_id":"0-0.4-0"},{"nsides":6,"feedback":"Correct! 0 <img src=./images /hexagon _symbol.png style=width:14px;height:14px> 2 = 2 because 2 steps clockwise on the hexagon from 0 brings us to 2. Equivalently, 0 + 2 = 2 and 2 is less than 6.","orientation_history":[0],"rt":868,"trial_type":"polygon-arrow-feedback","trial_index":0,"trial_index_global":32,"time_elapsed":280247,"internal_chunk_id":"0-0.4-0"},{"nsides":6,"question":"What is 3 <img src=./images/hexagon_symbol.png style=width:14px;height:14px> 5? <br /><br /> (Remember, to perform <img src=./images/hexagon_symbol.png style=width:14px;height:14px>, you can either use a method based on the hexagon at right, or a method based on arithmetic.<br /><br /><b>Hexagon method:</b> you can use the interactive diagram on the right, or perform the operation in your mind. Point the arrow at the first number, then move the arrow the second number of points clockwise around the hexagon. The number the arrow arrives at is your result. <br /><br /><b>Arithmetic method:</b> you start with the  first nu mber, and then add the second one to it. If the sum is smaller than 6, that's your result. If the sum is 6 or bigger, you subtract 6 to get your result.)","response_type":"free","response_choices":[],"correct_response":"2","response":"2","orientation_history":[[0]],"response_history":["2"],"rt":2806,"trial_type":"polygon-arrow-question","trial_index":0,"trial_index_global":33,"time_elapsed":283067,"internal_chunk_id":"0-0.4-0"},{"nsides":6,"feedback":"Correct! 3 <img src=./images/hexagon_symbol.png style=width:14px;height:14px> 5 = 2 because 5 steps clockwise on the hexagon from 3 brings us to 2. Equivalently, 3 + 5 = 8 and 8 - 6 = 2.","orientation_history":[0],"rt":612,"trial_type":"polygon-arrow-feedback","trial_index":0,"trial_index_global":34,"time_elapsed":283713,"internal_chunk_id":"0-0.4-0"},{"nsides":6,"question":"What is 1 <img src=./images/hexagon_symbol.png style=width:14px;height:14px> 4? <br /><br /> (Remember, to perform <img src=./images/hexa gon_symb ol.png style=width:14px;height:14px>, you can either use a method based on the hexagon at right, or a method based on arithmetic.<br /><br /><b>Hexagon method:</b> you can use the interactive diagram on the right, or perform the operation in your mind. Point the arrow at the first number, then move the arrow the second number of points clockwise around the hexagon. The number the arrow arrives at is your result. <br /><br /><b>Arithmetic method:</b> you start with the first number, and then add the second one to it. If the sum is smaller than 6, that's your result. If the sum is 6 or bigger, you subtract 6 to get your result.)","response_type":"free","response_choices":[],"correct_response":"5","response":"5","orientation_history":[[0]],"response_history":["5"],"rt":1577,"trial_type":"polygon-arrow-question","trial_index":0,"trial_index_global":35,"time_elapsed":285369,"internal_chunk_id":"0-0.4-0"},{"nsides":6,"feedback":"Correct! 1 <img src=./images/hexagon_symbol. png st yle=width:14px;height:14px> 4 = 5 because 4 steps clockwise on the hexagon from 1 brings us to 5. Equivalently, 1 + 4 = 5 and 5 is less than 6.","orientation_history":[0],"rt":592,"trial_type":"polygon-arrow-feedback","trial_index":0,"trial_index_global":36,"time_elapsed":285987,"internal_chunk_id":"0-0.4-0"},{"nsides":6,"question":"What is 5 <img src=./images/hexagon_symbol.png style=width:14px;height:14px> 1? <br /><br /> (Remember, to perform <img src=./images/hexagon_symbol.png style=width:14px;height:14px>, you can either use a method based on the hexagon at right, or a method based on arithmetic.<br /><br /><b>Hexagon method:</b> you can use the interactive diagram on the right, or perform the operation in your mind. Point the arrow at the first number, then move the arrow the second number of points clockwise around the hexagon. The number the arrow arrives at is your result. <br /><br /><b>Arithmetic method:</b> you start with the first number, an d then a dd the second one to it. If the sum is smaller than 6, that's your result. If the sum is 6 or bigger, you subtract 6 to get your result.)","response_type":"free","response_choices":[],"correct_response":"0","response":"6","orientation_history":[[0]],"response_history":["6"],"rt":2009,"trial_type":"polygon-arrow-question","trial_index":0,"trial_index_global":37,"time_elapsed":288005,"internal_chunk_id":"0-0.4-0"},{"nsides":6,"feedback":"Sorry, that was incorrect. 5 <img src=./images/hexagon_symbol.png style=width:14px;height:14px> 1 = 0 because 1 step clockwise on the hexagon from 5 brings us to 0. Equivalently, 5 + 1 = 6 and 6 - 6 = 0.","orientation_history":[0],"rt":729,"trial_type":"polygon-arrow-feedback","trial_index":0,"trial_index_global":38,"time_elapsed":288746,"internal_chunk_id":"0-0.4-0"},{"nsides":6,"question":"What is 1 <img src=./images/hexagon_symbol.png style=width:14px;height:14px> 0? <br /><br /> (Remember, to perform <img src=./images/hex agon_sym bol.png style=width:14px;height:14px>, you can either use a method based on the hexagon at right, or a method based on arithmetic.<br /><br /><b>Hexagon method:</b> you can use the interactive diagram on the right, or perform the operation in your mind. Point the arrow at the first number, then move the arrow the second number of points clockwise around the hexagon. The number the arrow arrives at is your result. <br /><br /><b>Arithmetic method:</b> you start with the first number, and then add the second one to it. If the sum is smaller than 6, that's your result. If the sum is 6 or bigger, you subtract 6 to get your result.)","response_type":"free","response_choices":[],"correct_response":"1","response":"1","orientation_history":[[0]],"response_history":["1"],"rt":2161,"trial_type":"polygon-arrow-question","trial_index":0,"trial_index_global":39,"time_elapsed":290951,"internal_chunk_id":"0-0.4-0"},{"nsides":6,"feedback":"Correct! 1 <img src=./images/hexagon_symbol .png s tyle=width:14px;height:14px> 0 = 1 because 0 steps clockwise on the hexagon from 1 brings us to 1. Equivalently, 1 + 0 = 1 and 1 is less than 6.","orientation_history":[0],"rt":575,"trial_type":"polygon-arrow-feedback","trial_index":0,"trial_index_global":40,"time_elapsed":291548,"internal_chunk_id":"0-0.4-0"},{"nsides":6,"question":"What is 5 <img src=./images/hexagon_symbol.png style=width:14px;height:14px> 2? <br /><br /> (Remember, to perform <img src=./images/hexagon_symbol.png style=width:14px;height:14px>, you can either use a method based on the hexagon at right, or a method based on arithmetic.<br /><br /><b>Hexagon method:</b> you can use the interactive diagram on the right, or perform the operation in your mind. Point the arrow at the first number, then move the arrow the second number of points clockwise around the hexagon. The number the arrow arrives at is your result. <br /><br /><b>Arithmetic method:</b> you start with the first number, a nd then  add the second one to it. If the sum is smaller than 6, that's your result. If the sum is 6 or bigger, you subtract 6 to get your result.)","response_type":"free","response_choices":[],"correct_response":"1","response":"7","orientation_history":[[0]],"response_history":["7"],"rt":1690,"trial_type":"polygon-arrow-question","trial_index":0,"trial_index_global":41,"time_elapsed":293255,"internal_chunk_id":"0-0.4-0"},{"nsides":6,"feedback":"Sorry, that was incorrect. 5 <img src=./images/hexagon_symbol.png style=width:14px;height:14px> 2 = 1 because 2 steps clockwise on the hexagon from 5 brings us to 1. Equivalently, 5 + 2 = 7 and 7 - 6 = 1.","orientation_history":[0],"rt":770,"trial_type":"polygon-arrow-feedback","trial_index":0,"trial_index_global":42,"time_elapsed":294032,"internal_chunk_id":"0-0.4-0"},{"nsides":6,"instructions":"Now we're going to discuss a couple special properties of this new operation, <img src=./images/hexagon_symbol.png style=width:14px;he ight:14p x> that we've learned. First, notice that the number 0 behaves in a special way under <img src=./images/hexagon_symbol.png style=width:14px;height:14px>. Whenever we combine 0 with anything else, we get that same thing back. We'll say that 0 is the <i>identity</i> under <img src=./images/hexagon_symbol.png style=width:14px;height:14px>, because when you combine it with something it gives you that identical thing back.","orientation_history":[0],"rt":2558,"trial_type":"polygon-arrow-instructions","trial_index":0,"trial_index_global":43,"time_elapsed":296610,"internal_chunk_id":"0-0"},{"nsides":6,"instructions":"Now that we know 0 is the identity under <img src=./images/hexagon_symbol.png style=width:14px;height:14px>, we're going to make a new definition. We'll say that the <i>inverse</i> of a number is the element that you combine with it to produce the identity. For example, 5 <img src=./images/hexagon_symbol.png style=width:14px;height:14px> 1 = 0 , so we say 1 is the inverse of 5 under <img src=./images/hexagon_symbol.png style=width:14px;height:14px>, (remember 0 is the identity under <img src=./images/hexagon_symbol.png style=width:14px;height:14px>). Similarly, 3 is its own inverse under <img src=./images/hexagon_symbol.png style=width:14px;height:14px>, because 3 <img src=./images/hexagon_symbol.png style=width:14px;height:14px> 3 = 0.","orientation_history":[0],"rt":734,"trial_type":"polygon-arrow-instructions","trial_index":0,"trial_index_global":44,"time_elapsed":297357,"internal_chunk_id":"0-0"},{"nsides":6,"question":"Now you try! What is the inverse of 4 under <img src=./images/hexagon_symbol.png style=width:14px;height:14px>? <br /><br /> (Remember, the inverse of an element is the thing which you combine with it to produce the identity.)","response_type":"free","response_choices":[],"correct_response":"2","response":"3","orientation_history":[[0]],"response_history":["3"],"rt":2641,"trial_type":"polygon-arrow-question","trial_index":0,"trial_index_global":45,"time_elapsed":300031,"internal_chunk_id":"0-0.7-0"},{"nsides":6,"feedback":"Sorry, that was incorrect. The inverse of 4 under <img src=./images/hexagon_symbol.png style=width:14px;height:14px> is 2 because 4 <img src=./images/hexagon_symbol.png style=width:14px;height:14px> 2 = 0, and 0 is the identity under <img src=./images/hexagon_symbol.png style=width:14px;height:14px>.","orientation_history":[0],"rt":1153,"trial_type":"polygon-arrow-feedback","trial_index":0,"trial_index_global":46,"time_elapsed":301220,"internal_chunk_id":"0-0.7-0"},{"nsides":6,"question":"What is the inverse of 1 under <img src=./images/hexagon_symbol.png style=width:14px;height:14px>? <br /><br /> (Remember, the inverse of an element is the thing which you combine with it to produce the identity.)","response_type":"free","response_choices":[],"correct_response":"5","response":"5","orientation_history":[[0]],"response_history":["5"],"rt":2244,"trial_type":"polygon-arrow-question","trial_index":0,"trial_index_global":47,"time_elapsed":303474,"internal_chunk_id":"0-0.7-0"},{"nsides":6,"feedback":"Correct! The inverse of 1 under <img src=./images/hexagon_symbol.png style=width:14px;height:14px> is 5 because 1 <img src=./images/hexagon_symbol.png style=width:14px;height:14px> 5 = 0, and 0 is the identity under <img src=./images/hexagon_symbol.png style=width:14px;height:14px>.","orientation_history":[0],"rt":676,"trial_type":"polygon-arrow-feedback","trial_index":0,"trial_index_global":48,"time_elapsed":304158,"internal_chunk_id":"0-0.7-0"},{"nsides":6,"question":"What is the inverse of 3 under <img src=./images/hexagon_symbol.png style=width:14px;height:14px>? <br /><br /> (Remember, the inverse of an element is the thing which you combine with it to produce the identity.)","response_type":"free","response_choices":[],"correct_response":"3 ","response":"3","orientation_history":[[0]],"response_history":["3"],"rt":1310,"trial_type":"polygon-arrow-question","trial_index":0,"trial_index_global":49,"time_elapsed":305475,"internal_chunk_id":"0-0.7-0"},{"nsides":6,"feedback":"Correct! The inverse of 3 under <img src=./images/hexagon_symbol.png style=width:14px;height:14px> is 3 because 3 <img src=./images/hexagon_symbol.png style=width:14px;height:14px> 3 = 0, and 0 is the identity under <img src=./images/hexagon_symbol.png style=width:14px;height:14px>.","orientation_history":[0],"rt":514,"trial_type":"polygon-arrow-feedback","trial_index":0,"trial_index_global":50,"time_elapsed":305995,"internal_chunk_id":"0-0.7-0"},{"nsides":6,"question":"What is the inverse of 2 under <img src=./images/hexagon_symbol.png style=width:14px;height:14px>? <br /><br /> (Remember, the inverse of an element is the thing which you combine with it to produce the identity.)","response_type":"free","response_choices":[],"correct_response":"4","response":"4","orientation_history":[[0]],"response_history":["4"],"rt":1359,"trial_type":"polygon-arrow-question","trial_index":0,"trial_index_global":51,"time_elapsed":307363,"internal_chunk_id":"0-0.7-0"},{"nsides":6,"feedback":"Correct! The inverse of 2 under <img src=./images/hexagon_symbol.png style=width:14px;height:14px> is 4 because 2 <img src=./images/hexagon_symbol.png style=width:14px;height:14px> 4 = 0, and 0 is the identity under <img src=./images/hexagon_symbol.png style=width:14px;height:14px>.","orientation_history":[0],"rt":549,"trial_type":"polygon-arrow-feedback","trial_index":0,"trial_index_global":52,"time_elapsed":307920,"internal_chunk_id":"0-0.7-0"},{"nsides":6,"question":"What is the inverse of 0 under <img src=./images/hexagon_symbol.png style=width:14px;height:14px>? <br /><br /> (Remember, the inverse of an element is the thing which you combine with it to produce the identity.)","response_type":"free","response_choices":[],"correct_response":"0","response":"0","orientation_history":[[0]],"response_history":["0"],"rt":2190,"trial_type":"polygon-arrow-question","trial_index":0,"trial_index_global":53,"time_elapsed":310112,"internal_chunk_id":"0-0.7-0"},{"nsides":6,"feedback":"Correct! The inverse of 0 under <img src=./images/hexagon_symbol.png style=width:14px;height:14px> is 0 because 0 <img src=./images/hexagon_symbol.png style=width:14px;height:14px> 0 = 0, and 0 is the identity under <img src=./images/hexagon_symbol.png style=width:14px;height:14px>.","orientation_history":[0],"rt":553,"trial_type":"polygon-arrow-feedback","trial_index":0,"trial_index_global":54,"time_elapsed":310670,"internal_chunk_id":"0-0.7-0"},{"nsides":6,"instructions":"It is also possible to successively apply <img src=./images/hexagon_symbol.png style=width:14px;height:14px>, and the operation can simply be performed starting with the left-most pair. For e xample,  2 <img src=./images/hexagon_symbol.png style=width:14px;height:14px> 3 <img src=./images/hexagon_symbol.png style=width:14px;height:14px> 4 = 5 <img src=./images/hexagon_symbol.png style=width:14px;height:14px> 4 = 3.","orientation_history":[0],"rt":772,"trial_type":"polygon-arrow-instructions","trial_index":0,"trial_index_global":55,"time_elapsed":311452,"internal_chunk_id":"0-0"},{"nsides":6,"instructions":"We have one last definition to learn today, using the successive operations we just learned. Let's start with an example. Under our operation <img src=./images/hexagon_symbol.png style=width:14px;height:14px> we can make every other number using just 1: 2 = 1 <img src=./images/hexagon_symbol.png style=width:14px;height:14px> 1, 3 = 1 <img src=./images/hexagon_symbol.png style=width:14px;height:14px> 1 <img src=./images/hexagon_symbol.png style=width:14px;height:14px> 1, 4 = 1 <img src=./images/hexagon_symbol.png style= width:14px;height:14px> 1 <img src=./images/hexagon_symbol.png style=width:14px;height:14px> 1 <img src=./images/hexagon_symbol.png style=width:14px;height:14px> 1, 5 = 1 <img src=./images/hexagon_symbol.png style=width:14px;height:14px> 1 <img src=./images/hexagon_symbol.png style=width:14px;height:14px> 1 <img src=./images/hexagon_symbol.png style=width:14px;height:14px> 1 <img src=./images/hexagon_symbol.png style=width:14px;height:14px> 1, and 0 = 1 <img src=./images/hexagon_symbol.png style=width:14px;height:14px> 1 <img src=./images/hexagon_symbol.png style=width:14px;height:14px> 1 <img src=./images/hexagon_symbol.png style=width:14px;height:14px> 1 <img src=./images/hexagon_symbol.png style=width:14px;height:14px> 1 <img src=./images/hexagon_symbol.png style=width:14px;height:14px> 1. Because 1 can make every other element under <img src=./images/hexagon_symbol.png style=width:1 4px;height:14px>, we say that 1 is a <i>generator</i> under <img src=./images/hexagon_symbol.png style=width:14px;height:14px>. <br /><br /> However, 2 is not a generator under <img src=./images/hexagon_symbol.png style=width:14px;height:14px>, because 4 = 2 <img src=./images/hexagon_symbol.png style=width:14px;height:14px> 2, and 0 = 2 <img src=./images/hexagon_symbol.png style=width:14px;height:14px> 2 <img src=./images/hexagon_symbol.png style=width:14px;height:14px> 2, but there is no way to make 1, 3, or 5 using just 2.","orientation_history":[0],"rt":753,"trial_type":"polygon-arrow-instructions","trial_index":0,"trial_index_global":56,"time_elapsed":312216,"internal_chunk_id":"0-0"},{"nsides":6,"question":"Now you try! Is 3 a generator under <img src=./images/hexagon_symbol.png style=width:14px;height:14px>? <br /><br /> (Remember, a generator is an element which can make every other element.)","response_type":"multi","response_choices":["Yes","No"],"correct_response":"No","response":"Yes","orientation_history":[[0]],"response_history":["Yes"],"rt":3337,"trial_type":"polygon-arrow-question","trial_index":0,"trial_index_global":57,"time_elapsed":315563,"internal_chunk_id":"0-0.10-0"},{"nsides":6,"feedback":"Sorry, that's incorrect. 3 is not a generator under <img src=./images/hexagon_symbol.png style=width:14px;height:14px>, because 3 = 3, 0 = 3 <img src=./images/hexagon_symbol.png style=width:14px;height:14px> 3, but there is no way to make 1, 2, 4, or 5 using just 3.","orientation_history":[0],"rt":576,"trial_type":"polygon-arrow-feedback","trial_index":0,"trial_index_global":58,"time_elapsed":316146,"internal_chunk_id":"0-0.10-0"},{"nsides":6,"question":"Is 5 a generator under <img src=./images/hexagon_symbol.png style=width:14px;height:14px>? <br /><br /> (Remember, a generator is an element which can make every other element.)","response_type":"multi","response_choices":["Yes","No"],"correct_response":"Yes","response":"Yes","orientation_history":[[0]],"response_history":["No","Yes"],"rt":1708,"trial_type":"polygon-arrow-question","trial_index":0,"trial_index_global":59,"time_elapsed":317864,"internal_chunk_id":"0-0.10-0"},{"nsides":6,"feedback":"Correct! 5 is a generator under <img src=./images/hexagon_symbol.png style=width:14px;height:14px>, because 5 = 5, 4 = 5 <img src=./images/hexagon_symbol.png style=width:14px;height:14px> 5, 3 = 5 <img src=./images/hexagon_symbol.png style=width:14px;height:14px> 5 <img src=./images/hexagon_symbol.png style=width:14px;height:14px> 5, 2 = 5 <img src=./images/hexagon_symbol.png style=width:14px;height:14px> 5 <img src=./images/hexagon_symbol.png style=width:14px;height:14px> 5 <img src=./images/hexagon_symbol.png style=width:14px;height:14px> 5, 1 = 5 <img src=./images/hexagon_symbol.png style=width:14px;height:14px> 5 <img src=./images/hexago n_symbol .png style=width:14px;height:14px> 5 <img src=./images/hexagon_symbol.png style=width:14px;height:14px> 5 <img src=./images/hexagon_symbol.png style=width:14px;height:14px> 5, and 0 = 5 <img src=./images/hexagon_symbol.png style=width:14px;height:14px> 5 <img src=./images/hexagon_symbol.png style=width:14px;height:14px> 5 <img src=./images/hexagon_symbol.png style=width:14px;height:14px> 5 <img src=./images/hexagon_symbol.png style=width:14px;height:14px> 5 <img src=./images/hexagon_symbol.png style=width:14px;height:14px> 5, so you can make all of the numbers under <img src=./images/hexagon_symbol.png style=width:14px;height:14px> using 5","orientation_history":[0],"rt":547,"trial_type":"polygon-arrow-feedback","trial_index":0,"trial_index_global":60,"time_elapsed":318421,"internal_chunk_id":"0-0.10-0"},{"nsides":6,"question":"Is 4 a generator under <img src=./images/hexagon_symbol.png style=width:1 4px;heig ht:14px>? <br /><br /> (Remember, a generator is an element which can make every other element.)","response_type":"multi","response_choices":["Yes","No"],"correct_response":"No","response":"Yes","orientation_history":[[0]],"response_history":["Yes"],"rt":1180,"trial_type":"polygon-arrow-question","trial_index":0,"trial_index_global":61,"time_elapsed":319607,"internal_chunk_id":"0-0.10-0"},{"nsides":6,"feedback":"Sorry, that's incorrect. 4 is not a generator under <img src=./images/hexagon_symbol.png style=width:14px;height:14px>, because 4 = 4, 2 = 4 <img src=./images/hexagon_symbol.png style=width:14px;height:14px> 4, and 0 = 4 <img src=./images/hexagon_symbol.png style=width:14px;height:14px> 4 <img src=./images/hexagon_symbol.png style=width:14px;height:14px> 4, but there is no way to make 1, 3, or 5 using just 4.","orientation_history":[0],"rt":480,"trial_type":"polygon-arrow-feedback","trial_index":0,"trial_index_global":62,"time_elapsed":320094,"internal_chunk_id":"0-0.10-0"},{"nsides":6,"question":"Is 0 a generator under <img src=./images/hexagon_symbol.png style=width:14px;height:14px>? <br /><br /> (Remember, a generator is an element which can make every other element.)","response_type":"multi","response_choices":["Yes","No"],"correct_response":"No","response":"No","orientation_history":[[0]],"response_history":["No"],"rt":1069,"trial_type":"polygon-arrow-question","trial_index":0,"trial_index_global":63,"time_elapsed":321167,"internal_chunk_id":"0-0.10-0"},{"nsides":6,"feedback":"Correct! 0 is not a generator under <img src=./images/hexagon_symbol.png style=width:14px;height:14px>, because 0 = 0, but there is no way to make 1, 2, 3, 4, or 5 using just 0.","orientation_history":[0],"rt":627,"trial_type":"polygon-arrow-feedback","trial_index":0,"trial_index_global":64,"time_elapsed":321801,"internal_chunk_id":"0-0.10-0"},{"nsides":9,"instructions":"Now we are going to ask you some questions abo ut a new  operation, <img src=./images/nonagon_symbol.png style=width:14px;height:14px>, on the numbers 0, 1, 2, 3, 4, 5, 6, 7, 8. It works exactly like <img src=./images/hexagon_symbol.png style=width:14px;height:14px>, except now you use the nonagon shown at the right. Equivalently, after adding the two numbers you subtract 9 if your result is 9 or greater.<br /><br />Do you see how the different ways of performing <img src=./images/nonagon_symbol.png style=width:14px;height:14px> give the same result, just like with <img src=./images/hexagon_symbol.png style=width:14px;height:14px>? By labeling the points of the nonagon with the numbers from 0 to 8, we ensure that when we combine two numbers under <img src=./images/nonagon_symbol.png style=width:14px;height:14px>, we only produce numbers between 0 and 8. When we use the arithmetic strategy, adding the second number to the first mimics counting around the nonagon, and subtracting 9 each time  we get a bove 8 makes sure the results correspond to the numbers on the points of the nonagon.<br /><br />We'll give you one practice question with feedback to make sure you understand the new operation. After that, try to complete the remaining questions as accurately as possible.","orientation_history":[0],"rt":1284,"trial_type":"polygon-arrow-instructions","trial_index":0,"trial_index_global":65,"time_elapsed":323090,"internal_chunk_id":"0-0"},{"nsides":9,"question":"Practice: What is 5 <img src=./images/nonagon_symbol.png style=width:14px;height:14px> 5?","response_type":"free","response_choices":[],"correct_response":"1","response":"1","orientation_history":[[0]],"response_history":["1"],"rt":2558,"trial_type":"polygon-arrow-question","trial_index":0,"trial_index_global":66,"time_elapsed":325653,"internal_chunk_id":"0-0.12-0"},{"nsides":9,"feedback":"Correct! 5 <img src=./images/nonagon_symbol.png style=width:14px;height:14px> 5 = 1 because 5 steps clockwise on t he nonag on from 5 brings us to 1. Equivalently, 5 + 5 = 10 and 10 - 9 = 1.","orientation_history":[0],"rt":872,"trial_type":"polygon-arrow-feedback","trial_index":0,"trial_index_global":67,"time_elapsed":326533,"internal_chunk_id":"0-0.12-0"},{"nsides":9,"question":"What is 3 <img src=./images/nonagon_symbol.png style=width:14px;height:14px> 3?","response_type":"free","response_choices":[],"correct_response":"6","response":"6","orientation_history":[[0]],"response_history":["6"],"rt":1814,"trial_type":"polygon-arrow-question","trial_index":0,"trial_index_global":68,"time_elapsed":328353,"internal_chunk_id":"0-0.12-0"},{"nsides":9,"question":"What is 7 <img src=./images/nonagon_symbol.png style=width:14px;height:14px> 4?","response_type":"free","response_choices":[],"correct_response":"2","response":"3","orientation_history":[[0]],"response_history":["3"],"rt":3141,"trial_type":"polygon-arrow-question","trial_index":0,"trial_index_global":69,"time_elapsed":331503,"internal_chunk_id":"0-0.12-0"},{"nsides":9,"question":"What is 1 <img src=./images/nonagon_symbol.png style=width:14px;height:14px> 8?","response_type":"free","response_choices":[],"correct_response":"0","response":"7","orientation_history":[[0]],"response_history":["7"],"rt":1436,"trial_type":"polygon-arrow-question","trial_index":0,"trial_index_global":70,"time_elapsed":332943,"internal_chunk_id":"0-0.12-0"},{"nsides":9,"question":"What is 5 <img src=./images/nonagon_symbol.png style=width:14px;height:14px> 4?","response_type":"free","response_choices":[],"correct_response":"0","response":"9","orientation_history":[[0]],"response_history":["9"],"rt":2968,"trial_type":"polygon-arrow-question","trial_index":0,"trial_index_global":71,"time_elapsed":335921,"internal_chunk_id":"0-0.12-0"},{"nsides":9,"question":"What is 6 <img src=./images/nonagon_symbol.png style=width:14px;height:14px> 6?","response_type":"free","response_choices":[],"correct_response":"3","response":"1","orientation_history":[[0]],"response_history":["1 ","1 ","1"],"rt":3284,"trial_type":"polygon-arrow-question","trial_index":0,"trial_index_global":72,"time_elapsed":339211,"internal_chunk_id":"0-0.12-0"},{"nsides":9,"question":"What is 4 <img src=./images/nonagon_symbol.png style=width:14px;height:14px> 1? Please explain in words how you got your answer.","response_type":"free","response_choices":[],"correct_response":"","response":"5","orientation_history":[[0]],"response_history":["5"],"rt":27321,"trial_type":"polygon-arrow-question","trial_index":0,"trial_index_global":73,"time_elapsed":366541,"internal_chunk_id":"0-0.12-0"},{"nsides":9,"question":"What is 8 <img src=./images/nonagon_symbol.png style=width:14px;height:14px> 4? Please explain in words how you got your answer.","response_type":"free","response_choices":[],"correct_response":"","response":"4","orientation_history":[[0]],"response_history":["4"],"rt":1782,"trial_type":"polygon-arrow-questi on","trial_index":0,"trial_index_global":74,"time_elapsed":368357,"internal_chunk_id":"0-0.12-0"},{"nsides":9,"question":"What is the identity under <img src=./images/nonagon_symbol.png style=width:14px;height:14px>? Please explain in words how you got your answer.","response_type":"free","response_choices":[],"correct_response":"0","response":"5","orientation_history":[[0]],"response_history":["5"],"rt":5610,"trial_type":"polygon-arrow-question","trial_index":0,"trial_index_global":75,"time_elapsed":373973,"internal_chunk_id":"0-0.12-0"},{"nsides":9,"question":"What is the inverse of 5 under <img src=./images/nonagon_symbol.png style=width:14px;height:14px>?","response_type":"free","response_choices":[],"correct_response":"4","response":"4","orientation_history":[[0]],"response_history":["4"],"rt":2232,"trial_type":"polygon-arrow-question","trial_index":0,"trial_index_global":76,"time_elapsed":376210,"internal_chunk_id":"0-0.12-0"},{"nsides":9,"question":"What is th e invers e of 2 under <img src=./images/nonagon_symbol.png style=width:14px;height:14px>?","response_type":"free","response_choices":[],"correct_response":"7","response":"7","orientation_history":[[0]],"response_history":["7"],"rt":1587,"trial_type":"polygon-arrow-question","trial_index":0,"trial_index_global":77,"time_elapsed":377834,"internal_chunk_id":"0-0.12-0"},{"nsides":9,"question":"What is the inverse of 0 under <img src=./images/nonagon_symbol.png style=width:14px;height:14px>?","response_type":"free","response_choices":[],"correct_response":"0","response":"9","orientation_history":[[0]],"response_history":["9"],"rt":1528,"trial_type":"polygon-arrow-question","trial_index":0,"trial_index_global":78,"time_elapsed":379368,"internal_chunk_id":"0-0.12-0"},{"nsides":9,"question":"What is the inverse of 3 under <img src=./images/nonagon_symbol.png style=width:14px;height:14px>? Please explain in words how you got your answer.","response_type":"free","response_choices":[],"correct_response":"","response":"6, by subtracting 3 from 9","orientation_history":[[0]],"response_history":["6, by subtracting 3 from 9"],"rt":7046,"trial_type":"polygon-arrow-question","trial_index":0,"trial_index_global":79,"time_elapsed":386417,"internal_chunk_id":"0-0.12-0"},{"nsides":9,"question":"Is 2 a generator under <img src=./images/nonagon_symbol.png style=width:14px;height:14px>? Please explain in words how you got your answer.","response_type":"free","response_choices":[],"correct_response":"","response":"7 by subtracting 2 form 9","orientation_history":[[0]],"response_history":["7 by subtracting 2 form 9"],"rt":4847,"trial_type":"polygon-arrow-question","trial_index":0,"trial_index_global":80,"time_elapsed":391269,"internal_chunk_id":"0-0.12-0"},{"nsides":9,"question":"Is 3 a generator under <img src=./images/nonagon_symbol.png style=width:14px;height:14px>? Please explain in words how you got your answer.","response_type":"free","response_choices":[],"correct_response":"","response":"6 by subtracting","orientation_history":[[0]],"response_history":["6 by subtracting"],"rt":3989,"trial_type":"polygon-arrow-question","trial_index":0,"trial_index_global":81,"time_elapsed":395263,"internal_chunk_id":"0-0.12-0"},{"nsides":9,"question":"Is 5 a generator under <img src=./images/nonagon_symbol.png style=width:14px;height:14px>? Please explain in words how you got your answer.","response_type":"free","response_choices":[],"correct_response":"","response":"4 by subtraxting","orientation_history":[[0]],"response_history":["4 b ","4 by subtraxting"],"rt":4606,"trial_type":"polygon-arrow-question","trial_index":0,"trial_index_global":82,"time_elapsed":399881,"internal_chunk_id":"0-0.12-0"},{"nsides":9,"question":"Is 6 a generator under <img src=./images/nonagon_symbol.png style=width:14px;height:14px>? Please explain in words how you got your answer.","response_type":"free","response_choices":[],"correct_response":"","response":"3 by subtracting ","orientation_history":[[0]],"response_history":["3 by subtracting "],"rt":3548,"trial_type":"polygon-arrow-question","trial_index":0,"trial_index_global":83,"time_elapsed":403437,"internal_chunk_id":"0-0.12-0"},{"nsides":"n","instructions":"Now we'd like to ask you some questions about <img src=./images/ngon_symbol.png style=width:14px;height:14px>, where n could be any postive counting number. For example, n could be 3, and the polygon a triangle, or n could be any other counting number you can think of, in which case the corresponding polygon would have n sides. Just as before, you can use either the polygon or arithmetic methods. If you need to write the operation, you can use (n), and your answers can include n to stand in for the arbitrary value if necessary. (You can use the polygon at the right to think, but it doesn't necessarily correspond to the real polygon, which is why we've left most of it dashed.)","orientation_history":[0],"rt":2164,"trial_type":"polygon-arrow-instructions","trial_index":0,"trial_index_global":84,"time_elapsed":405618,"internal_chunk_id":"0-0"},{"nsides":"n","question":"What is the formula for the inverse of 1 under <img src=./images/ngon_symbol.png style=width:14px;height:14px>?","response_type":"free","response_choices":[],"correct_response":"n-1","response":"2","orientation_history":[[0]],"response_history":["2"],"rt":2380,"trial_type":"polygon-arrow-question","trial_index":0,"trial_index_global":85,"time_elapsed":408007,"internal_chunk_id":"0-0.14-0"},{"nsides":"n","question":"What is the formula for the inverse of an element x under <img src=./images/ngon_symbol.png style=width:14px;height:14px>? Please explain in words how you got your answer.","response_type":"free","response_choices":[],"correct_response":"n-x","response":"3, and I'm not sure","orientation_history":[[0]],"response_history":["Im","I","3, n","3, and I'm not sure"],"rt":6007,"trial_type":"p olygon-a rrow-question","trial_index":0,"trial_index_global":86,"time_elapsed":414019,"internal_chunk_id":"0-0.14-0"},{"nsides":"n","question":"Is there a pattern to which elements are generators? How can you know if an element x is a generator under <img src=./images/ngon_symbol.png style=width:14px;height:14px> without seeing whether it can make all the elements?.","response_type":"free","response_choices":[],"correct_response":"","response":"I'm not sure honestly. ","orientation_history":[[0]],"response_history":["I'm not sure honestly. "],"rt":4703,"trial_type":"polygon-arrow-question","trial_index":0,"trial_index_global":87,"time_elapsed":418728,"internal_chunk_id":"0-0.14-0"},{"nsides":"n","question":"True or false: If x is an odd number, it must be a generator under <img src=./images/ngon_symbol.png style=width:14px;height:14px>.","response_type":"multi","response_choices":["True","False"],"correct_response":"False","response":"True","orientation_history":[[0]],"response_history":["True"],"rt":2620,"trial_type":"polygon-arrow-question","trial_index":0,"trial_index_global":88,"time_elapsed":421374,"internal_chunk_id":"0-0.14-0"},{"nsides":"n","question":"True or false: If x is an even number, it must not be a generator under <img src=./images/ngon_symbol.png style=width:14px;height:14px>.","response_type":"multi","response_choices":["True","False"],"correct_response":"False","response":"False","orientation_history":[[0]],"response_history":["False"],"rt":1698,"trial_type":"polygon-arrow-question","trial_index":0,"trial_index_global":89,"time_elapsed":423079,"internal_chunk_id":"0-0.14-0"},{"nsides":"n","question":"True or false: If x is not a generator under <img src=./images/ngon_symbol.png style=width:14px;height:14px>, x must be a divisor of n, that is, x must divide n evenly, with no remainder.","response_type":"multi","response_choices":["True","False"],"correct_response":"False","response":"True","orientation_history":[[0]],"response_history":["True"],"rt":1149,"trial_type":"polygon-arrow-question","trial_index":0,"trial_index_global":90,"time_elapsed":424234,"internal_chunk_id":"0-0.14-0"},{"nsides":"n","question":"True or false: If x is not a generator under <img src=./images/ngon_symbol.png style=width:14px;height:14px>, x must be a multiple of a divisor of n. Please explain in words why your answer is correct.","response_type":"free","response_choices":[],"correct_response":"True","response":"This is correct because the rules stated so","orientation_history":[[0]],"response_history":["This is correct because the rules stated so"],"rt":13084,"trial_type":"polygon-arrow-question","trial_index":0,"trial_index_global":91,"time_elapsed":437330,"internal_chunk_id":"0-0.14-0"},{"nsides":"n","question":"If an element x is a generator under <img src=./images/ngon_symbol.png style=width:14px;height:14px>, is its inverse a generator under <img src=./images/ngon_symbol.png style=wi dth:14px ;height:14px> always, sometimes, or never?","response_type":"multi","response_choices":["Always","Sometimes","Never"],"correct_response":"Always","response":"Always","orientation_history":[[0]],"response_history":["Always"],"rt":1951,"trial_type":"polygon-arrow-question","trial_index":0,"trial_index_global":92,"time_elapsed":439308,"internal_chunk_id":"0-0.14-0"},{"nsides":"n","question":"if an element x is a generator under <img src=./images/ngon_symbol.png style=width:14px;height:14px>, is x <img src=./images/ngon_symbol.png style=width:14px;height:14px> x a generator under <img src=./images/ngon_symbol.png style=width:14px;height:14px> always, sometimes, or never? Please explain in words why your answer is correct.","response_type":"free","response_choices":[],"correct_response":"sometimes","response":"Yes and I'm not sure because I don't understand the rules","orientation_history":[[0]],"response_history":["Yes and I'm not sure br","Yes and I'm  not sure  because I don't understand the rules"],"rt":8144,"trial_type":"polygon-arrow-question","trial_index":0,"trial_index_global":93,"time_elapsed":447462,"internal_chunk_id":"0-0.14-0"},{"nsides":"n","question":"If an element x is not a generator under <img src=./images/ngon_symbol.png style=width:14px;height:14px>, is x <img src=./images/ngon_symbol.png style=width:14px;height:14px> x a generator under <img src=./images/ngon_symbol.png style=width:14px;height:14px> always, sometimes, or never?","response_type":"multi","response_choices":["Always","Sometimes","Never"],"correct_response":"Never","response":"Sometimes","orientation_history":[[0]],"response_history":["Sometimes"],"rt":1618,"trial_type":"polygon-arrow-question","trial_index":0,"trial_index_global":94,"time_elapsed":449112,"internal_chunk_id":"0-0.14-0"},{"instructions":"We would like to ask you some questions about your background. Please press Continue to continue.","rt":574,"trial_type":"instru ctions","trial_index":0,"trial_index_global":95,"time_elapsed":449693,"internal_chunk_id":"0-0.15-0"},{"question":"What is your age?","response_type":"free","response_choices":[],"correct_response":"","response":"23","response_history":["23"],"rt":2695,"trial_type":"question","trial_index":0,"trial_index_global":96,"time_elapsed":452394,"internal_chunk_id":"0-0.15-0"},{"question":"What is your level of education?","response_type":"multi","response_choices":["Did not graduate high school","High school diploma","Some college, no degree","Associates Degree","Bachelors Degree","Some graduate school, no degree","Masters Degree","Doctorate, M.D., etc."],"correct_response":"","response":"Associates Degree","response_history":["Associates Degree"],"rt":1886,"trial_type":"question","trial_index":0,"trial_index_global":97,"time_elapsed":454287,"internal_chunk_id":"0-0.15-0"},{"question":"What is the most advanced math class you've completed? If you have multiple classes and you're not  sure wh ich one is most advanced, please list them.","response_type":"free","response_choices":[],"correct_response":"","response":"Geometry","response_history":["Geometry"],"rt":7739,"trial_type":"question","trial_index":0,"trial_index_global":98,"time_elapsed":462047,"internal_chunk_id":"0-0.15-0"},{"question":"How familiar are you with the concept of modular arithmetic?","response_type":"multi","response_choices":["1 - never heard of it","2 - heard of it but didn't know what it was","3 - seen it used or explained","4 - used it but not often or recently","5 - used it, remember and understand it"],"correct_response":"1","response":"1 - never heard of it","response_history":["1 - never heard of it"],"rt":2727,"trial_type":"question","trial_index":0,"trial_index_global":99,"time_elapsed":464837,"internal_chunk_id":"0-0.15-0"},{"question":"How familiar are you with the concept of a mathematical group?","response_type":"multi","response_choices":["1 - never heard of it","2 - heard of i t but di dn't know what it was","3 - seen it used or explained","4 - used it but not often or recently","5 - used it, remember and understand it"],"correct_response":"1","response":"3 - seen it used or explained","response_history":["1 - never heard of it","3 - seen it used or explained"],"rt":2463,"trial_type":"question","trial_index":0,"trial_index_global":100,"time_elapsed":467318,"internal_chunk_id":"0-0.15-0"},{"question":"Do you feel you learned something from this HIT?","response_type":"multi","response_choices":["1 - not at all","2 - somewhat","3 - definitely"],"correct_response":"1","response":"3 - definitely","response_history":["1 - not at all","2 - somewhat","3 - definitely"],"rt":2912,"trial_type":"question","trial_index":0,"trial_index_global":101,"time_elapsed":470237,"internal_chunk_id":"0-0.15-0"},{"question":"Do you feel you understood the concepts in this HIT?","response_type":"multi","response_choices":["1 - not at all","2 - somewhat","3 - definitely"],"correct_response":"1","response":"1 - not at all","response_history":["1 - not at all"],"rt":1691,"trial_type":"question","trial_index":0,"trial_index_global":102,"time_elapsed":471975,"internal_chunk_id":"0-0.15-0"},{"question":"Did you enjoy this HIT?","response_type":"multi","response_choices":["1 - not at all","2 - somewhat","3 - definitely"],"correct_response":"1","response":"3 - definitely","response_history":["3 - definitely"],"rt":1261,"trial_type":"question","trial_index":0,"trial_index_global":103,"time_elapsed":473244,"internal_chunk_id":"0-0.15-0"},{"question":"What is your gender?","response_type":"multi","response_choices":["Female","Male","Other"],"correct_response":"","response":"Female","response_history":["Female"],"rt":1149,"trial_type":"question","trial_index":0,"trial_index_global":104,"time_elapsed":474397,"internal_chunk_id":"0-0.15-0"},{"question":"What is/are your native language(s)? (The languages spoken in your household when you were a child.)","response_type":"fre e","response_choices":[],"correct_response":"","response":"English","response_history":["English"],"rt":2447,"trial_type":"question","trial_index":0,"trial_index_global":105,"time_elapsed":476850,"internal_chunk_id":"0-0.15-0"},{"question":"Did you use pen and paper at any point on this HIT?","response_type":"free","response_choices":[],"correct_response":"","response":"No","response_history":["No"],"rt":2580,"trial_type":"question","trial_index":0,"trial_index_global":106,"time_elapsed":479438,"internal_chunk_id":"0-0.15-0"},{"question":"Do you have any comments on this HIT?","response_type":"free","response_choices":[],"correct_response":"","response":"Very fun","response_history":["Very fun"],"rt":3426,"trial_type":"question","trial_index":0,"trial_index_global":107,"time_elapsed":482869,"internal_chunk_id":"0-0.15-0"}]