[{"nsides":6,"instructions":"Let's define a new operation <img src=./images/hexagon_symbol.png style=width:14px;height:14px>. This operation will give us a way of combining two of the numbers 0, 1, 2, 3, 4, 5 to get another one of them back. To perform <img src=./images/hexagon_symbol.png style=width:14px;height:14px>, you can either use a method based on the hexagon at right, or a method based on arithmetic.<br /><b>Hexagon method:</b> you can use the interactive diagram on the right, or perform the operation in your mind. Point the arrow at the first number on the hexagon by clicking, then click (or click and drag) to move the arrow the second number of points clockwise around the hexagon. The number the arrow arrives at is your result. (The operation is called <img src=./images/hexagon_symbol.png style=width:14px;height:14px> because it uses the hexagon, which has 6 sides.) <br ><b>Arithmetic method:</b> you start with the first number, and then add  the sec ond one to it. If the sum is smaller than 6, that's your result. If the sum is 6 or bigger, you subtract 6 to get your result. <br /><br />For example, 3 <img src=./images/hexagon_symbol.png style=width:14px;height:14px> 5 = 2, because 5 steps clockwise from 3 on the hexagon brings us to 2. Equivalently, 3 + 5 = 8, and 8 is bigger than 6, so we subtract 6, and 8 - 6 = 2. So 3 <img src=./images/hexagon_symbol.png style=width:14px;height:14px> 5 = 2.<br /><br />Similarly, 1 <img src=./images/hexagon_symbol.png style=width:14px;height:14px> 4 = 5, because 1 + 4 = 5, and 5 is less than 6 so we leave it alone. Equivalently, 4 steps clockwise from 1 on the hexagon brings us to 5. <br /><br />Click Continue when you're ready to move on.","orientation_history":[0],"rt":137084,"trial_type":"polygon-arrow-instructions","trial_index":0,"trial_index_global":1,"time_elapsed":233403,"internal_chunk_id":"0-0"},{"nsides":6,"instructions":"Do you see how the diffe rent way s of performing <img src=./images/hexagon_symbol.png style=width:14px;height:14px> give the same result? By labeling the points of the hexagon with the numbers from 0 to 5, we ensure that when we combine two numbers using the hexagon, we only produce numbers between 0 and 5. When we use the arithmetic strategy, adding the second number to the first mimics counting around the hexagon, and subtracting 6 each time we get above 5 makes sure the results correspond to the numbers on the points of the hexagon. <br /><br />Click Continue when you're ready to move on.","orientation_history":[0],"rt":15112,"trial_type":"polygon-arrow-instructions","trial_index":0,"trial_index_global":2,"time_elapsed":248522,"internal_chunk_id":"0-0"},{"nsides":6,"question":"Now try one on your own! What is 4 <img src=./images/hexagon_symbol.png style=width:14px;height:14px> 5? <br /><br /> (Remember, to perform <img src=./images/hexagon_symbol.png style=width:14px;height:14px >, you  can either use a method based on the hexagon at right, or a method based on arithmetic.<br /><br /><b>Hexagon method:</b> you can use the interactive diagram on the right, or perform the operation in your mind. Point the arrow at the first number, then move the arrow the second number of points clockwise around the hexagon. The number the arrow arrives at is your result. <br /><br /><b>Arithmetic method:</b> you start with the first number, and then add the second one to it. If the sum is smaller than 6, that's your result. If the sum is 6 or bigger, you subtract 6 to get your result.)","response_type":"free","response_choices":[],"correct_response":"3","response":"4 + 5 = 9","orientation_history":[[0],[5.2587490048336685,5.2587490048336685,5.2587490048336685,5.2587490048336685,5.2587490048336685,5.2587490048336685,5.2587490048336685,5.2587490048336685,5.2587490048336685,5.2587490048336685,5.2587490048336685,5.2587490048336685,5.2587490048336685,5.2587490048336685,5.235987755982988],[5.275705241876658,5.275705241876658,5.275705241876658,5.275705241876658,5.275705241876658,5.275705241876658,5.275705241876658,5.275705241876658,5.275705241876658,5.275705241876658,5.275705241876658,5.275705241876658,5.275705241876658,5.275705241876658,5.281702171485351,5.287813630919974,5.287813630919974,5.303546147600734,5.332638466367511,5.346411700048112,5.394705535259438,5.402425096879728,5.4452040821711964,5.479931898642585,5.515966958855117,5.590116478513737,5.629102582765226,5.6613610193489965,5.6837328223378485,5.706810086588403,5.730600956888872,5.780342096251726,5.806293439514051,5.872468344064914,5.919206350669942,5.952089230475454,5.9988005305857275,6.059708706038953,6.074162364373322,6.103331807387108,6.132813879172452,6.149656258087715,6.164344962611821,6.179085369069987,6.193871314186364,6.223554594048417,6.253782018975581,6.268480484801735,6.268480484801735,6.268480484801735,0.014704822377851423,0.08800737352774068,0.10257985241829459,0.14601225771127524,0.1746721990082396,0.20304521725346514,0.23441567572381072,0.2484874206574026,0.280299656338451,0.29849893158617924,0.3170557532091469,0.38895688017900687,0.429178508001298,0.5211381434841182,0.5924273534318786,0.6276294258014943,0.6624262938331511,0.6747409422235526,0.6747409422235526,0.7086262721276702,0.7409829481505374,0.7631795980707292,0.7744095947147146,0.7744095947147146,0.7744095947147146,0.7744095947147146,0.7744095947147146,0.7853981633974483,0.7853981633974483,0.7853981633974483,0.7853981633974483,0.7853981633974483,0.7853981633974483,0.7853981633974483,0.7853981633974483,0.7853981633974483,0.7853981633974483,0.7853981633974483,0.7853981633974483,0.7853981633974483,0.7853981633974483,0.7853981633974483,0.7853981633974483,0.7853981633974483,0.7636624565556556,0.6868176497586452,0.6498704494119475,0.5431895762878278,0.4266274931268761,0.2782996590051112,0.08599429119424062,5.99806757200699,5.593149190684547,5.433129197358157,5.375814988252117,5.338650417983445,5.307352028368584,5.2911964407939704,5.270988295728252,5.259781868316145,5.252808480655274,5.222597894652967,5.204198156373388,5.189972969291652,5.183029482390829,5.165547463590276,5.1584945293280935,5.151393691590882,5.151393691590882,5.151393691590882,5.151393691590882,5.151393691590882,5.151393691590882,5.154763203361434,5.16164909299657,5.157856774312517,5.17229128854566,5.183699274655035,5.187619082994152,5.188331051863648,5.196866909421713,5.201241334712437,5.197309975409556,5.201781972612547,5.1977722962272885,5.202346306638418,5.202346306638418,5.202346306638418,5.202346306638418,5.202346306638418,5.202346306638418,5.202346306638418,5.184885915901754,5.180520864260312,5.185086116099279,5.185086116099279,5.189734362758362,5.189734362758362,5.199288212195959,5.199288212195959,5.199288212195959,5.199288212195959,5.199288212195959,5.199288212195959,5.199288212195959,5.199288212195959,5.199288212195959,5.199288212195959,5.199288212195959,5.199288212195959,5.199288212195959,5.199288212195959,5.199288212195959,5.204198156373388,5.204198156373388,5.20919978188806,5.22361969266248,5.22361969266248,5.228871985081417,5.2490771546886155,5.264043962913236,5.279118197908196,5.300391583932257,5.315822457822952,5.337874020623919,5.376435143211374,5.416002763164142,5.4571591061007645,5.465540261346884,5.4813951694741325,5.514734673588543,5.549465228264568,5.574559035051916,5.619982314473493,5.657138784686055,5.684766413701048,5.715518882807706,5.785842590832764,5.825187355582365,5.871513963747692,5.945307118939308,5.977306435774734,6.0169332580286605,6.041264738495181,6.105589139896098,6.1465421446885,6.196979733503808,6.246165191305656,0.024091723424921163,0.04815551305991539,0.06016825115500968,0.06016825115500968,0.06016825115500968,0.06016825115500968,0.06016825115500968,0.06016825115500968,0.06016825115500968,0.06016825115500968,0.07216362895965744,0.07216362895965744,0.07216362895965744,0.07216362895965744,0.07216362895965744,0.07216362895965744,0.07216362895965744,0.07216362895965744,0.07216362895965744,0.07216362895965744,0.07216362895965744,0.07216362895965744,0.09608871551736686,0.13497674985392338,0.17114860541618193,0.20938539295349545,0.26836621090590684,0.2799498225237911,0.2799498225237911,0.2799498225237911,0.28330796437545414,0.29493705884880694,0.34135588525384675,0.39670866289121376,0.4524748895620667,0.5298490694560665,0.6016536326583255,0.6260465224935313,0.6435011087932844,0.6805212246672143,0.7246036075226593,0.7768513629648368,0.8608847083313717,0.9505468408120751,0.982793723247329,1.0040671092713902,1.0248110212891581,1.0341081524909712,1.0341081524909712,1.0341081524909712,1.0341081524909712,1.0341081524909712,1.0341081524909712,1.0341081524909712,1.0341081524909712,1.0341081524909712,1.0341081524909712,1.0341081524909712,1.0341081524909712,1.0341081524909712,1.0341081524909712,1.0341081524909712,1.0341081524909712,1.0341081524909712,1.0341081524909712,1.0341081524909712,1.0341081524909712,1.0341081524909712,1.04350927978061,1.0584068664841588,1.082763308621372,1.1220729827841756,1.2490457723982544,1.2490457723982544,1.2847448850775782,1.3065363068815665,1.3397056595989996,1.3868528702577214,1.4321565896607384,1.4780400066067527,1.5133882121580968,1.5363272257953886,1.5707963267948966,1.5707963267948966,1.5937807842363487,1.6052654277944045,1.651083142077913,1.68523663206496,1.7415315382701793,1.7858112085424032,1.81847768604377,1.8506134353181398,1.8717165611553217,1.89603118764868,1.9064348771225057,1.9411197564976714,1.9513027039072615,1.9513027039072615,1.9513027039072615,1.9513027039072615,1.9513027039072615,1.9513027039072615,1.9513027039072615,1.9513027039072615,1.9513027039072615,1.9513027039072615,1.9513027039072615,1.9513027039072615,1.9513027039072615,1.9513027039072615,1.9513027039072615,1.9513027039072615,1.9513027039072615,1.9901379743449266,2.065522009279145,2.1384627511667764,2.211752911817701,2.27068919651414,2.3076888779519615,2.3460938236070232,2.3978370692909334,2.452668265374932,2.5283853047152838,2.5748634360662868,2.677945044588987,2.7282622490504655,2.8095331860469077,2.856474918417197,2.8767753236840043,2.912360720312798,2.9441970937399127,2.9473516574083893,2.999695598985629,3.015284536526553,3.048115872431204,3.048115872431204,3.0509327663890478,3.1126152597382317,3.1556762294126535,3.1826654321802472,3.1948755051494855,3.1948755051494855,3.1948755051494855,3.1948755051494855,3.1948755051494855,3.1948755051494855,3.1948755051494855,3.1948755051494855,3.1948755051494855,3.1948755051494855,3.1948755051494855,3.1948755051494855,3.1948755051494855,3.1948755051494855,3.1948755051494855,3.1948755051494855,3.1948755051494855,3.1948755051494855,3.2214226393020304,3.313220721970673,3.4673917688624636,3.572285164976301,3.6963848807276887,3.880150104071272,3.956832701654351,4.042417477354166,4.092139494401868,4.108639646987253,4.126983773593423,4.152802498530597,4.187593208734583,4.199999520073952,4.216623905280248,4.228744037410733,4.240773412522362,4.2487413713838835,4.2527096045229165,4.260692993524792,4.260692993524792,4.260692993524792,4.260692993524792,4.260692993524792,4.260692993524792,4.260692993524792,4.260692993524792,4.260692993524792,4.260692993524792,4.260692993524792,4.260692993524792,4.260692993524792,4.260692993524792,4.260692993524792,4.260692993524792,4.260692993524792,4.260692993524792,4.260692993524792,4.2487413713838835,4.2487413713838835,4.2487413713838835,4.2487413713838835,4.2487413713838835,4.2487413713838835,4.2487413713838835,4.2487413713838835,4.2487413713838835,4.2487413713838835,4.2487413713838835,4.2487413713838835,4.2487413713838835,4.2487413713838835,4.244709135172791,4.236693761529698,4.236693761529698,4.236693761529698,4.236693761529698,4.236693761529698,4.232548454866362,4.232548454866362,4.232548454866362,4.232548454866362,4.232548454866362,4.232548454866362,4.232548454866362,4.232548454866362,4.232548454866362,4.232548454866362,4.232548454866362,4.232548454866362,4.232548454866362,4.232548454866362,4.232548454866362,4.232548454866362,4.232548454866362,4.1887902047863905]],"response_history":["4 =","4 + 5 = 9"],"rt":60672,"trial_type":"polygon-arrow-question","trial_index":0,"trial_index_global":3,"time_elapsed":309197,"internal_chunk_id":"0-0.3-0"},{"nsides":6,"feedback":"Sorry, that was incorrect. 4 <img src=./images/hexagon_symbol.png style=width:14px;height:14px> 5 = 3 because 5 steps clockwise on the hexagon from 4 brings us to 3. Equivalently, 4 + 5 = 9 and 9 - 6 = 3.","orientation_history":[0],"rt":8835,"trial_type":"polygon-arrow-feedback","trial_index":0,"trial_index_global":4,"time_elapsed":318034,"internal_chunk_id":"0-0.3-0"},{"nsides":6,"question":"What is 3 <img src=./images/hexagon_symbol.png style=width:14px;height:14px> 2? Try to solve this problem using the hexagon. <br /><br /> (Remember, to perform <img src=./images/hexagon_symbol.png style=width:14px;height:14px> on the hexagon, you can use the interactive diagram on the right, or perform the ope ration i n your mind. Point the arrow at the first number on the hexagon, and then move the arrow the second number of points clockwise around the hexagon.)","response_type":"free","response_choices":[],"correct_response":"5","response":"5","orientation_history":[[0],[0,0,-6.267801905398991,-6.267801905398991,-6.252651549524221,-6.252651549524221,-6.252651549524221,-6.252651549524221,-6.252651549524221,-6.252651549524221,-6.2375081454802155,-6.237042379328521,-6.153547577437552,-6.018839199606274,-5.909031235128419,-5.871720463834683,-5.81172990904938,-5.796341955338084,-5.772668641930586,-5.724324310685947,-5.6132311380756,-5.442425054878252,-5.269465392422146,-5.202295766703489,-5.135864877567601,-5.070732398569648,-4.911820979005753,-4.850950243062444,-4.7614324180296475,-4.572650584057333,-4.514445725473188,-4.3845140188695755,-4.227223077245412,-4.112561678894743,-4.005348956750894,-3.919871689866297,-3.854758167873808,-3.7921784891883075,-3.717242149111628,-3.666628752079782,-3.648043531623608,-3.6142422699827224,-3.5849064062011604,-3.5648620671910836,-3.4876501427027504,-3.4332549838279887,-3.382360634374801,-3.2857609727424575,-3.2258779043003596,-3.1927774155850215,-3.1817077570549146,-3.159530247687445,-3.148427817135917,-3.1262092518091977,-3.1262092518091977,-3.1262092518091977,-3.1262092518091977,-3.1262092518091977,-3.1262092518091977,-3.1262092518091977,-3.1262092518091977,-3.1152206831264637,-3.104473544967405,-3.104473544967405,-3.104473544967405,-3.104473544967405,-3.104473544967405,-3.1042347675125352,-3.11509859791159,-3.11509859791159,-3.11509859791159,-3.11509859791159,-3.11509859791159,-3.11509859791159,-3.11509859791159,-3.11509859791159,-3.11509859791159,-3.11509859791159,-3.11509859791159,-3.11509859791159,-3.11509859791159,-3.11509859791159,-3.11509859791159,-3.11509859791159,-3.11509859791159,-3.1262092518091977,-3.1262092518091977,-3.1262092518091977,-3.1262092518091977,-3.1262092518091977,-3.1262092518091977,-3.015552030635302,-2.9936577195125236,-2.982756988505539,-2.9592390827842685,-2.857041759023497,-2.822000757469958,-2.6817900419080987,-2.6109642881231543,-2.5410968136247702,-2.5011865323877003,-2.4705136255676616,-2.441914460148048,-2.426316382089954,-2.4045544009444364,-2.383039490524751,-2.333818195406416,-2.3058602918810966,-2.291899082262555,-2.291899082262555,-2.291899082262555,-2.291899082262555,-2.291899082262555,-2.291899082262555,-2.291899082262555,-2.291899082262555,-2.291899082262555,-2.291899082262555,-2.291899082262555,-2.291899082262555,-2.291899082262555,-2.291899082262555,-2.291899082262555,-2.291899082262555,-2.291899082262555,-2.270504624293125,-2.2397077166754507,-2.217354566219809,-2.1947988307004733,-2.1522388290000025,-2.0731947836269873,-2.009010621122073,-1.9422886427453294,-1.8882331379410502,-1.843468372064927,-1.702491280402703,-1.6660701461881962,-1.5915417755270767,-1.484941580435506,-1.4267164237362868,-1.360254497897631,-1.315913659104142,-1.2862454322286014,-1.2577127153030006,-1.2370753266491974,-1.2268597544628497,-1.216714840811254,-1.196642254743729,-1.1867170223562509,-1.1768673297028078,-1.1670942068418357,-1.1573986093854494,-1.1573986093854494,-1.1573986093854494,-1.1573986093854494,-1.1573986093854494,-1.1573986093854494,-1.1573986093854494,-1.1573986093854494,-1.128785431887425,-1.128785431887425,-1.128785431887425,-1.128785431887425,-1.128785431887425,-1.128785431887425,-1.128785431887425,-1.128785431887425,-1.128785431887425,-1.128785431887425,-1.119408042656219,-1.110111881126616,-1.110111881126616,-1.110111881126616,-1.110111881126616,-1.110111881126616,-1.110111881126616,-1.110111881126616,-1.110111881126616,-1.1008974822329058,-1.1008974822329058,-1.1008974822329058,-1.091765316013495,-1.091765316013495,-1.091765316013495,-1.0827157892997121,-1.0827157892997121,-1.0827157892997121,-1.0827157892997121,-1.0827157892997121,-1.0827157892997121,-1.0827157892997121,-1.0827157892997121,-1.0827157892997121,-1.0827157892997121,-1.0827157892997121,-1.0827157892997121,-1.0827157892997121,-1.0827157892997121,-1.0827157892997121,-1.0827157892997121,-1.0827157892997121,-1.0827157892997121,-1.0827157892997121,-1.0827157892997121,-1.0827157892997121,-1.0827157892997121,-1.0827157892997121,-1.0827157892997121,-1.0827157892997121,5.235987755982988],[5.235987755982988,5.235987755982988,5.235987755982988,5.235987755982988,5.235987755982988,5.235987755982988,5.235987755982988,5.235987755982988,5.235987755982988,5.222565743242897,5.195194073115123,5.1383966628296,5.094090701378824,5.079016466383865,5.048437166377618,4.969735706832062,4.9048916792788555,4.805661142860429,4.739019151103935,4.656198520102191,4.604444223731807,4.571687269662296,4.5233774411894645,4.49180335524386,4.45058959258554,4.32361680297146,4.2572673299634,4.193265877614452,4.141260759510852,4.087722982669401,3.9869419835847335,3.9038007516962923,3.8251045523463105,3.7737374641952792,3.73958802801291,3.6954851891068663,3.6772390390422776,3.6772390390422776,3.6651914291880914,3.647649369130689,3.6064356064723686,3.519179171476816,3.4954131552197527,3.4375674988131824,3.3726924256034674,3.3095555448873313,3.2846850520757265,3.260299642903008,3.2485679520300312,3.248021951538288,3.213171203143669,3.1899164372309015,3.1550656888362822,3.131889246458717,3.132687330886241,3.132687330886241,3.132687330886241,3.132687330886241,3.132687330886241,3.132687330886241,3.132687330886241,3.132687330886241,3.132687330886241,3.132687330886241,3.132687330886241,3.132687330886241,3.132687330886241,3.132687330886241,3.132687330886241,3.132687330886241,3.132687330886241,3.132687330886241,3.132687330886241,3.132687330886241,3.132687330886241,3.132687330886241,3.132687330886241,3.132687330886241,3.132687330886241,3.132687330886241,3.132687330886241,3.132687330886241,3.132687330886241,3.132687330886241,3.132687330886241,3.132687330886241,3.132687330886241,3.132687330886241,3.132687330886241,3.132687330886241,3.132687330886241,3.132687330886241,3.132687330886241,3.132687330886241,3.132687330886241,3.132687330886241,3.132687330886241,3.132687330886241,3.132687330886241,3.132687330886241,3.132687330886241,3.132687330886241,3.132687330886241,3.132687330886241,3.132687330886241,3.132687330886241,3.132687330886241,3.132687330886241,3.132687330886241,3.132687330886241,3.132687330886241,3.132687330886241,3.132687330886241,3.132687330886241,3.132687330886241,3.132687330886241,3.132687330886241,3.132687330886241,3.132687330886241,3.132687330886241,3.132687330886241,3.132687330886241,3.132687330886241,3.132687330886241,3.132687330886241,3.132687330886241,3.132687330886241,3.132687330886241,3.132687330886241,3.132687330886241,3.132687330886241,3.132687330886241,3.132687330886241,3.132687330886241,3.132687330886241,3.132687330886241,3.132687330886241,3.132687330886241,3.132687330886241,3.132687330886241,3.132687330886241,3.132687330886241,3.132687330886241,3.132687330886241,3.132687330886241,3.132687330886241,3.132687330886241,3.132687330886241,3.132687330886241,3.132687330886241,3.132687330886241,3.132687330886241,3.132687330886241,3.132687330886241,3.132687330886241,3.132687330886241,3.132687330886241,3.132687330886241,3.132687330886241,3.132687330886241,3.132687330886241,3.132687330886241,3.132687330886241,3.144135705550486,3.1670747191877773,3.2015438201872852,3.2485679520300312,3.274584385490405,3.312201041361181,3.362635724724866,3.4013724652602755,3.44346438887169,3.5112467647297416,3.5558032428659514,3.601324918430082,3.6303218476333017,3.653697682473061,3.6937550870268514,3.772126583183075,3.8303401066027183,3.8915799366823247,3.9442329278197295,3.9952062582443846,4.205610929458675,4.205610929458675,4.205610929458675,4.205610929458675,4.205610929458675,4.205610929458675,4.205610929458675,4.205610929458675,4.205610929458675,4.205610929458675,4.205610929458675,4.214909055406241,4.233832690270609,4.283057129459698,4.313900824220448,4.37847153624582,4.407814144575247,4.442715739561439,4.527361483855318,4.56484392054698,4.602927103092564,4.641512750908125,4.680494020717444,4.74603042972926,4.785497282454938,4.851124107971326,4.890212250179398,4.903167543056239,4.928942023964197,4.954508457454945,4.969735706832062,4.995240379310558,5.007885127703045,5.036303870607886,5.0859607991988804,5.122195748839279,5.145837293088659,5.157497653345656,5.157497653345656,5.157497653345656,5.157497653345656,5.157497653345656,5.157497653345656,5.157497653345656,5.157497653345656,5.157497653345656,5.169048809873396,5.1804892507372715,5.1918176087375425,5.1918176087375425,5.1918176087375425,5.1918176087375425,5.1918176087375425,5.1918176087375425,5.1918176087375425,5.1918176087375425,5.1918176087375425,5.1918176087375425,5.1918176087375425,5.1918176087375425,5.1918176087375425,5.235987755982988]],"response_history":["5"],"rt":28112,"trial_type":"polygon-arrow-question","trial_index":0,"trial_index_global":5,"time_elapsed":346148,"internal_chunk_id":"0-0.3-0"},{"nsides":6,"feedback":"Correct! 3 <img src=./images/hexagon_sym bol.png style=width:14px;height:14px> 2 = 5 because 2 steps clockwise on the hexagon from 3 brings us to 5. Equivalently, 3 + 2 = 5 and 5 is less than 6.","orientation_history":[0],"rt":4953,"trial_type":"polygon-arrow-feedback","trial_index":0,"trial_index_global":6,"time_elapsed":351102,"internal_chunk_id":"0-0.3-0"},{"nsides":6,"question":"What is 1 <img src=./images/hexagon_symbol.png style=width:14px;height:14px> 5? Try to solve this probem using the arithmetic technique. <br /><br /> (Remember, to perform <img src=./images/hexagon_symbol.png style=width:14px;height:14px> by arithmetic, you start with the first number, and then add the second one to it. If the sum is smaller than 6, that's your result. If the sum is 6 or bigger, you subtract 6 to get your result.)","response_type":"free","response_choices":[],"correct_response":"0","response":"0","orientation_history":[[0],[0.014473501539969291,-6.2397344117880555,-6.224810146797971,-6.224810146797971,-6.162962520518278,-6.146257630629466,-6.095580024674901,-6.058414637386566,-6.026365769636247,-5.943619265913091,-5.897784584810346,-5.838940963212821,-5.824659678093382,-5.769093909781916,-5.7127911845986254,-5.6993149115174715,-5.686053089581058,-5.660170426494733,-5.660170426494733,-5.617702396498883,-5.617702396498883,-5.596233302994771,-5.58403878554652,-5.548791183785654,-5.5374774802790485,-5.515484411039909,-5.4951299312584725,-5.444235581805286,-5.424042488471832,-5.3944080932694,-5.3837466585717335,-5.363676361189862,-5.363676361189862,-5.354667595899445,-5.334907322372269,-5.315240306908536,-5.287582435917906,-5.27624331015941,-5.27624331015941,-5.27624331015941,-5.27624331015941,-5.27624331015941,-5.27624331015941,-5.27624331015941,-5.264722632616218,-5.264722632616218,-5.264722632616218,-5.256940688540727,-5.256940688540727,-5.249336272387033,-5.249336272387033,-5.249336272387033,-5.249336272387033,-5.249336272387033,-5.249336272387033,-5.249336272387033,-5.249336272387033,-5.249336272387033,-5.249336272387033,-5.249336272387033,-5.249336272387033,-5.249336272387033,-5.249336272387033,-5.249336272387033,-5.249336272387033,-5.249336272387033,-5.249336272387033,-5.249336272387033,-5.249336272387033,-5.249336272387033,-5.249336272387033,-5.249336272387033,-5.249336272387033,-5.249336272387033,-5.249336272387033,-5.249336272387033,-5.249336272387033,-5.249336272387033,-5.249336272387033,-5.249336272387033,-5.249336272387033,-5.249336272387033,-5.249336272387033,-5.249336272387033,-5.249336272387033,-5.249336272387033,-5.249336272387033,-5.249336272387033,-5.249336272387033,-5.249336272387033,-5.249336272387033,-5.237785943414518,-5.206982292818784,-5.195004503989923,-5.195004503989923,-5.182857765991693,-5.151451380015636,-5.0813485265905465,-4.990688639389801,-4.9631726501043465,-4.917425505650562,-4.886049399728064,-4.827028056114845,-4.768606737484321,-4.725216621281921,-4.668938084993159,-4.614198304943278,-4.588033985837928,-4.521370013679164,-4.481958815074248,-4.420824635896483,-4.395929381906448,-4.359235140450703,-4.299978538787302,-4.276990559524647,-4.243315616653527,-4.221418109835989,-4.189418793000563,-4.168657656768307,-4.1584497630763835,-4.1483572515014995,-4.138380197963711,-4.138380197963711,-4.138380197963711,-4.138380197963711,-4.138380197963711,-4.138380197963711,-4.138380197963711,-4.138380197963711,-4.138380197963711,-4.138380197963711,-4.138380197963711,-4.138380197963711,-4.138380197963711,-4.138380197963711,-4.138380197963711,-4.138380197963711,-4.138380197963711,-4.138380197963711,-4.138380197963711,-4.138380197963711,-4.138380197963711,-4.116519160672814,-4.0875579011882595,-4.04727816271007,-4.022979978687048,-4.007894916142472,-3.9725895042302084,-3.9192390342750345,-3.8835399215957107,-3.8565194724084457,-3.8290484653549797,-3.782963004140863,-3.7308905932004457,-3.647994940874847,-3.617287872444785,-3.5985825713455566,-3.5495948497508167,-3.5372544141363327,-3.493992199535678,-3.4457486179541643,-3.402652641400375,-3.363184618095717,-3.3168107040722044,-3.217570684216601,-3.1759066978009947,-3.1231365518171827,-3.0981417581982624,-3.0856424091789005,-3.0856424091789005,-3.0856424091789005,-3.0856424091789005,-3.0856424091789005,-3.0856424091789005,-3.0856424091789005,-3.0856424091789005,-3.0856424091789005,-3.0856424091789005,-3.0856424091789005,-3.0856424091789005,-3.0856424091789005,-3.0856424091789005,-3.0856424091789005,-3.0856424091789005,-3.0856424091789005,-3.0856424091789005,-3.073146964579342,-3.035722948202305,-3.035722948202305,-3.0232819104874955,-3.010864045248801,-2.9984731057071006,-2.959790788021137,-2.9105019863938963,-2.847139071555228,-2.7842035448617213,-2.689992654443173,-2.6674492468117545,-2.639988599400673,-2.5850838487892234,-2.5535900500422257,-2.5268042783646356,-2.506849692831141,-2.4806395180511887,-2.4616335424103113,-2.426997922762254,-2.352722281924104,-2.2973601930202188,-2.252211575018707,-2.215308743508557,-2.2086436566912147,-2.17292122601662,-2.1523681508248638,-2.1523681508248638,-2.1523681508248638,-2.1523681508248638,-2.1523681508248638,-2.1523681508248638,-2.1523681508248638,-2.1523681508248638,-2.1523681508248638,-2.1523681508248638,-2.1523681508248638,-2.1523681508248638,-2.1523681508248638,-2.1523681508248638,-2.1523681508248638,-2.1523681508248638,-2.1523681508248638,-2.1523681508248638,-2.1523681508248638,-2.1269417183723833,-2.06776493167395,-1.9959191089325943,-1.8711512324935233,-1.837944031774394,-1.781019527542008,-1.7577478674622276,-1.7223656988082867,-1.6744237867917677,-1.6380026525772609,-1.5889956020426252,-1.5520317734589648,-1.5273454314033659,-1.502659089347767,-1.4656952607641065,-1.4411398577275873,-1.4045101925254704,-1.392368681549443,-1.250677092321471,-1.23928998435274,-1.2167468310323377,-1.2018495761668886,-1.1906706120166382,-1.1906706120166382,-1.1906706120166382,-1.1906706120166382,-1.1906706120166382,-1.1906706120166382,-1.1906706120166382,-1.1906706120166382,-1.1906706120166382,-1.1906706120166382,-1.1906706120166382,-1.1906706120166382,-1.1906706120166382,-1.1906706120166382,-1.1906706120166382,-1.1906706120166382,-1.1906706120166382,-1.1906706120166382,-1.17957844354635,-1.17957844354635,-1.17957844354635,-1.17957844354635,-1.1534035114196195,-1.1115336423787374,-1.031793757917538,-0.9661820191150143,-0.9156184663474916,-0.8739190902226044,-0.8468242067361516,-0.8132547327912079,-0.7776463806852414,-0.7327732134608071,-0.6961078421248006,-0.639503414498793,-0.5892979396106526,-0.49459331243409377,-0.4448830556648753,-0.3889568801790073,-0.3267199324506862,-0.2958417190625138,-0.2651999716853348,-0.25198994175218914,-0.18126027302311254,-0.16475505413245717,-0.15123464399241904,-0.13278380234514486,-0.10610884448217295,-0.09087054656143767,-0.07757632441767459,-0.06281396749954826,-0.06281396749954826,-0.03533306559761318,-0.0222439061609343,-0.008450503066642412,-0.008450503066642412,0.01781548686985346,0.018139846248682368,0.018139846248682368,0.018139846248682368,6.283185307179586]],"response_history":["0"],"rt":12638,"trial_type":"polygon-arrow-question","trial_index":0,"trial_index_global":7,"time_elapsed":363741,"internal_chunk_id":"0-0.3-0"},{"nsides":6,"feedback":"Correct! 1 <img src=./images/hexagon_symbol.png style=width:14px;height:14px> 5 = 0 because 1 + 5 = 6 and 6 - 6 = 0.  Equivalently, 5 steps clockwise on the hexagon from 1 brings us to 0.","orientation_history":[0],"rt":2935,"trial_type":"polygon-arrow-feedback","trial_index":0,"trial_index_global":8,"time_elapsed":366677,"internal_chunk_id":"0-0.3-0"},{"nsides":6,"question":"What is 1 <img src=./images/hexagon_symbol.png style=width:14px;height:14px> 1? Try to solve this problem using the hexagon. <br /><br /> (Remember, to perform <img src=./images/hexagon_symbol.png style=width:14px;height:14px> on the hexagon, you can use the interactive diagram on the right, or perform the operation in your mind. Point the arrow at the first number on the h exagon,  and then move the arrow the second number of points clockwise around the hexagon.)","response_type":"free","response_choices":[],"correct_response":"2","response":"2","orientation_history":[[0],[0,0,-6.214328817878542,-6.111247209355842,-6.054977176974625,-5.9780835571601045,-5.898358545925562,-5.790659896001026,-5.710702521754445,-5.640888291723713,-5.577820602090591,-5.550282655051857,-5.513068895012265,-5.475408785832096,-5.428930654481094,-5.394461553481586,-5.3608541962230944,-5.338270767280348,-5.308635177553139,-5.308635177553139,-5.308635177553139,-5.308635177553139,-5.308635177553139,-5.308635177553139,-5.299228117325182,-5.277915311559735,-5.269017531322874,-5.269017531322874,-5.269017531322874,-5.248131081177122,-5.248131081177122,-5.248131081177122,-5.248131081177122,-5.248131081177122,-5.248131081177122,-5.248131081177122,-5.248131081177122,-5.248131081177122,-5.248131081177122,-5.248131081177122,-5.248131081177122,-5.248131081177122,-5.2357191706332875,-5.156784763949906,-5.135341667072344,-5.011881412492608,-4.912699983869346,-4.880381252030565,-4.797477155541995,-4.7266737229720865,-4.643532491083645,-4.595183104431742,-4.531105360253456,-4.531105360253456,-4.452348031486631,-4.4061582441104745,-4.360977538614058,-4.346167345859722,-4.302553537587296,-4.246453045858663,-4.219338083179879,-4.206022718966192,-4.167065071609938,-4.129612810085112,-4.09367930840706,-4.070566348194939,-4.070566348194939,-4.070566348194939,-4.070566348194939,-4.070566348194939,-4.070566348194939,-4.070566348194939,-4.070566348194939,-4.070566348194939,-4.070566348194939,-4.070566348194939,-4.082038827816547,-4.082038827816547,-4.082038827816547,-4.082038827816547,-4.082038827816547,-4.082038827816547,-4.105488283258021,-4.105488283258021,-4.105488283258021,-4.105488283258021,-4.105488283258021,-4.105488283258021,-4.117466072086882,-4.117466072086882,-4.117466072086882,-4.117466072086882,-4.117466072086882,-4.117466072086882,-4.117466072086882,-4.117466072086882,-4.117466072086882,-4.117466072086882,-4.117466072086882,-4.129612810085112,-4.129612810085112,-4.129612810085112,-4.129612810085112,-4.129612810085112,2.0943951023931953]],"response_history":["2"],"rt":6507,"trial_type":"polygon-arrow-question","trial_index":0,"trial_index_global":9,"time_elapsed":373185,"internal_chunk_id":"0-0.3-0"},{"nsides":6,"feedback":"Correct! 1 <img src=./images/hexagon_symbol.png style=width:14px;height:14px> 1 = 2 because 1 step clockwise on the hexagon from 1 brings us to 2. Equivalently, 1 + 1 = 2 and 2 is less than 6.","orientation_history":[0],"rt":2819,"trial_type":"polygon-arrow-feedback","trial_index":0,"trial_index_global":10,"time_elapsed":376005,"internal_chunk_id":"0-0.3-0"},{"nsides":6,"question":"What is 3 <img src=./images/hexagon_symbol.png style=width:14px;height:14px> 0? Try to solve this problem using the arithmetic technique. <br /><br /> (Remember, to perform <img src=./images/hexagon_symbol.png style=width:14p x;height :14px> using arithmetic, you start with the first number, and then add the second one to it. If the sum is smaller than 6, that's your result. If the sum is 6 or bigger, you subtract 6 to get your result.)","response_type":"free","response_choices":[],"correct_response":"3","response":"3","orientation_history":[[0],[0,0,0,0,0,0,0,0,0,0,-6.237741191386041,-6.191430591378045,-6.159414766102222,-6.157939840918054,-6.122488239371678,-6.07157177285932,-6.003639405875598,-5.872385170148446,-5.75506921464381,-5.653716224274504,-5.568596755599661,-5.453001644797863,-5.393004593649481,-5.264448166609897,-5.0922225610074054,-5.022477159107821,-4.9791594328069575,-4.9791594328069575,-4.9791594328069575,-4.9791594328069575,-4.922266228326087,-4.840750482652316,-4.777954367575927,-4.738638657410732,-4.575359547816778,-4.387365115256537,-4.283572774799494,-4.197617291428891,-4.157299448815807,-4.131419669553663,-4.1107577406322875,-4.1025312351725916,-3.9401479524599967,-3.864450174633212,-3.78842646620801,-3.7207574316159384,-3.6438029919728683,-3.581939395677157,-3.5392473899925,-3.4976361084923324,-3.4479737130577446,-3.398237646601787,-3.363853169449077,-3.3600088827645402,-3.311697447496896,-3.2938587468019245,-3.2938587468019245,-3.2789413315022333,-3.2789413315022333,-3.2789413315022333,-3.2789413315022333,-3.2789413315022333,-3.2789413315022333,-3.2789413315022333,-3.261670321678152,-3.244827942762889,-3.212402265407316,-3.1980372323470028,-3.1980372323470028,-3.1968041873492226,-3.168379676077282,-3.168379676077282,-3.168379676077282,-3.168379676077282,-3.168379676077282,-3.168379676077282,-3.168379676077282,-3.168379676077282,-3.168379676077282,-3.168379676077282,-3.168379676077282,-3.168379676077282,-3.168379676077282,-3.168379676077282,-3.168379676077282,-3.168379676077282,-3.168379676077282,-3.168379676077282,-3.168379676077282,-3.168379676077282,-3.168379676077282,-3.168379676077282,-3.168379676077282,-3.168379676077282,-3.168379676077282,-3.168379676077282,-3.168379676077282,-3.168379676077282,-3.168379676077282,-3.168379676077282,-3.168379676077282,-3.168379676077282,-3.168379676077282,-3.168379676077282,-3.1541298263397453,-3.1541298263397453,-3.1541298263397453,-3.1541298263397453,-3.1541298263397453,-3.1541298263397453,-3.1541298263397453,-3.1541298263397453,-3.1253824694938777,-3.0972153178481574,-3.0972153178481574,-3.0972153178481574,-3.0972153178481574,-3.0972153178481574,-3.0972153178481574,-3.0972153178481574,-3.0972153178481574,-3.0972153178481574,-3.0972153178481574,-3.0972153178481574,-3.0972153178481574,-3.0972153178481574,-3.0972153178481574,-3.0972153178481574,-3.0972153178481574,3.141592653589793]],"response_history":["3"],"rt":8986,"trial_type":"polygon-arrow-question","trial_index":0,"trial_index_global":11,"time_elapsed":384993,"internal_chunk_id":"0-0.3-0"},{"nsides":6,"feedback":"Correct! 3 <img src=./images/hexagon_symbol.png style=width:14px;height:14px> 0 = 3 because 3 + 0 = 3 and 3 - 6 = 3.  E quivalen tly, 0 steps clockwise on the hexagon from 3 brings us to 3.","orientation_history":[0],"rt":5933,"trial_type":"polygon-arrow-feedback","trial_index":0,"trial_index_global":12,"time_elapsed":390927,"internal_chunk_id":"0-0.3-0"},{"nsides":6,"question":"What is 4 <img src=./images/hexagon_symbol.png style=width:14px;height:14px> 4? Try to solve this problem using the hexagon. <br /><br /> (Remember, to perform <img src=./images/hexagon_symbol.png style=width:14px;height:14px> on the hexagon, you can use the interactive diagram on the right, or perform the operation in your mind. Point the arrow at the first number on the hexagon, and then move the arrow the second number of points clockwise around the hexagon.)","response_type":"free","response_choices":[],"correct_response":"2","response":"2","orientation_history":[[0],[0,0,0,0,-0.028161566987892295,6.197117534943587,6.136183395623929,6.0696757901959995,5.902033352364784,5.902033352364784,5.821442256239932,5.7317454180597185,5.657847082099017,5.529793827949256,5.409457325639236,5.286514759531762,5.215951480655603,5.117808897348559,5.080308854961105,5.027251353817501,4.969345148569394,4.909828657232822,4.844140536555017,4.7621940472283395,4.715467246827066,4.668603684776321,4.622766457514032,4.578561831296942,4.521500038756416,4.4079001384217324,4.314056585554582,4.250873564314767,4.179666974620552,4.157081469810388,4.1350745107177875,4.082573780738472,4.062567491113709,4.052773914457699,4.052773914457699,4.052773914457699,4.052773914457699,4.052773914457699,4.052773914457699,4.052773914457699,4.052773914457699,4.193559355208727,4.193559355208727,4.193559355208727,4.193559355208727,4.193559355208727,4.193559355208727,4.193559355208727,4.199192691544262,4.2098275306048905,4.2098275306048905,4.2098275306048905,4.258604945057167,4.269720538812011,4.269720538812011,4.269720538812011,4.269720538812011,4.269720538812011,4.269720538812011,4.269720538812011,4.269720538812011,4.269720538812011,4.269720538812011,4.269720538812011,4.269720538812011,4.269720538812011,4.269720538812011,4.269720538812011,4.269720538812011,4.258604945057167,4.247600253583256,4.236707438239628,4.2205798043959915,4.2205798043959915,4.2205798043959915,4.2205798043959915,4.2205798043959915,4.2205798043959915,4.2205798043959915,4.2205798043959915,4.2205798043959915,4.2205798043959915,4.2205798043959915,4.2205798043959915,4.2205798043959915,4.2205798043959915,4.2205798043959915,4.2205798043959915,4.2205798043959915,4.2205798043959915,4.2205798043959915,4.2205798043959915,4.2205798043959915,4.2205798043959915,4.242434247879354,4.2809459316779614,4.326918730388698,4.354603005976055,4.366429407586906,4.405927754391686,4.445290972810634,4.445290972810634,4.508833192853375,4.558314787711,4.595850627251949,4.659232619777878,4.684227413396798,4.73418580911874,4.746646223392755,4.7838960658879595,4.820870575887884,4.845319317934377,4.881622973246678,4.964177235920589,5.031994401253813,5.086098060837254,5.127675749816536,5.147875022397604,5.172869816016524,5.192400031232127,5.202009272009484,5.202009272009484,5.202009272009484,5.202009272009484,5.202009272009484,5.202009272009484,5.202009272009484,5.202009272009484,5.202009272009484,5.202009272009484,5.202009272009484,5.202009272009484,5.202009272009484,5.202009272009484,5.202009272009484,5.202009272009484,5.202009272009484,5.202009272009484,5.202009272009484,5.202009272009484,5.238081805868595,5.291215077443205,5.323141398400685,5.395382125142664,5.504094677793754,5.504094677793754,5.539686159432701,5.591820747485601,5.636208973454009,5.656604846713156,5.680718910016992,5.71887771817946,5.735877625945172,5.757681023844872,5.785758212765932,5.8138442597767135,5.8138442597767135,5.846874636436604,5.886064193985837,5.913667854937847,5.949144868786842,6.00089899063606,6.043066102949075,6.0838751347755124,6.120046990337771,6.132188501313799,6.145705206303794,6.170885499660523,6.182860111232037,6.207999608348948,6.207999608348948,6.207999608348948,6.207999608348948,6.207999608348948,6.207999608348948,6.207999608348948,6.207999608348948,6.207999608348948,6.207999608348948,6.207999608348948,6.207999608348948,6.207999608348948,6.208545608840691,6.208545608840691,6.208545608840691,6.208545608840691,6.208545608840691,6.208545608840691,6.208545608840691,6.208545608840691,6.208545608840691,6.208545608840691,6.208545608840691,6.208545608840691,6.231772117381231,-0.028161566987892295,0.019421536289091046,0.0917424183771316,0.10360069949003403,0.1290664839886766,0.15494925027459172,0.1787123819918508,0.26210333294115173,0.3248288208390182,0.379987536767197,0.41891297390029636,0.4465353160922825,0.47414081111006046,0.4909845472586305,0.5079844550243424,0.5529207318094347,0.5805277403395194,0.597884955505639,0.6153395418053921,0.6697412556071647,0.7137857010180251,0.7744762676040856,0.7917056974090639,0.7917056974090639,0.8006874918010868,0.8260930857106006,0.869802212213241,0.8943027707197436,0.8943027707197436,0.8943027707197436,0.8943027707197436,0.8943027707197436,0.8943027707197436,0.8943027707197436,0.8943027707197436,0.8943027707197436,0.8943027707197436,0.8943027707197436,0.8943027707197436,0.8943027707197436,0.8943027707197436,0.8943027707197436,0.8943027707197436,0.8943027707197436,0.8943027707197436,0.8943027707197436,0.951195743669449,0.982694962692616,1.0330424949980783,1.0960309548011955,1.171743470994342,1.2625267845089505,1.3880342143758033,1.4542579736621555,1.5051523231153427,1.5426347598070043,1.5426347598070043,1.5792038157205457,1.6035349680849922,1.627794152426711,1.64937043245614,1.6611247189651421,1.6943999151347073,1.7058750425918416,1.728692936956008,1.7513165221420308,1.7711313990988666,1.8039607404295066,1.8255356133350897,1.836223747215754,1.857392421198313,1.8540050642049062,1.8746942273498897,1.9349749040225201,1.944748775458767,1.9640539666948085,1.9640539666948085,1.9640539666948085,1.9640539666948085,1.9640539666948085,1.9640539666948085,1.9640539666948085,1.9640539666948085,1.9640539666948085,1.9640539666948085,1.9640539666948085,1.9640539666948085,1.9735837472073807,1.9735837472073807,1.9830307459973475,1.9830307459973475,1.9923943728768434,1.9923943728768434,2.00167410649769,2.00167410649769,2.010869492597208,2.015541363469933,2.0247134612019098,2.0247134612019098,2.0247134612019098,2.0337983580932653,2.0337983580932653,2.0337983580932653,2.0427958135546866,2.0427958135546866,2.0427958135546866,2.0427958135546866,2.0427958135546866,2.0427958135546866,2.0427958135546866,2.0517056482293876,2.0517056482293876,2.0517056482293876,2.0517056482293876,2.0517056482293876,2.0517056482293876,2.0517056482293876,2.0517056482293876,2.0517056482293876,2.0943951023931953]],"response_history":["2"],"rt":9922,"trial_type":"polygon-arrow-question","trial_index":0,"trial_index_global":13,"time_elapsed":400849,"internal_chunk_id":"0-0.3-0"},{"nsides":6,"feedback":"Correct! 4 <img src=./images/hexagon_symbol.png style=width:14px;height:14px> 4 = 2 because 4 steps c lockwise  on the hexagon from 4 brings us to 2. Equivalently, 4 + 4 = 8 and 8 - 6 = 2.","orientation_history":[0],"rt":6521,"trial_type":"polygon-arrow-feedback","trial_index":0,"trial_index_global":14,"time_elapsed":407371,"internal_chunk_id":"0-0.3-0"},{"nsides":6,"question":"What is 1 <img src=./images/hexagon_symbol.png style=width:14px;height:14px> 3? Try to solve this problem using the arithmetic technique. <br /><br /> (Remember, to perform <img src=./images/hexagon_symbol.png style=width:14px;height:14px> by arithmetic, you start with the first number, and then add the second one to it. If the sum is smaller than 6, that's your result. If the sum is 6 or bigger, you subtract 6 to get your result.)","response_type":"free","response_choices":[],"correct_response":"4","response":"4","orientation_history":[[0],[0,0,0.017137801893196025,0.017137801893196025,0.017137801893196025,0.03422511922165561,0.05125224626586822,0.06820968500914293,0.08508817515730516,0.11857262314262895,0.17198996594036697,0.23091958079893504,0.2799145142828623,0.32459414862789093,0.3405807202250981,0.3635512862694932,0.44163183261573113,0.5289019022920374,0.59518967352564,0.6085299493963573,0.6324034335652327,0.6435011087932844,0.7165416740964037,0.751821147689995,0.7752974968121263,0.7752974968121263,0.7752974968121263,0.7752974968121263,0.7752974968121263,0.7752974968121263,0.7987091964581037,0.7987091964581037,0.7987091964581037,0.7987091964581037,0.7987091964581037,0.7987091964581037,0.81149338043916,0.8683068294241068,0.8683068294241068,0.8683068294241068,0.8683068294241068,0.8683068294241068,0.8683068294241068,0.8779167845170951,0.8779167845170951,0.8779167845170951,0.8779167845170951,0.9004851306335788,0.9004851306335788,0.9004851306335788,0.9139372339462845,0.9139372339462845,0.9139372339462845,0.9139372339462845,0.9139372339462845,0.9139372339462845,0.9139372339462845,0.9139372339462845,0.9139372339462845,0.9139372339462845,0.9139372339462845,0.9139372339462845,0.9139372339462845,0.9139372339462845,0.9139372339462845,0.9139372339462845,0.9139372339462845,0.9139372339462845,0.9139372339462845,0.9139372339462845,0.9139372339462845,0.9364559493390274,0.9786615153618763,1.030773573180742,1.0767348185142338,1.124690777851493,1.1745396256936254,1.3154529358266351,1.4453964005490345,1.501939837493852,1.5208055235155227,1.5758788751517923,1.6308506091778434,1.685050654756336,1.7381850982122895,1.8069321843082566,1.8402634600031116,1.8728311263065143,1.928567330620728,1.9871668300611882,2.001286559173982,2.0556211597008494,2.0941265170434944,2.118741061281871,2.1425255026523615,2.1541112492509216,2.1541112492509216,2.1541112492509216,2.1541112492509216,2.1541112492509216,2.1541112492509216,2.1541112492509216,2.1541112492509216,2.1541112492509216,2.1541112492509216,2.1541112492509216,2.1541112492509216,2.1654955638713833,2.2358371899400744,2.3081683209275177,2.349756810887258,2.391130341348343,2.459528815414239,2.488865768626634,2.5094199027967807,2.5627641045873357,2.649882238155808,2.7277339870816437,2.8277575011618845,2.841645497092852,2.8616428310660025,2.8753406044388683,2.8753406044388683,2.8753406044388683,2.894105157774799,2.921130676850476,2.950067508784292,2.9918320651335177,3.0201531026778072,3.0467679770771925,3.059916353815848,3.0727361642887487,3.085393716122801,3.085393716122801,3.085393716122801,3.085393716122801,3.085393716122801,3.085393716122801,3.085393716122801,3.085393716122801,3.085393716122801,3.085393716122801,3.085393716122801,3.098047213431597,3.110692609477063,3.1611129504335977,3.2503323315722366,3.374881387828186,3.488547953313377,3.573016592513601,3.613155664559333,3.6576137780087823,3.700717454959606,3.740568753548553,3.781362436416419,3.8205580383434734,4.156173911578455,4.156173911578455,4.156173911578455,4.156173911578455,4.156173911578455,4.156173911578455,4.156173911578455,4.156173911578455,4.156173911578455,4.156173911578455,4.156173911578455,4.164013199091049,4.179884882082839,4.220678564950704,4.266444904070273,4.266444904070273,4.266444904070273,4.266444904070273,4.266444904070273,4.266444904070273,4.266444904070273,4.266444904070273,4.266444904070273,4.266444904070273,4.266444904070273,4.266444904070273,4.266444904070273,4.266444904070273,4.266444904070273,4.257915425928994,4.249444606148408,4.249444606148408,4.249444606148408,4.249444606148408,4.229025616498859,4.220678564950704,4.212393750364863,4.204171603799054,4.1920793995310905,4.1839334429588675,4.175852645871746,4.175852645871746,4.175852645871746,4.175852645871746,4.175852645871746,4.175852645871746,4.175852645871746,4.175852645871746,4.175852645871746,4.175852645871746,4.175852645871746,4.175852645871746,4.1887902047863905]],"response_history":["4"],"rt":8038,"trial_type":"polygon-arrow-question","trial_index":0,"trial_index_global":15,"time_elapsed":415410,"internal_chunk_id":"0-0.3-0"},{"nsides":6,"feedback":"Correct! 1 <img src=./images/hexagon_symbol.png style=width:14px;height:14px> 3 = 4  because  1 + 3 = 4 and 4 - 6 = 4.  Equivalently, 3 steps clockwise on the hexagon from 1 brings us to 4.","orientation_history":[0],"rt":8592,"trial_type":"polygon-arrow-feedback","trial_index":0,"trial_index_global":16,"time_elapsed":424003,"internal_chunk_id":"0-0.3-0"},{"nsides":6,"question":"What is 4 <img src=./images/hexagon_symbol.png style=width:14px;height:14px> 3? <br /><br /> (Remember, to perform <img src=./images/hexagon_symbol.png style=width:14px;height:14px>, you can either use a method based on the hexagon at right, or a method based on arithmetic.<br /><br /><b>Hexagon method:</b> you can use the interactive diagram on the right, or perform the operation in your mind. Point the arrow at the first number, then move the arrow the second number of points clockwise around the hexagon. The number the arrow arrives at is your result. <br /><br /><b>Arithmetic method:</b> you start with the first number, and then add the second one to it. If the sum is sma ller tha n 6, that's your result. If the sum is 6 or bigger, you subtract 6 to get your result.)","response_type":"free","response_choices":[],"correct_response":"1","response":"1","orientation_history":[[0],[0,-0.0166097680538817,-0.06618323115804792,-0.09893155188755465,-0.18302084335516078,-0.3682659338572867,-0.45877142859361086,-0.5472182623707349,-0.6169498085173686,-0.828196087863649,-0.8740795048096643,-0.9891138638141488,-1.057190322072148,-1.1114007215468114,-1.188218239499042,-1.247178609990864,-1.303964315406546,-1.3743537526793936,-1.424364155890368,-1.4724885444210507,-1.5525733046014114,-1.598804564904496,-1.6297798880628198,-1.673487259468219,-1.7033977842038608,-1.762193421648358,-1.8052227076668128,-1.8829253387666824,-1.9474654241998302,-1.9844855400737602,-2.020184652753084,-2.0367634445382388,-2.0590596326844324,-2.069990833751964,-2.0807777281873427,-2.091420694068743,-2.091420694068743,-2.091420694068743,-2.091420694068743,-2.091420694068743,-2.091420694068743,-2.091420694068743,-2.091420694068743,-2.091420694068743,-2.101920229870281,-2.101920229870281,-2.101920229870281,-2.101920229870281,-2.101920229870281,-2.101920229870281,-2.101920229870281,-2.101920229870281,-2.101920229870281,-2.101920229870281,-2.101920229870281,-2.101920229870281,-2.101920229870281,-2.074132256395247,-2.035289244131982,-2.007080564160459,-1.9390622606521832,-1.8466370463456245,-1.7721657152337942,-1.6947391202108406,-1.6387100342701704,-1.5734209926838956,-1.520837931072954,-1.4945282138200326,-1.4430729914702223,-1.4301780438722087,-1.3807362066763238,-1.3432417637894662,-1.3185163026946505,-1.2940390830190687,-1.2940390830190687,-1.2819014904867903,-1.2698352444299195,-1.2578431993920347,-1.2223389994867748,-1.187593629961281,-1.1648801929049686,-1.1493200759262452,-1.1493200759262452,-1.1493200759262452,-1.138094421227379,-1.138094421227379,-1.138094421227379,-1.138094421227379,-1.138094421227379,-1.138094421227379,-1.138094421227379,-1.138094421227379,-1.138094421227379,-1.138094421227379,-1.1269693203365927,-1.1013604693175933,-1.0742341260671449,-1.0399506508776177,-0.9735535500855175,-0.9170885976755176,-0.818580999563947,-0.7246874938844048,-0.7024846700612084,-0.6467838858080679,-0.5999120536900051,-0.5424689577099358,-0.506943128383643,-0.4360735336181545,-0.38362308822981994,-0.33691732200908575,-0.266327732190212,-0.2162936534289832,-0.19929374566327152,-0.19929374566327152,-0.19929374566327152,-0.19929374566327152,-0.19929374566327152,-0.19929374566327152,-0.19929374566327152,-0.19929374566327152,-0.19929374566327152,-0.19929374566327152,-0.19929374566327152,-0.19929374566327152,-0.19929374566327152,-0.16485700467971576,-0.04590075138807048,0.00997970859865216,-6.064629971848214,-5.844908193285178,-5.60859148868603,-5.472823541679116,-5.435483696215971,-5.386178577420936,-5.339817023360149,-5.278727522058818,-5.227914472817572,-5.168011639536952,-5.126078193663553,-5.082081446797851,-5.0655461738814465,-5.0655461738814465,-5.0655461738814465,-5.0655461738814465,-5.0655461738814465,-5.0655461738814465,-5.0655461738814465,-5.0655461738814465,-5.0655461738814465,-5.0655461738814465,-5.0655461738814465,-5.0655461738814465,-5.0655461738814465,-5.0655461738814465,-5.0655461738814465,-5.0655461738814465,-5.0655461738814465,-5.0655461738814465,-5.0655461738814465,-5.0655461738814465,-5.0655461738814465,-5.0655461738814465,-5.0655461738814465,-5.0655461738814465,-5.0655461738814465,-5.0655461738814465,-5.0655461738814465,-5.0655461738814465,-5.0655461738814465,-5.0655461738814465,-5.0655461738814465,-5.0655461738814465,-5.0655461738814465,-5.0655461738814465,-5.0655461738814465,-5.0655461738814465,-5.0655461738814465,-5.0655461738814465,-5.0655461738814465,-5.0655461738814465,-5.0655461738814465,-5.0655461738814465,-5.083421158914993,-5.12009024127964,-5.138125803517739,-5.138125803517739,-5.138125803517739,-5.138125803517739,-5.138125803517739,-5.138125803517739,-5.150025710585761,-5.150025710585761,-5.150025710585761,-5.150025710585761,-5.150025710585761,-5.150025710585761,-5.150025710585761,-5.150025710585761,-5.138125803517739,-5.138125803517739,-5.138125803517739,-5.138125803517739,-5.138125803517739,-5.138125803517739,-5.138125803517739,1.0471975511965976]],"response_history":["3","1"],"rt":19709,"trial_type":"polygon-arrow-question","trial_index":0,"trial_index_global":17,"time_elapsed":443712,"internal_chunk_id":"0-0.3-0"},{"nsides":6,"feedback":"Correct! 4 <img src=./images/hexagon_symbol.png style=width:14px;height:14px> 3 = 1 because 3 steps clockwise on the hexagon from 4 brings us to 1. Equivalently, 4 + 3 = 7 and 7 - 6 = 1.","orientation_history":[0],"rt":1421,"trial_type":"polygon-arrow-feedback","trial_index":0,"trial_index_global":18,"time_elapsed":445134,"internal_chunk_id":"0-0.3-0"},{"nsides":6,"question":"What is 0 <img src=./images/hexagon_symbol.png style=width:14px;height:14px> 5? <br /><br /> (Remember, to perform <img src=./images/hexagon_symbol.p ng sty le=width:14px;height:14px>, you can either use a method based on the hexagon at right, or a method based on arithmetic.<br /><br /><b>Hexagon method:</b> you can use the interactive diagram on the right, or perform the operation in your mind. Point the arrow at the first number, then move the arrow the second number of points clockwise around the hexagon. The number the arrow arrives at is your result. <br /><br /><b>Arithmetic method:</b> you start with the first number, and then add the second one to it. If the sum is smaller than 6, that's your result. If the sum is 6 or bigger, you subtract 6 to get your result.)","response_type":"free","response_choices":[],"correct_response":"5","response":"5","orientation_history":[[0],[0,0,0,0,0,0,0,0,0,0,0.03361843786828578,0.07034444505217774,0.13959114016699514,0.21866894587394214,0.2629733723746732,0.28588737280984877,0.3500800351592326,0.43199591397932835,0.44086334867384114,0.45700760034619026,0.4921724785846693,0.5602085833460602,0.6400672248166642,0.6946616067189727,0.7472810412248171,0.7599126670689341,0.7599126670689341,0.7599126670689341,0.7599126670689341,0.7858153515251016,0.9133669254878173,0.9830911652373675,1.0280170559906856,1.0280170559906856,1.0280170559906856,1.0280170559906856,1.0280170559906856,1.0280170559906856,1.0280170559906856,1.0727880034175814,1.1516638353584028,1.184618932972701,1.240117438218418,1.3265159875768648,1.3820144928225817,1.435062022584053,1.5242247325088958,1.6307244819161046,1.734472115649286,1.817367767974884,1.886875864481708,1.9772633463500464,2.0467889876399274,2.0985561669189856,2.1318545276085725,2.140752307845432,2.1857832927771916,2.2068658573170694,2.2182163602782516,2.249240116147007,2.2917676507667917,2.3025199245578927,2.3025199245578927,2.3025199245578927,2.3025199245578927,2.32472274838109,2.358335814542615,2.4304073879009493,2.4986415997465343,2.6057058641033324,2.7224601621532996,2.7988661551591285,2.9092698909138655,2.977497161673078,3.0272074184422975,3.07716581416424,3.09303749715603,3.1247489174412237,3.1395846241601975,3.155132447995782,3.21475255063459,3.289309567168716,3.375664745750419,3.417262933674002,3.457672191276605,3.515502374022198,3.5720532565953143,3.7476873721447888,3.8895844267489528,4.006853372099431,4.072537490423852,4.135572680648399,4.16996145068451,4.18431453195833,4.21779483960837,4.236154835597421,4.255621996743621,4.319408970407685,4.343159116368899,4.416245299768685,4.44840675725385,4.534811159368652,4.613884429372129,4.6479621409591365,4.718433485537932,4.741803353588472,4.753451449484227,4.765070885526001,4.80332639481067,4.815063940890242,4.838397256372691,4.864047113255922,4.875651460727792,4.887193740922797,4.913169258410961,4.924630480041031,4.939418935437003,4.950847009334107,4.977288308006973,5.015135974777356,5.015135974777356,5.026256132300596,5.041830751695498,5.041830751695498,5.05285392724422,5.063773929983765,5.063773929983765,5.063773929983765,5.063773929983765,5.063773929983765,5.063773929983765,5.08530003270702,5.111609749959943,5.122080571464639,5.122080571464639,5.122080571464639,5.122080571464639,5.122080571464639,5.122080571464639,5.122080571464639,5.122080571464639,5.122080571464639,5.122080571464639,5.122080571464639,5.235987755982988]],"response_history":["5"],"rt":7554,"trial_type":"polygon-arrow-question","trial_index":0,"trial_index_global":19,"time_elapsed":452689,"internal_chunk_id":"0-0.3-0"},{"nsides":6,"feedback":"Correct! 0 <img src=./images/hexagon_symbol.png style=width:14px;height:14px> 5 = 5 because 5 steps clockwise on the hexagon from 0 brings us to 5. Equivalently, 0 + 5 = 5 and 5 is less than 6.","orientation_history":[0],"rt":2243,"trial_type":"polygon-arrow-feedback","trial_index":0,"trial_index_global":20,"time_elapsed":454933,"internal_chunk_id":"0-0.3-0"},{"nsides":6,"question":"What is 2 <img src=./images/hexagon_symbol.png style=width:14px;height:14px> 5? <br /><br /> (Remember, to perform <img src=./images/hex agon_sym bol.png style=width:14px;height:14px>, you can either use a method based on the hexagon at right, or a method based on arithmetic.<br /><br /><b>Hexagon method:</b> you can use the interactive diagram on the right, or perform the operation in your mind. Point the arrow at the first number, then move the arrow the second number of points clockwise around the hexagon. The number the arrow arrives at is your result. <br /><br /><b>Arithmetic method:</b> you start with the first number, and then add the second one to it. If the sum is smaller than 6, that's your result. If the sum is 6 or bigger, you subtract 6 to get your result.)","response_type":"free","response_choices":[],"correct_response":"1","response":"1","orientation_history":[[0],[0,0,0,0,0.034387388301536426,0.05161681810651508,-6.177308702004612,-6.099452212461642,-5.984424389746637,-5.8094370315934585,-5.614278604476788,-5.566517390951444,-5.503419444694975,-5.472381549872624,-5.400366996642334,-5.371849872074829,-5.306261998976637,-5.279370914607391,-5.252695956744418,-5.231535094631213,-5.196373712676184,-5.123051783076241,-5.075940266654183,-5.068737510063263,-5.068737510063263,-5.068737510063263,-5.068737510063263,-5.068737510063263,-5.0461871446355175,-4.986556431504349,-4.921832150088757,-4.884378946325057,-4.817203689425219,-4.6768534869618925,-4.61075734667957,-4.483619367925426,-4.409789310214744,-4.354945129189568,-4.354945129189568,-4.354945129189568,-4.354945129189568,-4.354945129189568,-4.354945129189568,-4.354945129189568,-4.354945129189568,-4.354945129189568,-4.354945129189568,-4.354945129189568,-4.354945129189568,-4.354945129189568,-4.354945129189568,-4.354945129189568,-4.354945129189568,-4.354945129189568,-4.249834267123621,-4.249834267123621,-4.249834267123621,-4.249834267123621,-4.249834267123621,-4.249834267123621,-4.249834267123621,-4.249834267123621,-4.249834267123621,-4.249834267123621,-4.249834267123621,-4.249834267123621,-4.249834267123621,-4.249834267123621,-4.249834267123621,-4.249834267123621,-4.249834267123621,-4.249834267123621,-4.249834267123621,-4.249834267123621,-4.249834267123621,-4.249834267123621,-4.249834267123621,-4.249834267123621,-4.249834267123621,-4.249834267123621,-4.249834267123621,-4.249834267123621,-4.249834267123621,-4.236785419357674,-4.223881628948542,-4.161019196061169,-4.135043167003955,-4.063529716875964,-4.005983692944953,-3.943036121135919,-3.858134327686197,-3.8265658711984187,-3.722136909648813,-3.6360524257807167,-3.529581157134746,-3.4675272839885105,-3.4241809582923004,-3.355291116758336,-3.3214461533822712,-3.3214461533822712,-3.2880938639864867,-3.2580841142844434,-3.242948089574223,-3.2277329062126894,-3.2277329062126894,-3.2277329062126894,-3.2277329062126894,-3.2277329062126894,-3.2277329062126894,-3.2277329062126894,-3.2277329062126894,-3.2277329062126894,-3.2277329062126894,-3.2277329062126894,-3.2277329062126894,-3.2277329062126894,-3.1970911588355104,-3.1970911588355104,-3.150702798120291,-3.0563441899807433,-2.8234840229035347,-2.466131055694222,-2.3822897072340568,-2.27584425417627,-2.2207698371154767,-2.1274248777330813,-2.0941265170434944,-2.052615388406103,-2.006105798973005,-1.9788317051593873,-1.9273894748638938,-1.8902585556663176,-1.8449637779145558,-1.8195751887833822,-1.8155604897105508,-1.8155604897105508,-1.8155604897105508,-1.8155604897105508,-1.8155604897105508,-1.8155604897105508,-1.8155604897105508,-1.8155604897105508,-1.8155604897105508,-1.8155604897105508,-1.8155604897105508,-1.8155604897105508,-1.8155604897105508,-1.8155604897105508,-1.8155604897105508,-1.778453784111326,-1.701932794100033,-1.6362612794468205,-1.5828439366490823,-1.515637610866718,-1.5019398374938522,-1.4335534939033483,-1.3639338138363328,-1.3045442776439717,-1.2198161053511374,-1.1932889704169867,-1.1932889704169867,-1.18018928309721,-1.18018928309721,-1.18018928309721,-1.18018928309721,-1.1672030001770377,-1.1672030001770377,-1.1672030001770377,-1.1672030001770377,-1.1672030001770377,-1.1672030001770377,-1.1672030001770377,-1.1672030001770377,-1.1543329777379503,-1.126669014637895,-1.0970480512087688,-1.0588372825264463,-0.9963587826196472,-0.8187483922036574,-0.7691247357073454,-0.6481553305059009,-0.5705294163851287,-0.4897428260425176,-0.44237422297674556,-0.3755627206000547,-0.347208016422778,-0.3275847939173975,-0.3275847939173975,-0.3275847939173975,-0.3275847939173975,-0.3275847939173975,-0.2998394133570059,-0.23919629172273194,-0.132905855019243,-0.04429449228944016,-0.021803397899700983,0.046133128459403316,0.046133128459403316,-6.214328817878542,-6.214328817878542,-6.214328817878542,-6.146252359620543,-6.098569600157731,-6.003235484655796,-5.85555814760797,-5.791474891745601,-5.720387448958961,-5.575414832874655,-5.525404429663681,-5.525404429663681,-5.525404429663681,-5.525404429663681,-5.525404429663681,-5.525404429663681,-5.525404429663681,-5.525404429663681,-5.525404429663681,-5.525404429663681,-5.525404429663681,-5.525404429663681,-5.525404429663681,-5.525404429663681,-5.525404429663681,-5.525404429663681,-5.525404429663681,-5.525404429663681,-5.493357493906647,-5.493357493906647,-5.493357493906647,-5.493357493906647,-5.461177536916347,-5.412538680173088,-5.39668377204584,-5.39668377204584,-5.36450381505554,-5.300607426795299,-5.269017531322874,-5.2505201551300535,-5.21895714161893,-5.199698721204099,1.0471975511965976]],"response_history":["1"],"rt":8583,"trial_type":"polygon-arrow-question","trial_index":0,"trial_index_global":21,"time_elapsed":463516,"internal_chunk_id":"0-0.3-0"},{"nsides":6,"feedback":"Correct! 2 <img src=./images/hexagon_symbol.png style=width:14px;height:14px> 5 = 1 because 5 steps clockwise on the hexagon from 2 brings us to 1. Equivalently, 2 + 5 = 7 and 7 - 6 = 1.","orientation_history":[0],"rt":3507,"trial_type":"polygon-arrow-feedback","trial_index":0,"trial_index_global":22,"time_elapsed":467024,"internal_chunk_id":"0-0.3-0"},{"nsides":6,"instructions":"Now we're going to discuss a couple  special  properties of this new operation, <img src=./images/hexagon_symbol.png style=width:14px;height:14px> that we've learned. First, notice that the number 0 behaves in a special way under <img src=./images/hexagon_symbol.png style=width:14px;height:14px>. Whenever we combine 0 with anything else, we get that same thing back. We'll say that 0 is the <i>identity</i> under <img src=./images/hexagon_symbol.png style=width:14px;height:14px>, because when you combine it with something it gives you that identical thing back.","orientation_history":[0],"rt":12214,"trial_type":"polygon-arrow-instructions","trial_index":0,"trial_index_global":23,"time_elapsed":479242,"internal_chunk_id":"0-0"},{"nsides":6,"instructions":"Now that we know 0 is the identity under <img src=./images/hexagon_symbol.png style=width:14px;height:14px>, we're going to make a new definition. We'll say that the <i>inverse</i> of a number is the element that you combine with it to pro duce the  identity. For example, 5 <img src=./images/hexagon_symbol.png style=width:14px;height:14px> 1 = 0, so we say 1 is the inverse of 5 under <img src=./images/hexagon_symbol.png style=width:14px;height:14px>, (remember 0 is the identity under <img src=./images/hexagon_symbol.png style=width:14px;height:14px>). Similarly, 3 is its own inverse under <img src=./images/hexagon_symbol.png style=width:14px;height:14px>, because 3 <img src=./images/hexagon_symbol.png style=width:14px;height:14px> 3 = 0.","orientation_history":[0],"rt":32191,"trial_type":"polygon-arrow-instructions","trial_index":0,"trial_index_global":24,"time_elapsed":511434,"internal_chunk_id":"0-0"},{"nsides":6,"question":"Now you try! What is the inverse of 4 under <img src=./images/hexagon_symbol.png style=width:14px;height:14px>? <br /><br /> (Remember, the inverse of an element is the thing which you combine with it to produce the identity.)","response_type":"free ","response_choices":[],"correct_response":"2","response":"2","orientation_history":[[0],[0,0,0.00024795437131341913,-0.015368150438478168,-0.03096902992417938,-0.04654712700416752,-0.07760509816679928,-0.1084833115549717,-0.156988923795355,-0.24064492965253415,-0.29567514391089844,-0.34667255427271737,-0.3890201032932934,-0.4107558101350861,-0.4862185160302044,-0.5185237937626237,-0.5672048520273547,-0.6500975543873198,-0.6886223812504273,-0.7417558438122374,-0.841863810944254,-0.9030555294975304,-1.1282971506762305,-1.3575290839532261,-1.4236092048200186,-1.4625953090715083,-1.5004331875623755,-1.5192255311237828,-1.5549246438031066,-1.5888099737072245,-1.6214928075789299,-1.6691789717645458,-1.7148377669613257,-1.7616078622873559,-1.7886678246720074,-1.814554273211364,-1.8435120056971837,-1.8578095121780773,-1.8860207205072381,-1.8999268210102116,-1.9273230904798613,-1.9354310209154715,-1.9354310209154715,-1.948622867763131,-1.9616717155290768,-1.9745755059382102,-1.9745755059382102,-2.0123994916991315,-2.0123994916991315,-2.0123994916991315,-2.0123994916991315,-2.0123994916991315,-2.0123994916991315,-2.0123994916991315,-2.0123994916991315,-2.0123994916991315,-2.0123994916991315,-2.0123994916991315,-2.0123994916991315,-2.0247071451617886,-2.0247071451617886,-2.0368628957607324,-2.0368628957607324,-2.0368628957607324,-2.0368628957607324,-2.0368628957607324,-2.0368628957607324,-2.0368628957607324,-2.0368628957607324,-2.0368628957607324,-2.0368628957607324,-2.0368628957607324,-2.0368628957607324,-2.0368628957607324,-2.0368628957607324,-2.0368628957607324,-2.0368628957607324,-2.0368628957607324,-2.0368628957607324,-2.0368628957607324,-2.0368628957607324,-2.0368628957607324,-2.0368628957607324,-2.0368628957607324,-2.0368628957607324,-2.0368628957607324,-2.0368628957607324,-2.0368628957607324,-2.0368628957607324,-2.0368628957607324,-2.0368628957607324,-2.0368628957607324,-2.0368628957607324,-2.0368628957607324,-2.0368628957607324,-2.0368628957607324,-2.0368628957607324,-2.0368628957607324,-2.0368628957607324,-2.0368628957607324,-2.0368628957607324,-2.0368628957607324,-2.0123994916991315,-1.9745755059382102,-1.943243361975572,-1.9301954666590637,-1.8766751981997487,-1.8070206244711802,-1.7225670816343222,-1.617343453799064,-1.5861644772333747,-1.5549246438031066,-1.53930091518263,-1.4915176918362754,-1.4130275891989426,-1.2913607602200692,-1.2189570378769758,-1.1382223830637077,-1.0978558872553172,-1.059030152367047,-1.0023402935123933,-0.990355250135007,-0.9591400961800476,-0.9591400961800476,-0.9362802928783598,-0.9141409196255985,-0.9033374578802498,-0.9033374578802498,-0.9033374578802498,-0.9033374578802498,-0.895076217514184,-0.895076217514184,-0.895076217514184,-0.895076217514184,-0.895076217514184,-0.895076217514184,-0.895076217514184,-0.895076217514184,-0.895076217514184,-0.895076217514184,-0.895076217514184,-0.895076217514184,-0.895076217514184,-0.8844030858225569,-0.8271549078831324,-0.7695264804056583,-0.7398322407987488,-0.6698578279144964,-0.6415174217324617,-0.5994678588136022,-0.5486977106763096,-0.505038097856426,-0.46664161203068666,-0.42246487686616785,-0.4037791791433136,-0.38535711601305866,-0.3234209314622545,-0.3188651543250245,-0.28863920021032285,-0.25870359844783586,-0.22910698013507425,-0.20279726288215194,-0.18952370619797776,-0.17360847488935782,-0.16036301474488557,-0.15802950614609657,-0.15802950614609657,-0.15802950614609657,-0.13169638832220443,-0.10200042020542632,-0.07478820420895538,-0.07478820420895538,-0.07478820420895538,-0.07478820420895538,-0.07478820420895538,-0.07478820420895538,-0.07478820420895538,-0.07478820420895538,-0.07478820420895538,-0.07478820420895538,-0.07478820420895538,-0.07478820420895538,-0.07478820420895538,-0.07478820420895538,-0.07478820420895538,-0.07478820420895538,-0.07478820420895538,-0.07478820420895538,-0.07478820420895538,-0.06189325661094269,-0.06189325661094269,-0.036029715466383117,-0.023069660105249135,-6.25415648871504,-6.172999672860616,-6.131174663334655,-6.059107674663808,-6.019023714884728,-5.99273834274817,-5.979737793407349,-5.962802740985683,-5.9498548889331655,-5.937016269358542,-5.906955653663003,-5.878994906015331,-5.8533146215755965,-5.834905848617258,-5.834905848617258,-5.834905848617258,-5.834905848617258,-5.78480032916532,-5.702744230519697,-5.603757897810265,-5.561745446502585,-5.561745446502585,-5.561745446502585,-5.561745446502585,-5.561745446502585,-5.561745446502585,-5.551111739408931,-5.551111739408931,-5.541843615911556,-5.521894147913638,-5.5019127947634985,-5.49201612737567,-5.4619181268171975,-5.431453286773492,-5.391255573589603,-5.380226609027271,-5.380226609027271,-5.380226609027271,-5.380226609027271,-5.380226609027271,-5.380226609027271,-5.368995800037745,-5.368995800037745,-5.368995800037745,-5.368995800037745,-5.368995800037745,-5.368995800037745,-5.368995800037745,-5.368995800037745,-5.368995800037745,-5.368995800037745,-5.368995800037745,-5.368995800037745,-5.368995800037745,-5.368995800037745,-5.368995800037745,-5.368995800037745,-4.426364097681494,-4.361192916077888,-4.334429889699171,-4.3212464745369426,-4.308198579220434,-4.2825182947807,-4.2328696883920935,-4.208922171469887,-4.19717057571277,-4.19717057571277,-4.185567720896289,-4.162809105753638,-4.162809105753638,-4.162809105753638,-4.151653381941356,-4.140646488238742,-4.129788079869393,-4.129788079869393,-4.129788079869393,-4.129788079869393,-4.129788079869393,-4.129788079869393,-4.129788079869393,-4.129788079869393,-4.129788079869393,-4.129788079869393,-4.129788079869393,-4.129788079869393,-4.129788079869393,-4.129788079869393,-4.129788079869393,-4.129788079869393,-4.129788079869393,2.0943951023931953]],"response_history":["2"],"rt":11897,"trial_type":"polygon-arrow-question","trial_index":0,"trial_index_global":25,"time_elapsed":523332,"internal_chunk_id":"0-0.7-0"},{"nsides":6,"feedback":"Correct! The inverse of 4 under <img src=./images/hexagon_symbol.png style=width:14px;height:14px> is 2 because 4  <img sr c=./images/hexagon_symbol.png style=width:14px;height:14px> 2 = 0, and 0 is the identity under <img src=./images/hexagon_symbol.png style=width:14px;height:14px>.","orientation_history":[0],"rt":3351,"trial_type":"polygon-arrow-feedback","trial_index":0,"trial_index_global":26,"time_elapsed":526684,"internal_chunk_id":"0-0.7-0"},{"nsides":6,"question":"What is the inverse of 1 under <img src=./images/hexagon_symbol.png style=width:14px;height:14px>? <br /><br /> (Remember, the inverse of an element is the thing which you combine with it to produce the identity.)","response_type":"free","response_choices":[],"correct_response":"5","response":"1","orientation_history":[[0],[0,0,0,0,0.0009758474579886212,0.016823577206514173,0.06728575122337,0.11813042153902797,0.18260911608133878,0.21421913705639484,0.22984286567687184,0.32615241028120123,0.39065968081733504,0.4883865881760536,0.5359696914530372,0.5488044592228539,0.5980367603449638,0.6934904746776779,0.7546386373269791,0.8022217406039625,0.8111820742717964,0.8111820742717964,0.8111820742717964,0.8111820742717964,0.8111820742717964,0.8111820742717964,0.8111820742717964,0.8486998719549654,0.8486998719549654,0.8652958585008748,0.8913943490578836,0.927216598559186,0.9520341971768599,0.9867424754021348,0.9867424754021348,0.9867424754021348,0.9867424754021348,0.9867424754021348,0.9867424754021348,0.9867424754021348,0.9867424754021348,0.9867424754021348,0.9867424754021348,0.997457476598437,1.0038907787121927,1.0038907787121927,1.0038907787121927,1.0038907787121927,1.0038907787121927,1.0038907787121927,1.0038907787121927,1.0038907787121927,1.0038907787121927,1.0038907787121927,1.0038907787121927,1.0038907787121927,1.0038907787121927,1.0038907787121927,1.0038907787121927,1.0038907787121927,1.0038907787121927,1.0038907787121927,1.0038907787121927,1.0038907787121927,1.0038907787121927,1.0038907787121927,1.0038907787121927,1.0038907787121927,1.0038907787121927,1.0038907787121927,1.0038907787121927,1.0038907787121927,1.0038907787121927,1.0038907787121927,1.0038907787121927,1.0038907787121927,1.0038907787121927,1.0038907787121927,1.0038907787121927,1.0038907787121927,1.0038907787121927,1.0038907787121927,1.0038907787121927,1.0038907787121927,1.0038907787121927,1.0038907787121927,1.0038907787121927,1.0038907787121927,1.0038907787121927,1.0038907787121927,1.0038907787121927,1.0038907787121927,1.0038907787121927,1.0038907787121927,1.0038907787121927,1.0038907787121927,1.0038907787121927,1.0038907787121927,1.0038907787121927,1.0038907787121927,1.0038907787121927,1.0038907787121927,1.0038907787121927,1.0038907787121927,1.0038907787121927,1.0038907787121927,1.0038907787121927,1.0038907787121927,1.0038907787121927,1.0038907787121927,1.0038907787121927,1.0038907787121927,1.0038907787121927,1.0038907787121927,1.0038907787121927,1.0038907787121927,1.0038907787121927,1.0038907787121927,1.0038907787121927,1.0038907787121927,1.0038907787121927,1.0038907787121927,1.0038907787121927,1.0038907787121927,1.0038907787121927,1.0038907787121927,1.0038907787121927,1.0038907787121927,1.0038907787121927,1.0038907787121927,1.0038907787121927,1.0038907787121927,1.0038907787121927,1.0038907787121927,1.0038907787121927,1.0038907787121927,1.0038907787121927,1.0038907787121927,1.0038907787121927,1.0038907787121927,1.0038907787121927,1.0038907787121927,1.0038907787121927,1.0038907787121927,1.0038907787121927,1.0038907787121927,1.0038907787121927,1.0038907787121927,1.0038907787121927,1.0038907787121927,1.0038907787121927,1.0038907787121927,1.0038907787121927,1.0038907787121927,1.0038907787121927,1.0038907787121927,1.0038907787121927,1.0038907787121927,1.0038907787121927,1.0038907787121927,1.0038907787121927,1.0038907787121927,1.0038907787121927,1.0038907787121927,1.0038907787121927,1.0038907787121927,1.0038907787121927,1.0038907787121927,1.0038907787121927,1.0038907787121927,1.0038907787121927,1.0038907787121927,1.0038907787121927,1.0038907787121927,1.0038907787121927,1.0038907787121927,1.0038907787121927,1.0038907787121927,1.0038907787121927,1.0038907787121927,1.0038907787121927,1.0038907787121927,1.0038907787121927,1.0038907787121927,1.0038907787121927,1.0038907787121927,1.0038907787121927,1.0038907787121927,1.0038907787121927,1.0038907787121927,1.0038907787121927,1.0038907787121927,1.0038907787121927,1.0038907787121927,1.0038907787121927,1.0038907787121927,1.0038907787121927,1.0038907787121927,1.0038907787121927,1.0038907787121927,1.0038907787121927,1.0038907787121927,1.0038907787121927,1.0038907787121927,1.0038907787121927,1.0038907787121927,1.0038907787121927,1.0038907787121927,1.0038907787121927,1.0038907787121927,1.0038907787121927,1.0038907787121927,1.0038907787121927,1.0038907787121927,1.0038907787121927,1.0038907787121927,1.0038907787121927,1.0038907787121927,1.0038907787121927,1.0038907787121927,1.0038907787121927,1.0038907787121927,1.0038907787121927,1.0038907787121927,1.0038907787121927,1.0038907787121927,1.0038907787121927,1.0038907787121927,1.0038907787121927,1.0038907787121927,1.0038907787121927,1.0038907787121927,1.0038907787121927,1.0038907787121927,1.0038907787121927,1.0038907787121927,1.0038907787121927,1.0038907787121927,1.0038907787121927,1.0038907787121927,1.0038907787121927,1.0038907787121927,1.0038907787121927,1.0038907787121927,1.0038907787121927,1.0038907787121927,1.0038907787121927,1.0038907787121927,1.0038907787121927,1.0038907787121927,1.0038907787121927,1.0038907787121927,1.0038907787121927,1.0038907787121927,1.0038907787121927,1.0038907787121927,1.0038907787121927,1.0038907787121927,1.0038907787121927,1.0038907787121927,1.0038907787121927,1.0038907787121927,1.0038907787121927,1.0038907787121927,1.0038907787121927,1.0038907787121927,1.0038907787121927,1.0038907787121927,1.0038907787121927,1.0038907787121927,1.0038907787121927,1.0038907787121927,1.0038907787121927,1.0038907787121927,1.0038907787121927,1.0038907787121927,1.0038907787121927,1.0038907787121927,1.0038907787121927,1.0038907787121927,1.0038907787121927,1.0038907787121927,1.0038907787121927,1.0038907787121927,1.0038907787121927,1.0038907787121927,1.0038907787121927,1.0038907787121927,1.0038907787121927,1.0038907787121927,1.0038907787121927,1.0038907787121927,1.0038907787121927,1.0038907787121927,1.0038907787121927,1.0038907787121927,1.0038907787121927,1.0038907787121927,1.0038907787121927,1.0038907787121927,1.0038907787121927,1.0038907787121927,1.0038907787121927,1.0038907787121927,1.0038907787121927,1.0038907787121927,1.0038907787121927,1.0038907787121927,1.0038907787121927,1.0038907787121927,1.0038907787121927,1.0038907787121927,1.0038907787121927,1.0038907787121927,1.0038907787121927,1.0038907787121927,1.0038907787121927,1.0038907787121927,1.0038907787121927,1.0038907787121927,1.0038907787121927,1.0038907787121927,1.0038907787121927,1.0038907787121927,1.0038907787121927,1.0038907787121927,1.0038907787121927,1.0038907787121927,1.0038907787121927,1.0038907787121927,1.0038907787121927,1.0038907787121927,1.0038907787121927,1.0038907787121927,1.0038907787121927,1.0038907787121927,1.0038907787121927,1.0038907787121927,1.0038907787121927,1.0038907787121927,1.0038907787121927,1.0038907787121927,1.0038907787121927,1.0038907787121927,1.0038907787121927,1.0038907787121927,1.0038907787121927,1.0038907787121927,1.0038907787121927,1.0038907787121927,1.0038907787121927,1.0038907787121927,1.0038907787121927,1.0038907787121927,1.0038907787121927,1.0038907787121927,1.0038907787121927,1.0038907787121927,1.0038907787121927,1.0038907787121927,1.0038907787121927,1.0038907787121927,1.0038907787121927,1.0038907787121927,1.0038907787121927,1.0038907787121927,1.0038907787121927,1.0038907787121927,1.0038907787121927,1.0038907787121927,1.0038907787121927,1.0038907787121927,1.0038907787121927,1.0038907787121927,1.0038907787121927,1.0038907787121927,1.0038907787121927,1.0038907787121927,1.0038907787121927,1.0038907787121927,1.0038907787121927,1.0038907787121927,1.0038907787121927,1.0038907787121927,1.0038907787121927,1.0038907787121927,1.0038907787121927,1.0038907787121927,1.0038907787121927,1.0038907787121927,1.0038907787121927,1.0038907787121927,1.0038907787121927,1.0038907787121927,1.0038907787121927,1.0038907787121927,1.0038907787121927,1.0038907787121927,1.0038907787121927,1.0038907787121927,1.0038907787121927,1.0038907787121927,1.0038907787121927,1.0038907787121927,1.0038907787121927,1.0038907787121927,1.0038907787121927,1.0038907787121927,1.0038907787121927,1.0038907787121927,1.0038907787121927,1.0038907787121927,1.0038907787121927,1.0038907787121927,1.0038907787121927,1.0038907787121927,1.0038907787121927,1.0038907787121927,1.0038907787121927,1.0038907787121927,1.0038907787121927,1.0038907787121927,1.0038907787121927,1.0038907787121927,1.0038907787121927,1.0038907787121927,1.0038907787121927,1.0038907787121927,1.0038907787121927,1.0038907787121927,1.0038907787121927,1.0038907787121927,1.0038907787121927,1.0038907787121927,1.0038907787121927,1.0038907787121927,1.0038907787121927,1.0038907787121927,1.0038907787121927,1.0038907787121927,1.0038907787121927,1.0038907787121927,1.0038907787121927,1.0038907787121927,1.0038907787121927,1.0038907787121927,1.0038907787121927,1.0038907787121927,1.0038907787121927,1.0038907787121927,1.0038907787121927,1.0038907787121927,1.0038907787121927,1.0038907787121927,1.0038907787121927,1.0038907787121927,1.0038907787121927,1.0038907787121927,1.0038907787121927,1.0038907787121927,1.0038907787121927,1.0038907787121927,1.0038907787121927,1.0038907787121927,1.0038907787121927,1.0038907787121927,1.0038907787121927,1.0038907787121927,1.0038907787121927,1.0038907787121927,1.0038907787121927,1.0038907787121927,1.0038907787121927,1.0038907787121927,1.0038907787121927,1.0038907787121927,1.0038907787121927,1.0038907787121927,1.0038907787121927,1.0038907787121927,1.0038907787121927,1.0038907787121927,1.0038907787121927,1.0038907787121927,1.0038907787121927,1.0038907787121927,1.0038907787121927,1.0038907787121927,1.0038907787121927,1.0038907787121927,1.0038907787121927,1.0038907787121927,1.0038907787121927,1.0038907787121927,1.0038907787121927,1.0038907787121927,1.0038907787121927,1.0038907787121927,1.0038907787121927,1.0038907787121927,1.0038907787121927,1.0038907787121927,1.0038907787121927,1.0038907787121927,1.0038907787121927,1.0038907787121927,1.0038907787121927,1.0038907787121927,1.0038907787121927,1.0038907787121927,1.0038907787121927,1.0038907787121927,1.0038907787121927,1.0038907787121927,1.0038907787121927,1.0038907787121927,1.0038907787121927,1.0038907787121927,1.0038907787121927,1.0038907787121927,1.0038907787121927,1.0038907787121927,1.0038907787121927,1.0038907787121927,1.0038907787121927,1.0038907787121927,1.0038907787121927,1.0038907787121927,1.0038907787121927,1.0038907787121927,1.0038907787121927,1.0038907787121927,1.0038907787121927,1.0038907787121927,1.0038907787121927,1.0038907787121927,1.0038907787121927,1.0038907787121927,1.0038907787121927,1.0038907787121927,1.0038907787121927,1.0038907787121927,1.0038907787121927,1.0038907787121927,1.0038907787121927,1.0038907787121927,1.0038907787121927,1.0038907787121927,1.0038907787121927,1.0038907787121927,1.0038907787121927,1.0038907787121927,1.0038907787121927,1.0038907787121927,1.0038907787121927,1.0038907787121927,1.0038907787121927,1.0038907787121927,1.0038907787121927,1.0038907787121927,1.0038907787121927,1.0038907787121927,1.0038907787121927,1.0038907787121927,1.0038907787121927,1.0038907787121927,1.0038907787121927,1.0038907787121927,1.0038907787121927,1.0038907787121927,1.0038907787121927,1.0038907787121927,1.0038907787121927,1.0038907787121927,1.0038907787121927,1.0038907787121927,1.0038907787121927,1.0038907787121927,1.0038907787121927,1.0038907787121927,1.0038907787121927,1.0038907787121927,1.0038907787121927,1.0038907787121927,1.0038907787121927,1.0038907787121927,1.0038907787121927,1.0038907787121927,1.0038907787121927,1.0038907787121927,1.0038907787121927,1.0038907787121927,1.0038907787121927,1.0038907787121927,1.0038907787121927,1.0038907787121927,1.0038907787121927,1.0038907787121927,1.0038907787121927,1.0038907787121927,1.0038907787121927,1.0038907787121927,1.0038907787121927,1.0038907787121927,1.0038907787121927,1.0038907787121927,1.0038907787121927,1.0038907787121927,1.0038907787121927,1.0038907787121927,1.0038907787121927,1.0038907787121927,1.0038907787121927,1.0038907787121927,1.0038907787121927,1.0038907787121927,1.0038907787121927,1.0038907787121927,1.0038907787121927,1.0038907787121927,1.0038907787121927,1.0038907787121927,1.0038907787121927,1.0038907787121927,1.0038907787121927,1.0038907787121927,1.0038907787121927,1.0038907787121927,1.0038907787121927,1.0038907787121927,1.0038907787121927,1.0038907787121927,1.0038907787121927,1.0038907787121927,1.0038907787121927,1.0038907787121927,1.0038907787121927,1.0038907787121927,1.0038907787121927,1.0038907787121927,1.0038907787121927,1.0038907787121927,1.0038907787121927,1.0038907787121927,1.0038907787121927,1.0038907787121927,1.0038907787121927,1.0038907787121927,1.0038907787121927,1.0038907787121927,1.0038907787121927,1.0038907787121927,1.0038907787121927,1.0038907787121927,1.0038907787121927,1.0038907787121927,1.0038907787121927,1.0038907787121927,1.0038907787121927,1.0038907787121927,1.0038907787121927,1.0038907787121927,1.0038907787121927,1.0038907787121927,1.0038907787121927,1.0038907787121927,1.0038907787121927,1.0038907787121927,1.0038907787121927,1.0038907787121927,1.0038907787121927,1.0038907787121927,1.0038907787121927,1.0038907787121927,1.0038907787121927,1.0038907787121927,1.0038907787121927,1.0038907787121927,1.0038907787121927,1.0038907787121927,1.0038907787121927,1.0038907787121927,1.0038907787121927,1.0038907787121927,1.0038907787121927,1.0038907787121927,1.0038907787121927,1.0038907787121927,1.0038907787121927,1.0038907787121927,1.0038907787121927,1.0038907787121927,1.0038907787121927,1.0038907787121927,1.0038907787121927,1.0038907787121927,1.0038907787121927,1.0038907787121927,1.0038907787121927,1.0038907787121927,1.0038907787121927,1.0038907787121927,1.0038907787121927,1.0038907787121927,1.0038907787121927,1.0038907787121927,1.0038907787121927,1.0038907787121927,1.0038907787121927,1.0038907787121927,1.0038907787121927,1.0038907787121927,1.0038907787121927,1.0038907787121927,1.0038907787121927,1.0038907787121927,1.0038907787121927,1.0038907787121927,1.0038907787121927,1.0038907787121927,1.0038907787121927,1.0038907787121927,1.0038907787121927,1.0038907787121927,1.0038907787121927,1.0038907787121927,1.0038907787121927,1.0038907787121927,1.0038907787121927,1.0038907787121927,1.0038907787121927,1.0038907787121927,1.0038907787121927,1.0038907787121927,1.0038907787121927,1.0038907787121927,1.0038907787121927,1.0038907787121927,1.0038907787121927,1.0038907787121927,1.0038907787121927,1.0038907787121927,1.0038907787121927,1.0038907787121927,1.0038907787121927,1.0038907787121927,1.0038907787121927,1.0038907787121927,1.0038907787121927,1.0038907787121927,1.0038907787121927,1.0038907787121927,1.0038907787121927,1.0038907787121927,1.0038907787121927,1.0038907787121927,1.0038907787121927,1.0038907787121927,1.0038907787121927,1.0038907787121927,1.0471975511965976]],"response_history":["1"],"rt":19843,"trial_type":"polygon-arrow-question","trial_index":0,"trial_index_global":27,"time_elapsed":546528,"internal_chunk_id":"0-0.7-0"},{"nsides":6,"feedback":"Sorry, that was incorrect. The inverse of 1 under <img src=./images/hexagon_symbol.png style=width:14px;height:14px> is 5 because 1 <img src=./images/hexagon_symbol.png style=width:14px;height:14px> 5 = 0, and 0 is the identity under <img src=./images/hexagon_symbol.png style=width:14px;height:14px>.","orientation_history":[0],"rt":5020,"trial_type":"polygon-arrow-feedback","trial_index":0,"trial_index_global":28,"time_elapsed":551549,"internal_chunk_id":"0-0.7-0"},{"nsides":6,"question":"What is the inverse of 3 under <img src=./images/hexagon_symbol.png style=width:14px;height:14px>? <br /><br /> (Remember,  the inv erse of an element is the thing which you combine with it to produce the identity.)","response_type":"free","response_choices":[],"correct_response":"3","response":"3","orientation_history":[[0],[0,0,0,0,0.02847653211656298,0.07779273591137548,0.16385228581552203,0.2397240198008601,0.323225583178691,0.323225583178691,0.3495092115467884,0.44320099667136903,0.6150576725134828,0.7295809478085484,0.8733946268027779,0.9500634571639236,1.0155759338154315,1.123073607841086,1.3448545768636853,1.4036103995794078,1.4753823325152275,1.5279653941261693,1.578769098184391,1.6958613173765438,1.8395122210288573,1.9571439021274675,2.0249339990052224,2.1037237116494047,2.1482148801089904,2.209571217066575,2.252215394874316,2.2824455779605746,2.2925332374874,2.3236724706698606,2.3648643684748434,2.4352059945435345,2.486859286486399,2.5706872724947063,2.5706872724947063,2.628578257274328,2.6612519488036126,2.6938699346359822,2.7234908980651085,2.7858604930406816,2.807304926443199,2.820462061915954,2.8337188610236117,2.863749505200409,2.8800927750471237,2.8829955245140235,2.8987687643148847,2.937998980295231,2.951193649607071,2.991071850088245,3.005697992196648,3.0189317352088283,3.0189317352088283,3.0189317352088283,3.0189317352088283,3.0189317352088283,3.0189317352088283,3.0189317352088283,3.0189317352088283,3.0189317352088283,3.0189317352088283,3.0189317352088283,3.0189317352088283,3.0189317352088283,3.0189317352088283,3.0189317352088283,3.0189317352088283,3.141592653589793]],"response_history":["3"],"rt":6392,"trial_type":"polygon-arrow-question","trial_index":0,"trial_index_global":29,"time_elapsed":557942,"internal_chunk_id":"0-0.7-0"},{"nsides":6,"feedback":"Correct! The inverse of 3 under <img src=./images/hexagon_symbol.png style=width:14px;height:14px> is 3 because 3 <img src=./images/hexagon_symbol.png style=width:14px;height:14px> 3 = 0, and 0 is the identity under <img src=./images/hexagon_symbol.png style=width:14px;height:14px>.","orientation_history":[0],"rt":959,"trial_type":"polygon-arrow-feedback","trial_index":0,"trial_index_global":30,"time_elapsed":558902,"internal_chunk_id":"0-0.7-0"},{"nsides":6,"question":"What is the inverse of 2 under <img src=./images/hexagon_symbol.png style=width:14px;height:14px>? <br /><br /> (Remember, the inverse of an element is the thing which you combine with it to produce the identity.)","response_type":"free","response_choices":[],"correct_response":"4","response":"4","orientation_history":[[0],[0.03385617425181664,-6.16352511382032,-6.146387311927124,-6.11018643243001,-6.073029962217448,-6.070182769657983,-6.023916384741376,-5.9106310487247224,-5.798428233727468,-5.6035853167059315,-5.22018459167003,-5.05637639602623,-4.906563939453332,-4.849806781631239,-4.819354013922422,-4.797112990311969,-4.705036171717999,-4.578444044438027,-4.483492338095271,-4.467963283470523,-4.45312005794648,-4.385779377737945,-4.300748493293377,-4.250129032912765,-4.219992914019176,-4.219992914019176,-4.2123251637145875,-4.197937667325662,-4.183754221334353,-4.183754221334353,-4.183754221334353,-4.183754221334353,-4.183754221334353,-4.183754221334353,-4.183754221334353,-4.183754221334353,-4.183754221334353,-4.183754221334353,-4.183754221334353,-4.183754221334353,-4.183754221334353,-4.183754221334353,-4.183754221334353,-4.183754221334353,-4.183754221334353,-4.183754221334353,-4.183754221334353,-4.183754221334353,-4.183754221334353,-4.183754221334353,-4.183754221334353,-4.183754221334353,-4.169776100337769,-4.096101388171643,-3.9816764214541105,-3.912315963441795,-3.799415221659242,-3.5144578714090873,-3.4411031617669736,-3.390565019631551,-3.373884734831067,-3.2982851759667744,-3.261524161006854,-3.208880977950665,-3.1904576020227333,-3.1904576020227333,-3.1739301814200127,-3.1739301814200127,-3.157357113307395,-3.140747345253514,-3.1241099454098187,-3.107454073245512,-3.074396975223566,-3.074396975223566,-3.074396975223566,-3.0580138051274957,-3.0580138051274957,-3.0580138051274957,-3.0580138051274957,-3.0580138051274957,-3.0253089246081064,-2.9418990019220743,-2.8102521577932493,-2.6129578945394565,-2.3759803759529965,-2.276827128295363,-2.1444029723633156,-2.1048702364567085,-2.0808934299890467,-2.0808934299890467,-2.0808934299890467,-2.0808934299890467,-2.0808934299890467,-2.0808934299890467,-2.0808934299890467,-2.0808934299890467,-2.0716476052652215,-2.0716476052652215,-2.0716476052652215,-2.0716476052652215,-2.052836510356064,-2.0139339916562555,-1.8982866140781347,-1.841743177133317,-1.7649712858635391,-1.7021609332094378,-1.600896721891905,-1.5335053137500037,-1.4789198441462208,-1.4379851772104892,-1.3838536618835349,-1.3437579249999994,-1.2782397548724322,-1.2147694889427534,-1.1537370623058987,-1.130074758805823,-1.130074758805823,-1.130074758805823,-1.130074758805823,-1.130074758805823,-1.130074758805823,-1.130074758805823,-1.130074758805823,-1.130074758805823,-1.1083212793047803,-1.1030945523267812,-1.0977414692854026,-1.0563450137358688,-0.9442343052134392,-0.8734794748594403,-0.6911435639476959,-0.5506510028020521,-0.4562948003341152,-0.36065253935548114,-0.3021866837686886,-0.28125576348466375,-0.28125576348466375,-0.28125576348466375,-0.28125576348466375,-0.28125576348466375,-0.26576554955418175,-0.26576554955418175,-0.26576554955418175,-0.26576554955418175,-0.26576554955418175,-0.26576554955418175,-0.26074312284446677,-0.22529331533721475,-0.20175057171983823,-0.18657054291494912,-0.16455399563951634,-0.1465918557916588,-0.11434497335640526,-0.09735631667360956,-0.0807844373996991,-0.0807844373996991,-0.0807844373996991,-0.0807844373996991,-0.0807844373996991,-0.0807844373996991,-0.0807844373996991,-0.0807844373996991,-0.0807844373996991,-0.0807844373996991,-0.0807844373996991,-0.07889883309769097,-0.0646229563087033,-0.0646229563087033,-0.0646229563087033,-0.06298830308548631,-0.0488649484329402,-0.0488649484329402,-0.0488649484329402,-0.0488649484329402,-0.0488649484329402,-0.0488649484329402,-0.0488649484329402,-0.0488649484329402,-0.0488649484329402,-0.0488649484329402,-0.0488649484329402,6.283185307179586]],"response_history":["4"],"rt":7147,"trial_type":"polygon-arrow-question","trial_index":0,"trial_index_global":31,"time_elapsed":566050,"internal_chunk_id":"0-0.7-0"},{"nsides":6,"feedback":"Correct! The inverse of 2 under <img src=./images/hexagon_symbol.png style=width:14px;height:14px> is 4 because 2 <img src=./images/hexagon_symbol.png style=width:14px;height:14px> 4 = 0, and 0 is the identity under <img src=./images/hexagon_symbol.png style=width:14px;height:14px>.","orientation_history":[0],"rt":938,"trial_type":"polygon-arrow-feedback","trial_index":0,"trial_index_global":32,"time_elapsed":566988,"internal_chunk_id":"0-0.7-0"},{"nsides":6,"question":"What is the inverse of 0 under <img src=./images/hexagon_symbol.png style=width:14px;height:14px>? <br /><br /> (Remember, the inverse of an element is the thing which you combine with it  to prod uce the identity.)","response_type":"free","response_choices":[],"correct_response":"0","response":"0","orientation_history":[[0]],"response_history":["0"],"rt":7710,"trial_type":"polygon-arrow-question","trial_index":0,"trial_index_global":33,"time_elapsed":574698,"internal_chunk_id":"0-0.7-0"},{"nsides":6,"feedback":"Correct! The inverse of 0 under <img src=./images/hexagon_symbol.png style=width:14px;height:14px> is 0 because 0 <img src=./images/hexagon_symbol.png style=width:14px;height:14px> 0 = 0, and 0 is the identity under <img src=./images/hexagon_symbol.png style=width:14px;height:14px>.","orientation_history":[0],"rt":1398,"trial_type":"polygon-arrow-feedback","trial_index":0,"trial_index_global":34,"time_elapsed":576096,"internal_chunk_id":"0-0.7-0"},{"nsides":6,"instructions":"It is also possible to successively apply <img src=./images/hexagon_symbol.png style=width:14px;height:14px>, and the operation can simply be performed star ting wit h the left-most pair. For example, 2 <img src=./images/hexagon_symbol.png style=width:14px;height:14px> 3 <img src=./images/hexagon_symbol.png style=width:14px;height:14px> 4 = 5 <img src=./images/hexagon_symbol.png style=width:14px;height:14px> 4 = 3.","orientation_history":[0,[0,-6.248705964790528,-6.179951344790816,-6.10659399508114,-6.016693494599844,-5.977890188934431,-5.921726953002589,-5.833537860414519,-5.755457314068281,-5.687421421567352,-5.5802161250787705,-5.480547472587609,-5.407506907284489,-5.307301806135244,-5.088599947119096,-4.892544869040041,-4.710773037810637,-4.69514930919016,-4.61953616595333,-4.561620260098289,-4.443459337431974,-4.327018537864997,-4.231501700189354,-4.198726555785278,-4.173057695361873,-4.138983079069707,-4.110271695470127,-4.110271695470127,-4.110271695470127,-4.110271695470127,-4.110271695470127,-4.110271695470127,-4.110271695470127,-4.110271695470127,-4.110271695470127,-4.110271695470127,-4.110271695470127,-4.110271695470127,-4.110271695470127,-4.110271695470127,-4.110271695470127,-4.110271695470127,-4.110271695470127,-4.110271695470127,-4.110271695470127,-4.110271695470127,-4.129294982082101,-4.146599906739633,-4.146599906739633,-4.146599906739633,-4.146599906739633,-4.146599906739633,-4.146599906739633,-4.146599906739633,-4.146599906739633,-4.146599906739633,-4.146599906739633,-4.146599906739633,-4.146599906739633,-4.146599906739633,-4.146599906739633,-4.146599906739633,-4.146599906739633,-4.146599906739633,-4.146599906739633,-4.146599906739633,-4.146599906739633,-4.146599906739633,-4.146599906739633,-4.146599906739633,-4.146599906739633,-4.146599906739633,-4.146599906739633,-4.146599906739633,-4.146599906739633,-4.146599906739633,-4.146599906739633,-4.146599906739633,-4.146599906739633,-4.146599906739633,-4.146599906739633,-4.146599906739633,-4.146599906739633,-4.146599906739633,-4.146599906739633,-4.146599906739633,-4.146599906739633,-4.146599906739633,-4.146599906739633,-4.146599906739633,-4.146599906739633,-4.146599906739633,-4.146599906739633,-4.146599906739633,-4.146599906739633,-4.146599906739633,-4.146599906739633,-4.146599906739633,-4.146599906739633,-4.146599906739633,-4.146599906739633,-4.146599906739633,-4.146599906739633,-4.146599906739633,-4.146599906739633,-4.146599906739633,-4.146599906739633,-4.146599906739633,-4.146599906739633,-4.146599906739633,-4.146599906739633,-4.146599906739633,-4.146599906739633,-4.140357082052265,-4.117247372227915,-4.066353022774727,-4.026337151254028,-3.965249651038429,-3.919096668100202,-3.8532077088478944,-3.813891998682699,-3.7865684836514357,-3.7461772702258536,-3.7007282029864474,-3.625957036584384,-3.569369207150805,-3.4895544321834366,-3.4546503372245176,-3.428863865597376,-3.385831798107513,-3.372642891698332,-3.359365198115921,-3.3430219282692057,-3.340119178802306,-3.308895779585878,-3.306521292868027,-3.306521292868027,-3.306521292868027,-3.306521292868027,-3.306521292868027,-3.306521292868027,-3.293766026284882,-3.280954859377279,-3.255180378469321,-3.2278776569058083,-3.213856800746874,-3.200156819756403,-3.200156819756403,-3.200156819756403,-3.200156819756403,-3.200156819756403,-3.200156819756403,-3.200156819756403,-3.200156819756403,-3.200156819756403,-3.200156819756403,-3.1749426911646483,-3.149988390916941,-3.0717699207843223,-2.9481182846585883,-2.892488321545875,-2.840558873186936,-2.815154070068189,-2.798383043755618,-2.7857972874835797,-2.78132904197456,-2.733745938697577,-2.6977254892683877,-2.586308774569639,-2.4916041473930806,-2.433016053625802,-2.2419154330158158,-2.2419154330158158,-2.224414122201134,-2.2069829967811287,-2.1767559855344327,-2.1663768577656084,-2.1663768577656084,-2.1486262793059083,-2.1272233237685274,-2.105211638128914,-2.0593479711947706,-1.9732075177354709,-1.9156440632940956,-1.8436435879213953,-1.816016055426644,-1.7738053789910566,-1.7162840302407485,-1.6870857046922385,-1.6428706485935898,-1.61231247831609,-1.538851833222516,-1.4655492820726268,-1.436447911033503,-1.3788844565921279,-1.308577992473503,-1.2675052138830498,-1.2406554277199824,-1.2274008433569144,-1.2012479309262254,-1.1883552058121944,-1.175588344104094,-1.1629496119026808,-1.1504410663816689,-1.138064559659477,-1.138064559659477,-1.138064559659477,-1.138064559659477,-1.138064559659477,-1.138064559659477,-1.138064559659477,-1.138064559659477,-1.138064559659477,-1.138064559659477,-1.138064559659477,-1.138064559659477,-1.138064559659477,-1.138064559659477,-1.138064559659477,-1.138064559659477,-1.138064559659477,-1.138064559659477,-1.138064559659477,-1.138064559659477,-1.138064559659477,-1.138064559659477,-1.138064559659477,-1.138064559659477,-1.138064559659477,-1.138064559659477,-1.138064559659477,-1.138064559659477,-1.138064559659477,-1.138064559659477,-1.138064559659477,-1.138064559659477,-1.13806455