[{"nsides":6,"instructions":"Let's define a new operation <img src=./images/hexagon_symbol.png style=width:14px;height:14px>. This operation will give us a way of combining two of the numbers 0, 1, 2, 3, 4, 5 to get another one of them back. Consider the hexagon at the right, where I've labeled each point with one of the numbers. To perform <img src=./images/hexagon_symbol.png style=width:14px;height:14px>, you can use the interactive diagram on the right, or perform the operation in your mind. Point the arrow at the first number on the hexagon by clicking, then click (or click and drag) to move the arrow the second number of points clockwise around the hexagon. The number the arrow arrives at is your result. (The operation is called <img src=./images/hexagon_symbol.png style=width:14px;height:14px> because it uses the hexagon, which has 6 sides.) <br /><br />For example, 3 <img src=./images/hexagon_symbol.png style=width:14px;height:14px> 5 =  2, becau se 5 steps clockwise from 3 on the hexagon brings us to 2. So 3 <img src=./images/hexagon_symbol.png style=width:14px;height:14px> 5 = 2.<br /><br />Similarly, 1 <img src=./images/hexagon_symbol.png style=width:14px;height:14px> 4 = 5, because 4 steps clockwise from 1 brings us to 5. <br /><br />Click Continue when you're ready to move on.","orientation_history":[0],"rt":112632,"trial_type":"polygon-arrow-instructions","trial_index":0,"trial_index_global":1,"time_elapsed":132784,"internal_chunk_id":"0-0"},{"nsides":6,"instructions":"Do you see how <img src=./images/hexagon_symbol.png style=width:14px;height:14px> works? By labeling the points of the hexagon with the numbers from 0 to 5, we ensure that when we combine two numbers under <img src=./images/hexagon_symbol.png style=width:14px;height:14px>, we only produce numbers between 0 and 5.<br /><br />Click Continue when you are ready to move on.","orientation_history":[0],"rt":12467,"trial_type":"polygon-arrow-instructions","trial_index":0,"trial_index_global":2,"time_elapsed":145262,"internal_chunk_id":"0-0"},{"nsides":6,"question":"Now try one on your own! What is 4 <img src=./images/hexagon_symbol.png style=width:14px;height:14px> 5? <br /><br /> (Remember, to perform <img src=./images/hexagon_symbol.png style=width:14px;height:14px>, you can use the interactive diagram on the right, or perform the operation in your mind. Point the arrow at the first number on the hexagon, then move the arrow the second number of points clockwise around the hexagon. The number the arrow arrives at is your result.)","response_type":"free","response_choices":[],"correct_response":"3","response":"3","orientation_history":[[0],[4.198782975661941,4.198782975661941,4.198782975661941,4.198782975661941,4.198782975661941,4.198782975661941,4.198782975661941,4.198782975661941,4.1887902047863905],[5.25666946533067,5.25666946533067,5.25666946533067,5.25666946533067,5.25666946533067,5.25666946533067,5.25666946533067,5.25666946533067,5.235987755982988],[0.019415035902317967,0.019415035902317967,0.019415035902317967,0.019415035902317967,0.019415035902317967,0.019415035902317967,0.019415035902317967,0],[1.0555513631088531,1.0555513631088531,1.0555513631088531,1.0555513631088531,1.0555513631088531,1.0555513631088531,1.0471975511965976],[2.0537652026514577,2.0537652026514577,2.0537652026514577,2.0537652026514577,2.0537652026514577,2.0943951023931953],[2.8501358591119264,2.8501358591119264,2.8501358591119264,2.8501358591119264,2.8501358591119264,2.8501358591119264,3.141592653589793]],"response_history":["2","3"],"rt":37607,"trial_type":"polygon-arrow-question","trial_index":0,"trial_index_global":3,"time_elapsed":182874,"internal_chunk_id":"0-0.3-0"},{"nsides":6,"feedback":"Correct! 4 <img src=./images/hexagon_symbol.png style=width:14px;height:14px> 5 = 3 because 5 steps clockwise on the hexagon from 4 brings us to 3","orientation_history":[0],"rt":4816,"trial_type":"polygon-arrow-feedback","trial_index":0,"trial_index_global":4,"time_elapsed":187694,"internal_chunk_id":"0-0.3-0"},{"nsides":6,"question":"What is 3 <img src=./images/hexagon_symbol.png style=width:14px;height:14px> 2? <br /><br /> (Remember, to perform <img src=./images/hexagon_symbol.png style=width:14px;height:14px>, you can use the interactive diagram on the right, or perform the operation in your mind. Point the arrow at the first number on the hexagon, then move the arrow the second number of points clockwise around the hexagon. The number the arrow arrives at is your result.)","response_type":"free","response_choices":[],"correct_response":"5","response":"5","orientation_history":[[0],[2.9962826429540907,2.9962826429540907,2.9962826429540907,2.9962826429540907,2.9962826429540907,3.008242399418241,3.141592653589793]],"response_history":["5"],"rt":7593,"trial_type":"polygon-arrow-question","trial_index":0,"trial_index_global":5,"time_elapsed":195288,"internal_chunk_id":"0-0.3-0"},{"nsides":6,"feedback":"Correct! 3 <img src=./images/hexagon_symbol.png style=width:14px;height:14px> 2 = 5 because 2 steps clockwise on the hexagon from 3 brings us to 5","orientation_history":[0],"rt":4592,"trial_type":"polygon-arrow-feedback","trial_index":0,"trial_index_global":6,"time_elapsed":199882,"internal_chunk_id":"0-0.3-0"},{"nsides":6,"question":"What is 1 <img src=./images/hexagon_symbol.png style=width:14px;height:14px> 5? <br /><br /> (Remember, to perform <img src=./images/hexagon_symbol.png style=width:14px;height:14px>, you can use the interactive diagram on the right, or perform the operation in your mind. Point the arrow at the first number on the hexagon, then move the arrow the second number of points clockwise around the hexagon. The number the arrow arrives at is your result.)","response_type":"free","response_choices":[],"correct_response":"0","response":"0","orientation_history":[[0],[1.1169523252733864,1.1169523252733864,1.1169523252733864,1.1169523252733864,1.1169523252733864,1.1169523252733864,1.1169523252733864,1.1169523252733864,1.1169523252733864,1.0471975511965976],[2.1557959363664665,2.1557959363664665,2.1557959363664665,2.1557959363664665,2.1557959363664665,2.1557959363664665,2.1557959363664665,2.0943951023931953],[3.1841201882095773,3.1841201882095773,3.1841201882095773,3.1841201882095773,3.194734062434729,3.2053359661224805,3.2159235407574585,3.141592653589793],[4.164525448882854,4.164525448882854,4.164525448882854,4.164525448882854,4.164525448882854,4.164525448882854,4.164525448882854,4.1887902047863905],[5.312930111763697,5.312930111763697,5.312930111763697,5.312930111763697,5.312930111763697,5.312930111763697,5.312930111763697,5.235987755982988],[0.260602391747341,0.260602391747341,0.260602391747341,0.260602391747341,0.260602391747341,0.260602391747341,0.260602391747341,0.260602391747341,0]],"response_history":["0"],"rt":18657,"trial_type":"polygon-arrow-q uestion","trial_index":0,"trial_index_global":7,"time_elapsed":218540,"internal_chunk_id":"0-0.3-0"},{"nsides":6,"feedback":"Correct! 1 <img src=./images/hexagon_symbol.png style=width:14px;height:14px> 5 = 0 because 5 steps clockwise on the hexagon from 1 brings us to 0","orientation_history":[0],"rt":1772,"trial_type":"polygon-arrow-feedback","trial_index":0,"trial_index_global":8,"time_elapsed":220314,"internal_chunk_id":"0-0.3-0"},{"nsides":6,"question":"What is 1 <img src=./images/hexagon_symbol.png style=width:14px;height:14px> 1? <br /><br /> (Remember, to perform <img src=./images/hexagon_symbol.png style=width:14px;height:14px>, you can use the interactive diagram on the right, or perform the operation in your mind. Point the arrow at the first number on the hexagon, then move the arrow the second number of points clockwise around the hexagon. The number the arrow arrives at is your result.)","response_type":"free","response_choices":[],"correct_response":"2 ","response":"2","orientation_history":[[0]],"response_history":["2"],"rt":4274,"trial_type":"polygon-arrow-question","trial_index":0,"trial_index_global":9,"time_elapsed":224589,"internal_chunk_id":"0-0.3-0"},{"nsides":6,"feedback":"Correct! 1 <img src=./images/hexagon_symbol.png style=width:14px;height:14px> 1 = 2 because 1 step clockwise on the hexagon from 1 brings us to 2","orientation_history":[0],"rt":3294,"trial_type":"polygon-arrow-feedback","trial_index":0,"trial_index_global":10,"time_elapsed":227884,"internal_chunk_id":"0-0.3-0"},{"nsides":6,"question":"What is 3 <img src=./images/hexagon_symbol.png style=width:14px;height:14px> 0? <br /><br /> (Remember, to perform <img src=./images/hexagon_symbol.png style=width:14px;height:14px>, you can use the interactive diagram on the right, or perform the operation in your mind. Point the arrow at the first number on the hexagon, then move the arrow the second number of points clockwise around the  hexagon.  The number the arrow arrives at is your result.)","response_type":"free","response_choices":[],"correct_response":"3","response":"3","orientation_history":[[0]],"response_history":["3"],"rt":4375,"trial_type":"polygon-arrow-question","trial_index":0,"trial_index_global":11,"time_elapsed":232261,"internal_chunk_id":"0-0.3-0"},{"nsides":6,"feedback":"Correct! 3 <img src=./images/hexagon_symbol.png style=width:14px;height:14px> 0 = 3 because 0 steps clockwise on the hexagon from 3 brings us to 3","orientation_history":[0],"rt":2622,"trial_type":"polygon-arrow-feedback","trial_index":0,"trial_index_global":12,"time_elapsed":234884,"internal_chunk_id":"0-0.3-0"},{"nsides":6,"question":"What is 4 <img src=./images/hexagon_symbol.png style=width:14px;height:14px> 4? <br /><br /> (Remember, to perform <img src=./images/hexagon_symbol.png style=width:14px;height:14px>, you can use the interactive diagram on the right, or perform the operation in your mind. Po int the  arrow at the first number on the hexagon, then move the arrow the second number of points clockwise around the hexagon. The number the arrow arrives at is your result.)","response_type":"free","response_choices":[],"correct_response":"2","response":"2","orientation_history":[[0]],"response_history":["2"],"rt":5719,"trial_type":"polygon-arrow-question","trial_index":0,"trial_index_global":13,"time_elapsed":240604,"internal_chunk_id":"0-0.3-0"},{"nsides":6,"feedback":"Correct! 4 <img src=./images/hexagon_symbol.png style=width:14px;height:14px> 4 = 2 because 4 steps clockwise on the hexagon from 4 brings us to 2","orientation_history":[0],"rt":1842,"trial_type":"polygon-arrow-feedback","trial_index":0,"trial_index_global":14,"time_elapsed":242448,"internal_chunk_id":"0-0.3-0"},{"nsides":6,"question":"What is 1 <img src=./images/hexagon_symbol.png style=width:14px;height:14px> 3? <br /><br /> (Remember, to perform <img src=./images/hexagon_symbol.png style=width:1 4px;height:14px>, you can use the interactive diagram on the right, or perform the operation in your mind. Point the arrow at the first number on the hexagon, then move the arrow the second number of points clockwise around the hexagon. The number the arrow arrives at is your result.)","response_type":"free","response_choices":[],"correct_response":"4","response":"4","orientation_history":[[0]],"response_history":["4"],"rt":3599,"trial_type":"polygon-arrow-question","trial_index":0,"trial_index_global":15,"time_elapsed":246048,"internal_chunk_id":"0-0.3-0"},{"nsides":6,"feedback":"Correct! 1 <img src=./images/hexagon_symbol.png style=width:14px;height:14px> 3 = 4 because 3 steps clockwise on the hexagon from 1 brings us to 4","orientation_history":[0],"rt":1516,"trial_type":"polygon-arrow-feedback","trial_index":0,"trial_index_global":16,"time_elapsed":247565,"internal_chunk_id":"0-0.3-0"},{"nsides":6,"question":"What is 4 <img src=./images/hexagon_symbol.png s tyle=w idth:14px;height:14px> 3? <br /><br /> (Remember, to perform <img src=./images/hexagon_symbol.png style=width:14px;height:14px>, you can use the interactive diagram on the right, or perform the operation in your mind. Point the arrow at the first number on the hexagon, then move the arrow the second number of points clockwise around the hexagon. The number the arrow arrives at is your result.)","response_type":"free","response_choices":[],"correct_response":"1","response":"1","orientation_history":[[0]],"response_history":["1"],"rt":3679,"trial_type":"polygon-arrow-question","trial_index":0,"trial_index_global":17,"time_elapsed":251245,"internal_chunk_id":"0-0.3-0"},{"nsides":6,"feedback":"Correct! 4 <img src=./images/hexagon_symbol.png style=width:14px;height:14px> 3 = 1 because 3 steps clockwise on the hexagon from 4 brings us to 1","orientation_history":[0],"rt":2099,"trial_type":"polygon-arrow-feedback","trial_index":0,"trial_index_global":18,"time_elapsed":253346,"internal_chunk_id":"0-0.3-0"},{"nsides":6,"question":"What is 0 <img src=./images/hexagon_symbol.png style=width:14px;height:14px> 5? <br /><br /> (Remember, to perform <img src=./images/hexagon_symbol.png style=width:14px;height:14px>, you can use the interactive diagram on the right, or perform the operation in your mind. Point the arrow at the first number on the hexagon, then move the arrow the second number of points clockwise around the hexagon. The number the arrow arrives at is your result.)","response_type":"free","response_choices":[],"correct_response":"5","response":"5","orientation_history":[[0]],"response_history":["5"],"rt":5123,"trial_type":"polygon-arrow-question","trial_index":0,"trial_index_global":19,"time_elapsed":258470,"internal_chunk_id":"0-0.3-0"},{"nsides":6,"feedback":"Correct! 0 <img src=./images/hexagon_symbol.png style=width:14px;height:14px> 5 = 5 because 5 steps clockwise on the hexagon from 0 brings us to 5","orientation_history":[0],"rt":1921,"trial_type":"polygon-arrow-feedback","trial_index":0,"trial_index_global":20,"time_elapsed":260393,"internal_chunk_id":"0-0.3-0"},{"nsides":6,"question":"What is 2 <img src=./images/hexagon_symbol.png style=width:14px;height:14px> 5? <br /><br /> (Remember, to perform <img src=./images/hexagon_symbol.png style=width:14px;height:14px>, you can use the interactive diagram on the right, or perform the operation in your mind. Point the arrow at the first number on the hexagon, then move the arrow the second number of points clockwise around the hexagon. The number the arrow arrives at is your result.)","response_type":"free","response_choices":[],"correct_response":"1","response":"1","orientation_history":[[0]],"response_history":["1"],"rt":6301,"trial_type":"polygon-arrow-question","trial_index":0,"trial_index_global":21,"time_elapsed":266695,"internal_chunk_id":"0-0.3-0"},{"nsides":6,"feedback":"Correct! 2 <img src=./images/hexagon_sym bol.png style=width:14px;height:14px> 5 = 1 because 5 steps clockwise on the hexagon from 2 brings us to 1","orientation_history":[0],"rt":807,"trial_type":"polygon-arrow-feedback","trial_index":0,"trial_index_global":22,"time_elapsed":267503,"internal_chunk_id":"0-0.3-0"},{"nsides":6,"instructions":"Now we're going to discuss a couple special properties of this new operation, <img src=./images/hexagon_symbol.png style=width:14px;height:14px> that we've learned. First, notice that the number 0 behaves in a special way under <img src=./images/hexagon_symbol.png style=width:14px;height:14px>. Whenever we combine 0 with anything else, we get that same thing back. We'll say that 0 is the <i>identity</i> under <img src=./images/hexagon_symbol.png style=width:14px;height:14px>, because when you combine it with something it gives you that identical thing back.","orientation_history":[0],"rt":14980,"trial_type":"polygon-arrow-instructions","trial_index":0,"trial_index_global":23,"time_elapsed":282486,"internal_chunk_id":"0-0"},{"nsides":6,"instructions":"Now that we know 0 is the identity under <img src=./images/hexagon_symbol.png style=width:14px;height:14px>, we're going to make a new definition. We'll say that the <i>inverse</i> of a number is the element that you combine with it to produce the identity under our operation. For example, 5 <img src=./images/hexagon_symbol.png style=width:14px;height:14px> 1 = 0, so we say 1 is the inverse of 5 under <img src=./images/hexagon_symbol.png style=width:14px;height:14px>, (remember 0 is the identity under <img src=./images/hexagon_symbol.png style=width:14px;height:14px>). Similarly, 3 is its own inverse under <img src=./images/hexagon_symbol.png style=width:14px;height:14px>, because 3 <img src=./images/hexagon_symbol.png style=width:14px;height:14px> 3 = 0.","orientation_history":[0],"rt":35258,"trial_type":"polygon-arrow-instructions","trial_index":0,"trial_index_global":24,"time_elapsed":317745,"internal_chunk_id":"0-0"},{"nsides":6,"question":"Now you try! What is the inverse of 4 under <img src=./images/hexagon_symbol.png style=width:14px;height:14px>? <br /><br /> (Remember, the inverse of an element is the thing which you combine with it to produce the identity.)","response_type":"free","response_choices":[],"correct_response":"2","response":"2","orientation_history":[[0],[4.223105962862206,4.223105962862206,4.223105962862206,4.223105962862206,4.223105962862206,4.223105962862206,4.223105962862206,4.223105962862206,4.1887902047863905],[5.25076349373092,5.25076349373092,5.25076349373092,5.25076349373092,5.25076349373092,5.235987755982988],[0.0760435592791171,0.0760435592791171,0.0760435592791171,0.0760435592791171,0.0760435592791171,0.0760435592791171,0.0760435592791171,0],[0.9251070376866118,0.9251070376866118,0.9251070376866118,0.9251070376866118,0.9251070376866118,0.9251070376866118,0.9251070376866118,0.9251070376866118,1.0471975511965976],[0.12297186956429718,0.12297186956429718,0.12297186956429718,0.12297186956429718,0.12297186956429718,0]],"response_history":["2"],"rt":16781,"trial_type":"polygon-arrow-question","trial_index":0,"trial_index_global":25,"time_elapsed":334527,"internal_chunk_id":"0-0.7-0"},{"nsides":6,"feedback":"Correct! The inverse of 4 under <img src=./images/hexagon_symbol.png style=width:14px;height:14px> is 2 because 4 <img src=./images/hexagon_symbol.png style=width:14px;height:14px> 2 = 0, and 0 is the identity under <img src=./images/hexagon_symbol.png style=width:14px;height:14px>.","orientation_history":[0],"rt":1507,"trial_type":"polygon-arrow-feedback","trial_index":0,"trial_index_global":26,"time_elapsed":336035,"internal_chunk_id":"0-0.7-0"},{"nsides":6,"question":"What is the inverse of 1 under <img src=./images/hexagon_symbol.png style=width:14px;height:14px>? <br /><br /> (Remember, the inverse of an element is the th ing whic h you combine with it to produce the identity.)","response_type":"free","response_choices":[],"correct_response":"5","response":"5","orientation_history":[[0]],"response_history":["5"],"rt":3959,"trial_type":"polygon-arrow-question","trial_index":0,"trial_index_global":27,"time_elapsed":339995,"internal_chunk_id":"0-0.7-0"},{"nsides":6,"feedback":"Correct! The inverse of 1 under <img src=./images/hexagon_symbol.png style=width:14px;height:14px> is 5 because 1 <img src=./images/hexagon_symbol.png style=width:14px;height:14px> 5 = 0, and 0 is the identity under <img src=./images/hexagon_symbol.png style=width:14px;height:14px>.","orientation_history":[0],"rt":1530,"trial_type":"polygon-arrow-feedback","trial_index":0,"trial_index_global":28,"time_elapsed":341527,"internal_chunk_id":"0-0.7-0"},{"nsides":6,"question":"What is the inverse of 3 under <img src=./images/hexagon_symbol.png style=width:14px;height:14px>? <br /><br /> (Remember, the inve rse of a n element is the thing which you combine with it to produce the identity.)","response_type":"free","response_choices":[],"correct_response":"3","response":"3","orientation_history":[[0]],"response_history":["3"],"rt":3543,"trial_type":"polygon-arrow-question","trial_index":0,"trial_index_global":29,"time_elapsed":345071,"internal_chunk_id":"0-0.7-0"},{"nsides":6,"feedback":"Correct! The inverse of 3 under <img src=./images/hexagon_symbol.png style=width:14px;height:14px> is 3 because 3 <img src=./images/hexagon_symbol.png style=width:14px;height:14px> 3 = 0, and 0 is the identity under <img src=./images/hexagon_symbol.png style=width:14px;height:14px>.","orientation_history":[0],"rt":1039,"trial_type":"polygon-arrow-feedback","trial_index":0,"trial_index_global":30,"time_elapsed":346111,"internal_chunk_id":"0-0.7-0"},{"nsides":6,"question":"What is the inverse of 2 under <img src=./images/hexagon_symbol.png style=width:14px;height:14px>? <br / ><br />  (Remember, the inverse of an element is the thing which you combine with it to produce the identity.)","response_type":"free","response_choices":[],"correct_response":"4","response":"4","orientation_history":[[0]],"response_history":["4"],"rt":3520,"trial_type":"polygon-arrow-question","trial_index":0,"trial_index_global":31,"time_elapsed":349631,"internal_chunk_id":"0-0.7-0"},{"nsides":6,"feedback":"Correct! The inverse of 2 under <img src=./images/hexagon_symbol.png style=width:14px;height:14px> is 4 because 2 <img src=./images/hexagon_symbol.png style=width:14px;height:14px> 4 = 0, and 0 is the identity under <img src=./images/hexagon_symbol.png style=width:14px;height:14px>.","orientation_history":[0],"rt":518,"trial_type":"polygon-arrow-feedback","trial_index":0,"trial_index_global":32,"time_elapsed":350151,"internal_chunk_id":"0-0.7-0"},{"nsides":6,"question":"What is the inverse of 0 under <img src=./images/hexagon_symbol.png style=width: 14px;hei ght:14px>? <br /><br /> (Remember, the inverse of an element is the thing which you combine with it to produce the identity.)","response_type":"free","response_choices":[],"correct_response":"0","response":"0","orientation_history":[[0]],"response_history":["0"],"rt":2383,"trial_type":"polygon-arrow-question","trial_index":0,"trial_index_global":33,"time_elapsed":352535,"internal_chunk_id":"0-0.7-0"},{"nsides":6,"feedback":"Correct! The inverse of 0 under <img src=./images/hexagon_symbol.png style=width:14px;height:14px> is 0 because 0 <img src=./images/hexagon_symbol.png style=width:14px;height:14px> 0 = 0, and 0 is the identity under <img src=./images/hexagon_symbol.png style=width:14px;height:14px>.","orientation_history":[0],"rt":711,"trial_type":"polygon-arrow-feedback","trial_index":0,"trial_index_global":34,"time_elapsed":353247,"internal_chunk_id":"0-0.7-0"},{"instructions":"It is also possible to successively apply <img src=./images/hexag on_symbo l.png style=width:14px;height:14px>, and the operation can simply be performed starting with the left-most pair. For example, 2 <img src=./images/hexagon_symbol.png style=width:14px;height:14px> 3 <img src=./images/hexagon_symbol.png style=width:14px;height:14px> 4 = 5 <img src=./images/hexagon_symbol.png style=width:14px;height:14px> 4 = 3.","rt":14679,"trial_type":"instructions","trial_index":0,"trial_index_global":35,"time_elapsed":367927,"internal_chunk_id":"0-0"},{"nsides":6,"instructions":"We have one last definition to learn today. Let's start with an example. Under our operation <img src=./images/hexagon_symbol.png style=width:14px;height:14px> we can make every other number using just 1: 2 = 1 <img src=./images/hexagon_symbol.png style=width:14px;height:14px> 1, 3 = 1 <img src=./images/hexagon_symbol.png style=width:14px;height:14px> 1 <img src=./images/hexagon_symbol.png style=width:14px;height:14px> 1,  4 = 1 <i mg src=./images/hexagon_symbol.png style=width:14px;height:14px> 1 <img src=./images/hexagon_symbol.png style=width:14px;height:14px> 1 <img src=./images/hexagon_symbol.png style=width:14px;height:14px> 1, 5 = 1 <img src=./images/hexagon_symbol.png style=width:14px;height:14px> 1 <img src=./images/hexagon_symbol.png style=width:14px;height:14px> 1 <img src=./images/hexagon_symbol.png style=width:14px;height:14px> 1 <img src=./images/hexagon_symbol.png style=width:14px;height:14px> 1, and 0 = 1 <img src=./images/hexagon_symbol.png style=width:14px;height:14px> 1 <img src=./images/hexagon_symbol.png style=width:14px;height:14px> 1 <img src=./images/hexagon_symbol.png style=width:14px;height:14px> 1 <img src=./images/hexagon_symbol.png style=width:14px;height:14px> 1 <img src=./images/hexagon_symbol.png style=width:14px;height:14px> 1. Because 1 can make every other element under <im g src= ./images/hexagon_symbol.png style=width:14px;height:14px>, we say that 1 is a <i>generator</i> under <img src=./images/hexagon_symbol.png style=width:14px;height:14px>. <br /><br /> However, 2 is not a generator under <img src=./images/hexagon_symbol.png style=width:14px;height:14px>, because 4 = 2 <img src=./images/hexagon_symbol.png style=width:14px;height:14px> 2, and 0 = 2 <img src=./images/hexagon_symbol.png style=width:14px;height:14px> 2 <img src=./images/hexagon_symbol.png style=width:14px;height:14px> 2, but there is no way to make 1, 3, or 5 using just 2.","orientation_history":[0],"rt":106406,"trial_type":"polygon-arrow-instructions","trial_index":0,"trial_index_global":36,"time_elapsed":474333,"internal_chunk_id":"0-0"},{"nsides":6,"question":"Now you try! Is 3 a generator under <img src=./images/hexagon_symbol.png style=width:14px;height:14px>? <br /><br /> (Remember, a generator is an element which can make  every ot her element.)","response_type":"multi","response_choices":["Yes","No"],"correct_response":"No","response":"No","orientation_history":[[0]],"response_history":["No"],"rt":12584,"trial_type":"polygon-arrow-question","trial_index":0,"trial_index_global":37,"time_elapsed":486919,"internal_chunk_id":"0-0.10-0"},{"nsides":6,"feedback":"Correct! 3 is not a generator under <img src=./images/hexagon_symbol.png style=width:14px;height:14px>, because 3 = 3, 0 = 3 <img src=./images/hexagon_symbol.png style=width:14px;height:14px> 3, but there is no way to make 1, 2, 4, or 5 using just 3.","orientation_history":[0],"rt":1349,"trial_type":"polygon-arrow-feedback","trial_index":0,"trial_index_global":38,"time_elapsed":488270,"internal_chunk_id":"0-0.10-0"},{"nsides":6,"question":"Is 5 a generator under <img src=./images/hexagon_symbol.png style=width:14px;height:14px>? <br /><br /> (Remember, a generator is an element which can make every other element.)","response_type":"m ulti","response_choices":["Yes","No"],"correct_response":"Yes","response":"Yes","orientation_history":[[0]],"response_history":["No","Yes"],"rt":14421,"trial_type":"polygon-arrow-question","trial_index":0,"trial_index_global":39,"time_elapsed":502692,"internal_chunk_id":"0-0.10-0"},{"nsides":6,"feedback":"Correct! 5 is a generator under <img src=./images/hexagon_symbol.png style=width:14px;height:14px>, because 5 = 5, 4 = 5 <img src=./images/hexagon_symbol.png style=width:14px;height:14px> 5, 3 = 5 <img src=./images/hexagon_symbol.png style=width:14px;height:14px> 5 <img src=./images/hexagon_symbol.png style=width:14px;height:14px> 5, 2 = 5 <img src=./images/hexagon_symbol.png style=width:14px;height:14px> 5 <img src=./images/hexagon_symbol.png style=width:14px;height:14px> 5 <img src=./images/hexagon_symbol.png style=width:14px;height:14px> 5, 1 = 5 <img src=./images/hexagon_symbol.png style=width:14px;height:14p x> 5 < img src=./images/hexagon_symbol.png style=width:14px;height:14px> 5 <img src=./images/hexagon_symbol.png style=width:14px;height:14px> 5 <img src=./images/hexagon_symbol.png style=width:14px;height:14px> 5, and 0 = 5 <img src=./images/hexagon_symbol.png style=width:14px;height:14px> 5 <img src=./images/hexagon_symbol.png style=width:14px;height:14px> 5 <img src=./images/hexagon_symbol.png style=width:14px;height:14px> 5 <img src=./images/hexagon_symbol.png style=width:14px;height:14px> 5 <img src=./images/hexagon_symbol.png style=width:14px;height:14px> 5, so you can make all of the numbers under <img src=./images/hexagon_symbol.png style=width:14px;height:14px> using 5","orientation_history":[0],"rt":3679,"trial_type":"polygon-arrow-feedback","trial_index":0,"trial_index_global":40,"time_elapsed":506372,"internal_chunk_id":"0-0.10-0"},{"nsides":6,"question":"Is 4 a generator under <img src=./images/he xagon_sy mbol.png style=width:14px;height:14px>? <br /><br /> (Remember, a generator is an element which can make every other element.)","response_type":"multi","response_choices":["Yes","No"],"correct_response":"No","response":"No","orientation_history":[[0]],"response_history":["No"],"rt":3570,"trial_type":"polygon-arrow-question","trial_index":0,"trial_index_global":41,"time_elapsed":509943,"internal_chunk_id":"0-0.10-0"},{"nsides":6,"feedback":"Correct! 4 is not a generator under <img src=./images/hexagon_symbol.png style=width:14px;height:14px>, because 4 = 4, 2 = 4 <img src=./images/hexagon_symbol.png style=width:14px;height:14px> 4, and 0 = 4 <img src=./images/hexagon_symbol.png style=width:14px;height:14px> 4 <img src=./images/hexagon_symbol.png style=width:14px;height:14px> 4, but there is no way to make 1, 3, or 5 using just 4.","orientation_history":[0],"rt":1287,"trial_type":"polygon-arrow-feedback","trial_index":0,"trial_index_global":42,"time_elapsed":511231,"internal_chunk_id":"0-0.10-0"},{"nsides":6,"question":"Is 0 a generator under <img src=./images/hexagon_symbol.png style=width:14px;height:14px>? <br /><br /> (Remember, a generator is an element which can make every other element.)","response_type":"multi","response_choices":["Yes","No"],"correct_response":"No","response":"No","orientation_history":[[0]],"response_history":["No"],"rt":4257,"trial_type":"polygon-arrow-question","trial_index":0,"trial_index_global":43,"time_elapsed":515489,"internal_chunk_id":"0-0.10-0"},{"nsides":6,"feedback":"Correct! 0 is not a generator under <img src=./images/hexagon_symbol.png style=width:14px;height:14px>, because 0 = 0, but there is no way to make 1, 2, 3, 4, or 5 using just 0.","orientation_history":[0],"rt":4703,"trial_type":"polygon-arrow-feedback","trial_index":0,"trial_index_global":44,"time_elapsed":520193,"internal_chunk_id":"0-0.10-0"},{"nsides":9,"instructions":"Now we are going to ask you  some que stions about a new operation, <img src=./images/nonagon_symbol.png style=width:14px;height:14px>, on the numbers 0, 1, 2, 3, 4, 5, 6, 7, 8. It works exactly like <img src=./images/hexagon_symbol.png style=width:14px;height:14px>, except now you use the nonagon shown at the right. <br /><br />Do you see how <img src=./images/nonagon_symbol.png style=width:14px;height:14px> works just like <img src=./images/hexagon_symbol.png style=width:14px;height:14px>? By labeling the points of the nonagon with the numbers from 0 to 8, we ensure that when we combine two numbers under <img src=./images/nonagon_symbol.png style=width:14px;height:14px>, we only produce numbers between 0 and 8. <br /><br />We'll give you one practice question with feedback to make sure you understand the new operation. After that, try to complete the remaining questions as accurately as possible.","orientation_history":[0],"rt":16298,"trial_type":"polygon-arrow-instructi ons","trial_index":0,"trial_index_global":45,"time_elapsed":536492,"internal_chunk_id":"0-0"},{"nsides":9,"question":"Practice: What is 5 <img src=./images/nonagon_symbol.png style=width:14px;height:14px> 5?","response_type":"free","response_choices":[],"correct_response":"1","response":"1","orientation_history":[[0],[3.634788310492493,3.634788310492493,3.634788310492493,3.634788310492493,3.634788310492493,3.634788310492493,3.634788310492493,3.634788310492493,3.634788310492493,3.634788310492493,3.490658503988659]],"response_history":["2","1"],"rt":10801,"trial_type":"polygon-arrow-question","trial_index":0,"trial_index_global":46,"time_elapsed":547296,"internal_chunk_id":"0-0.12-0"},{"nsides":9,"feedback":"Correct! 5 <img src=./images/nonagon_symbol.png style=width:14px;height:14px> 5 = 1 because 5 steps clockwise on the nonagon from 5 brings us to 1","orientation_history":[0],"rt":1669,"trial_type":"polygon-arrow-feedback","trial_index":0,"trial_index_global":47,"time_elapsed":548967,"internal_chunk_id":"0-0.12-0"},{"nsides":9,"question":"What is 3 <img src=./images/nonagon_symbol.png style=width:14px;height:14px> 3?","response_type":"free","response_choices":[],"correct_response":"6","response":"6","orientation_history":[[0]],"response_history":["6"],"rt":4847,"trial_type":"polygon-arrow-question","trial_index":0,"trial_index_global":48,"time_elapsed":553815,"internal_chunk_id":"0-0.12-0"},{"nsides":9,"question":"What is 7 <img src=./images/nonagon_symbol.png style=width:14px;height:14px> 4?","response_type":"free","response_choices":[],"correct_response":"2","response":"2","orientation_history":[[0]],"response_history":["2"],"rt":4143,"trial_type":"polygon-arrow-question","trial_index":0,"trial_index_global":49,"time_elapsed":557959,"internal_chunk_id":"0-0.12-0"},{"nsides":9,"question":"What is 1 <img src=./images/nonagon_symbol.png style=width:14px;height:14px> 8?","response_type":"free","response_choices":[],"correct_response":"0","response":"0","orientation_history":[[0]],"response_history":["0"],"rt":9608,"trial_type":"polygon-arrow-question","trial_index":0,"trial_index_global":50,"time_elapsed":567568,"internal_chunk_id":"0-0.12-0"},{"nsides":9,"question":"What is 5 <img src=./images/nonagon_symbol.png style=width:14px;height:14px> 4?","response_type":"free","response_choices":[],"correct_response":"0","response":"0","orientation_history":[[0]],"response_history":["0"],"rt":5933,"trial_type":"polygon-arrow-question","trial_index":0,"trial_index_global":51,"time_elapsed":573504,"internal_chunk_id":"0-0.12-0"},{"nsides":9,"question":"What is 6 <img src=./images/nonagon_symbol.png style=width:14px;height:14px> 6?","response_type":"free","response_choices":[],"correct_response":"3","response":"3","orientation_history":[[0]],"response_history":["3"],"rt":4576,"trial_type":"polygon-arrow-question","trial_index":0,"trial_index_global":52,"time_elapsed":578081,"internal_chunk_id":"0-0.12- 0"},{"nsides":9,"question":"What is 4 <img src=./images/nonagon_symbol.png style=width:14px;height:14px> 1? Please explain in words how you got your answer.","response_type":"free","response_choices":[],"correct_response":"","response":"5 - I moved one point clockwise","orientation_history":[[0]],"response_history":["5 - I ","5 - I moe","5 - I moved over one point","5 - I moved ove one point","5 - I moved ov one point","5 - I moved o one point","5 - I moved  one point","5 - I moved one point clockwise"],"rt":481283,"trial_type":"polygon-arrow-question","trial_index":0,"trial_index_global":53,"time_elapsed":1059366,"internal_chunk_id":"0-0.12-0"},{"nsides":9,"question":"What is 8 <img src=./images/nonagon_symbol.png style=width:14px;height:14px> 4? Please explain in words how you got your answer.","response_type":"free","response_choices":[],"correct_response":"","response":"3 - I moved 4 points clockwise","orientation_history":[[0]],"response_history":["3 - I  moved 4  points clockewi","3 - I moved 4 points clockew","3 - I moved 4 points clocke","3 - I moved 4 points clockwise"],"rt":13926,"trial_type":"polygon-arrow-question","trial_index":0,"trial_index_global":54,"time_elapsed":1073303,"internal_chunk_id":"0-0.12-0"},{"nsides":9,"question":"What is the identity under <img src=./images/nonagon_symbol.png style=width:14px;height:14px>? Please explain in words how you got your answer.","response_type":"free","response_choices":[],"correct_response":"0","response":"0 - The nonagon works the same as the hexagon, and 0 was identity in the hexagon.","orientation_history":[[0]],"response_history":["0 = ","0 =","0 - The nonagon works the same as the hexagon, and 0 was identity in the hexagon."],"rt":31118,"trial_type":"polygon-arrow-question","trial_index":0,"trial_index_global":55,"time_elapsed":1104422,"internal_chunk_id":"0-0.12-0"},{"nsides":9,"question":"What is the inverse of 5 under <img src=./images/nonagon_symbol.png style= width: 14px;height:14px>?","response_type":"free","response_choices":[],"correct_response":"4","response":"4","orientation_history":[[0]],"response_history":["7","4"],"rt":10854,"trial_type":"polygon-arrow-question","trial_index":0,"trial_index_global":56,"time_elapsed":1115279,"internal_chunk_id":"0-0.12-0"},{"nsides":9,"question":"What is the inverse of 2 under <img src=./images/nonagon_symbol.png style=width:14px;height:14px>?","response_type":"free","response_choices":[],"correct_response":"7","response":"7","orientation_history":[[0]],"response_history":["7"],"rt":7470,"trial_type":"polygon-arrow-question","trial_index":0,"trial_index_global":57,"time_elapsed":1122750,"internal_chunk_id":"0-0.12-0"},{"nsides":9,"question":"What is the inverse of 0 under <img src=./images/nonagon_symbol.png style=width:14px;height:14px>?","response_type":"free","response_choices":[],"correct_response":"0","response":"0","orientation_history":[[0]],"response_history":["0"],"rt":9303,"trial_type":"polygon-arrow-question","trial_index":0,"trial_index_global":58,"time_elapsed":1132054,"internal_chunk_id":"0-0.12-0"},{"nsides":9,"question":"What is the inverse of 3 under <img src=./images/nonagon_symbol.png style=width:14px;height:14px>? Please explain in words how you got your answer.","response_type":"free","response_choices":[],"correct_response":"","response":"6 - I moved clockwise I until I hit 0","orientation_history":[[0]],"response_history":["6 - I moved clockwise I uni","6 - I moved clockwise I until I hit 0"],"rt":17751,"trial_type":"polygon-arrow-question","trial_index":0,"trial_index_global":59,"time_elapsed":1149806,"internal_chunk_id":"0-0.12-0"},{"nsides":9,"question":"Is 2 a generator under <img src=./images/nonagon_symbol.png style=width:14px;height:14px>? Please explain in words how you got your answer.","response_type":"free","response_choices":[],"correct_response":"","response":"Yes. I moved clockwise incrementally by 2 an d noted  that 2 becomes 4 becomes 6 becomes 8 becomes 1 becomes 3 becomes 5 becomes 7 becomes 0.","orientation_history":[[0]],"response_history":["Yes. I miv","Yes. I mi","Yes. I moved clc","Yes. I moved clockwise in increments","Yes. I moved clockwise in","Yes. I moved clockwise ii","Yes. I moved clockwise incrementally by 2 and noted that 2 becomes 4 becomes 6 becomes 8 becomes 1 becomes 4","Yes. I moved clockwise incrementally by 2 and noted that 2 becomes 4 becomes 6 becomes 8 becomes 1 becomes 3 becomes 4","Yes. I moved clockwise incrementally by 2 and noted that 2 becomes 4 becomes 6 becomes 8 becomes 1 becomes 3 becomes 5 becomes 7 becomes -","Yes. I moved clockwise incrementally by 2 and noted that 2 becomes 4 becomes 6 becomes 8 becomes 1 becomes 3 becomes 5 becomes 7 becomes 0."],"rt":76311,"trial_type":"polygon-arrow-question","trial_index":0,"trial_index_global":60,"time_elapsed":1226118,"internal_chunk_id":"0-0.12-0"},{"nsides":9,"question":"Is 3 a generator under <img s rc=./i mages/nonagon_symbol.png style=width:14px;height:14px>? Please explain in words how you got your answer.","response_type":"free","response_choices":[],"correct_response":"","response":"No, I only got 3, 6, and 0 when moving clockwise by 3.","orientation_history":[[0]],"response_history":["No, I only got 3 ","No, I only got 3, 60","No, I only got 3, 6, and 0 when mv","No, I only got 3, 6, and 0 when moi","No, I only got 3, 6, and 0 when moving clockwise by th","No, I only got 3, 6, and 0 when moving clockwise by t","No, I only got 3, 6, and 0 when moving clockwise by 3."],"rt":29510,"trial_type":"polygon-arrow-question","trial_index":0,"trial_index_global":61,"time_elapsed":1255630,"internal_chunk_id":"0-0.12-0"},{"nsides":9,"question":"Is 5 a generator under <img src=./images/nonagon_symbol.png style=width:14px;height:14px>? Please explain in words how you got your answer.","response_type":"free","response_choices":[],"correct_response":"","response":"Yes. I mo ved cloc kwise in 5s and got 5, 1, 6, 2, 7, 3, 8, 4, and 0","orientation_history":[[0],[4.151225568096338,4.151225568096338,4.151225568096338,4.151225568096338,4.151225568096338,4.151225568096338,4.1887902047863905],[4.7252087908575895,4.7252087908575895,4.7252087908575895,4.7252087908575895,4.7252087908575895,4.7252087908575895,4.7252087908575895,4.886921905584122],[5.382910538365239,5.382910538365239,5.382910538365239,5.382910538365239,5.382910538365239,5.585053606381854],[0.07762150873739349,0.07762150873739349,0.07762150873739349,0.07762150873739349,0.07762150873739349,0.07762150873739349,0],[0.6215266244966218,0.6215266244966218,0.6215266244966218,0.6215266244966218,0.6215266244966218,0.6215266244966218,0.6981317007977318]],"response_history":["5","Yes. I moved clockwise by 5","Yes. I moved clockwise by ","Yes. I moved clockwise by","Yes. I moved clockwise b","Yes. I moved clockwise in 5s and got 5, 1, 6, 2, 7, 3, 8, 4, and 0"],"rt":79315,"trial_type":"polygon-arrow-question","trial_index":0,"trial_index_global":62,"time_elapsed":1334947,"internal_chunk_id":"0-0.12-0"},{"nsides":9,"question":"Is 6 a generator under <img src=./images/nonagon_symbol.png style=width:14px;height:14px>? Please explain in words how you got your answer.","response_type":"free","response_choices":[],"correct_response":"","response":"No. Same reasons for why 3 is not a generator.","orientation_history":[[0],[4.806843915779736,4.806843915779736,4.806843915779736,4.806843915779736,4.806843915779736,4.806843915779736,4.886921905584122],[5.36647170479905,5.36647170479905,5.36647170479905,5.36647170479905,5.36647170479905,5.36647170479905,5.36647170479905,5.585053606381854],[6.072091973956839,6.072091973956839,6.072091973956839,6.072091973956839,6.072091973956839,6.072091973956839,6.072091973956839,6.072091973956839,6.283185307179586],[0.4405303406165131,0.4405303406165131,0.4405303406165131,0.4405303406165131,0.4405303406165131,0.4405303406165131,0.4405303406165131,0.4405303406165131,0.6981317007977318],[1.4157995848709555,1.4157995848709555,1.4157995848709555,1.4157995848709555,1.4157995848709555,1.4157995848709555,1.4157995848709555,1.3962634015954636],[2.0744226229189926,2.0744226229189926,2.0744226229189926,2.0744226229189926,2.0744226229189926,2.0744226229189926,2.0744226229189926,2.0943951023931953],[2.7076392841958965,2.7076392841958965,2.7076392841958965,2.7076392841958965,2.7076392841958965,2.7076392841958965,2.792526803190927],[3.5564984112806677,3.5564984112806677,3.5564984112806677,3.5564984112806677,3.5564984112806677,3.5564984112806677,3.490658503988659],[4.063393421388189,4.063393421388189,4.063393421388189,4.063393421388189,4.063393421388189,4.063393421388189,4.063393421388189,4.1887902047863905],[4.71238898038469,4.71238898038469,4.71238898038469,4.71238898038469,4.71238898038469,4.71238898038469,4.886921905584122],[5.2615418830637,5.2615418830637,5.2615418830637,5.2615418830637,5.2615418830637,5.2615418830637,5.585053606381854],[6.116215138154657,6.116215138154657,6.116215138154657,6.116215138154657,6.116215138154657,6.116215138154657,6.283185307179586]],"response_history":["No. Same reasoning as ","No. Same reasoning as","No. Same reasoning a","No. Same reasoning ","No. Same reasoning","No. Same reasonin","No. Same reasoni","No. Same reason ","No. Same reasons for whyt ","No. Same reasons for whyt","No. Same reasons for why 3 is not a generator. Also noting that 6 and 3 are ","No. Same reasons for why 3 is not a generator. Also noting that 6 and 3 are","No. Same reasons for why 3 is not a generator. Also noting that 6","No. Same reasons for why 3 is not a generator. Also noting that ","No. Same reasons for why 3 is not a generator. Also noting that","No. Same reasons for why 3 is not a generator. A","No. Same reasons for why 3 is not a generator. ","No. Same reasons for why 3 is not a generator."],"rt":47001,"trial_type":"polygon-arrow-question","trial_index":0,"trial_index_global":63,"time_elapsed":1381950,"internal_chunk_id":"0-0.12-0"},{"nsides":"n","instructions":"Now we'd like to ask you some questions about <img src=./images/ngon_symbol.png style=width:14px;height:14px>, where n could be any positive counting number. For example, n could be 3, and the polygon a triangle, or n could be any other counting number you can think of. If you need to write the operation, you can use (n), and your answers can include n to stand in for the arbitrary value if necessary. (You can use the polygon at the right to think, but it doesn't necessarily correspond to the real polygon, which is why we've left most of it dashed.)","orientation_history":[0],"rt":40614,"trial_type":"polygon-arrow-instructions","trial_index":0,"trial_index_global":64,"time_elapsed":1422567,"internal_chunk_id":"0-0"},{"nsides":"n","question":"What is the formula for the inverse of 1 under <img src=./images/ngon_symbol.png style=width:14px;height:14px>?","response_type":"free","response_choices":[],"correct_response":"n-1","response":"1 (n) n-1","orientation_history":[[0]],"response_history":["1 (n) n = 0;","1 (n) n = 0","1 (n) n-1 = 0","1 (n) n-1 = ","1 (n) n-1 =","1 (n) n-1 ","1 (n) n-1"],"rt":79350,"trial_type":"polygon-arrow-question","trial_index":0,"trial_index_global":65,"time_elapsed":1501918,"internal_chunk_id":"0-0.14-0"},{"nsides":"n","question":"What is the formula for the inverse of an element x under <img src=./images/ngon_symbol.png style=width:14px;height:14px>? Please explain in words why your answer is correct.","response_type":"free","response_choices":[],"correct_response":"n-x","response":"x (n) n-x = 0","orientation_history":[[0]],"response_history":["x (n) n-x = 0"],"rt":16701,"trial_type":"polygon-arrow-question","trial_index":0,"trial_index_global":66,"time_elapsed":1518622,"internal_chunk_id":"0-0.14-0"},{"nsides":"n","question":"Is there a pattern to which elements are generators? How can you know if an element x is a generator under <img src=./images /ngon_sy mbol.png style=width:14px;height:14px> without seeing whether it can make all the elements?.","response_type":"free","response_choices":[],"correct_response":"","response":"For the previous question, I tried to use shift+enter to add a newline, and it advanced. To answer the earlier question, I think x (n) n-x will work because it seems to follow the pattern for finding identity with the nonagon and hexagon. To answer the current question, I seemed to notice that if the number we are trying to determine is a generator is a factor of n or a product of a factor of n then it is not a generator. That is why 2, 3, and 4 were not generators in the hexagon and why 3 and 6 were not generators in the nonagon.","orientation_history":[[0]],"response_history":["if n","Fo ","For the previous w","For the previous question, I tried to use shift+enter to add a newline, and it advanced. To answer the earlier question, I think x (n) n-x will work because it seems to follow the patter fo r ","For  the previous question, I tried to use shift+enter to add a newline, and it advanced. To answer the earlier question, I think x (n) n-x will work because it seems to follow the patter for","For the previous question, I tried to use shift+enter to add a newline, and it advanced. To answer the earlier question, I think x (n) n-x will work because it seems to follow the patter fo","For the previous question, I tried to use shift+enter to add a newline, and it advanced. To answer the earlier question, I think x (n) n-x will work because it seems to follow the patter f","For the previous question, I tried to use shift+enter to add a newline, and it advanced. To answer the earlier question, I think x (n) n-x will work because it seems to follow the patter ","For the previous question, I tried to use shift+enter to add a newline, and it advanced. To answer the earlier question, I think x (n) n-x will work because it seems to follow the pattern for finding identity with the nonaga","For the  previous question, I tried to use shift+enter to add a newline, and it advanced. To answer the earlier question, I think x (n) n-x will work because it seems to follow the pattern for finding identity with the nonagon and hexagon. To as","For the previous question, I tried to use shift+enter to add a newline, and it advanced. To answer the earlier question, I think x (n) n-x will work because it seems to follow the pattern for finding identity with the nonagon and hexagon. To answer the current question, I seemed to noticed t","For the previous question, I tried to use shift+enter to add a newline, and it advanced. To answer the earlier question, I think x (n) n-x will work because it seems to follow the pattern for finding identity with the nonagon and hexagon. To answer the current question, I seemed to noticed ","For the previous question, I tried to use shift+enter to add a newline, and it advanced. To answer the earlier question, I think x (n) n-x will work because it  seems to  follow the pattern for finding identity with the nonagon and hexagon. To answer the current question, I seemed to noticed","For the previous question, I tried to use shift+enter to add a newline, and it advanced. To answer the earlier question, I think x (n) n-x will work because it seems to follow the pattern for finding identity with the nonagon and hexagon. To answer the current question, I seemed to notice that if the number we are trying to use as a generator","For the previous question, I tried to use shift+enter to add a newline, and it advanced. To answer the earlier question, I think x (n) n-x will work because it seems to follow the pattern for finding identity with the nonagon and hexagon. To answer the current question, I seemed to notice that if the number we are trying to u a generator","For the previous question, I tried to use shift+enter to add a newline, and it advanced. To answer the earlier question, I think x (n) n-x will work because it seems to follow  the pat tern for finding identity with the nonagon and hexagon. To answer the current question, I seemed to notice that if the number we are trying to  a generator","For the previous question, I tried to use shift+enter to add a newline, and it advanced. To answer the earlier question, I think x (n) n-x will work because it seems to follow the pattern for finding identity with the nonagon and hexagon. To answer the current question, I seemed to notice that if the number we are trying to d a generator","For the previous question, I tried to use shift+enter to add a newline, and it advanced. To answer the earlier question, I think x (n) n-x will work because it seems to follow the pattern for finding identity with the nonagon and hexagon. To answer the current question, I seemed to notice that if the number we are trying to det a generator","For the previous question, I tried to use shift+enter to add a newline, and it advanced. To answer the earlier question, I think x (n) n-x will w ork beca use it seems to follow the pattern for finding identity with the nonagon and hexagon. To answer the current question, I seemed to notice that if the number we are trying to deter a generator","For the previous question, I tried to use shift+enter to add a newline, and it advanced. To answer the earlier question, I think x (n) n-x will work because it seems to follow the pattern for finding identity with the nonagon and hexagon. To answer the current question, I seemed to notice that if the number we are trying to determ a generator","For the previous question, I tried to use shift+enter to add a newline, and it advanced. To answer the earlier question, I think x (n) n-x will work because it seems to follow the pattern for finding identity with the nonagon and hexagon. To answer the current question, I seemed to notice that if the number we are trying to determin a generator","For the previous question, I tried to use shift+enter to add a newline, and it advanced. To answer t he earli er question, I think x (n) n-x will work because it seems to follow the pattern for finding identity with the nonagon and hexagon. To answer the current question, I seemed to notice that if the number we are trying to determine a generator","For the previous question, I tried to use shift+enter to add a newline, and it advanced. To answer the earlier question, I think x (n) n-x will work because it seems to follow the pattern for finding identity with the nonagon and hexagon. To answer the current question, I seemed to notice that if the number we are trying to determine  a generator","For the previous question, I tried to use shift+enter to add a newline, and it advanced. To answer the earlier question, I think x (n) n-x will work because it seems to follow the pattern for finding identity with the nonagon and hexagon. To answer the current question, I seemed to notice that if the number we are trying to determine is a generatoris ","For the previous question, I tried to us e shift+ enter to add a newline, and it advanced. To answer the earlier question, I think x (n) n-x will work because it seems to follow the pattern for finding identity with the nonagon and hexagon. To answer the current question, I seemed to notice that if the number we are trying to determine is a generatoris","For the previous question, I tried to use shift+enter to add a newline, and it advanced. To answer the earlier question, I think x (n) n-x will work because it seems to follow the pattern for finding identity with the nonagon and hexagon. To answer the current question, I seemed to notice that if the number we are trying to determine is a generatori","For the previous question, I tried to use shift+enter to add a newline, and it advanced. To answer the earlier question, I think x (n) n-x will work because it seems to follow the pattern for finding identity with the nonagon and hexagon. To answer the current question, I seemed to notice that if the number we are trying to de termine  is a generator is a factor of n or a product of a factor of n then it is not a generator. That is why 2, 3, 6","For the previous question, I tried to use shift+enter to add a newline, and it advanced. To answer the earlier question, I think x (n) n-x will work because it seems to follow the pattern for finding identity with the nonagon and hexagon. To answer the current question, I seemed to notice that if the number we are trying to determine is a generator is a factor of n or a product of a factor of n then it is not a generator. That is why 2, 3, 4, and 6 whe","For the previous question, I tried to use shift+enter to add a newline, and it advanced. To answer the earlier question, I think x (n) n-x will work because it seems to follow the pattern for finding identity with the nonagon and hexagon. To answer the current question, I seemed to notice that if the number we are trying to determine is a generator is a factor of n or a product of a factor of n then it is not a gen erator.  That is why 2, 3, 4, and 6 wh","For the previous question, I tried to use shift+enter to add a newline, and it advanced. To answer the earlier question, I think x (n) n-x will work because it seems to follow the pattern for finding identity with the nonagon and hexagon. To answer the current question, I seemed to notice that if the number we are trying to determine is a generator is a factor of n or a product of a factor of n then it is not a generator. That is why 2, 3, 4, and 6 were not ","For the previous question, I tried to use shift+enter to add a newline, and it advanced. To answer the earlier question, I think x (n) n-x will work because it seems to follow the pattern for finding identity with the nonagon and hexagon. To answer the current question, I seemed to notice that if the number we are trying to determine is a generator is a factor of n or a product of a factor of n then it is not a generator. That is why 2, 3, 4, and 6 were not","For the previous question, I  tried t o use shift+enter to add a newline, and it advanced. To answer the earlier question, I think x (n) n-x will work because it seems to follow the pattern for finding identity with the nonagon and hexagon. To answer the current question, I seemed to notice that if the number we are trying to determine is a generator is a factor of n or a product of a factor of n then it is not a generator. That is why 2, 3, 4, and 6 were no","For the previous question, I tried to use shift+enter to add a newline, and it advanced. To answer the earlier question, I think x (n) n-x will work because it seems to follow the pattern for finding identity with the nonagon and hexagon. To answer the current question, I seemed to notice that if the number we are trying to determine is a generator is a factor of n or a product of a factor of n then it is not a generator. That is why 2, 3, 4, and 6 were n","For the previous question, I tried to use shift+enter to add a newline, and it advanced. To answer t he earli er question, I think x (n) n-x will work because it seems to follow the pattern for finding identity with the nonagon and hexagon. To answer the current question, I seemed to notice that if the number we are trying to determine is a generator is a factor of n or a product of a factor of n then it is not a generator. That is why 2, 3, 4, and 6 were ","For the previous question, I tried to use shift+enter to add a newline, and it advanced. To answer the earlier question, I think x (n) n-x will work because it seems to follow the pattern for finding identity with the nonagon and hexagon. To answer the current question, I seemed to notice that if the number we are trying to determine is a generator is a factor of n or a product of a factor of n then it is not a generator. That is why 2, 3, 4, and 6 were","For the previous question, I tried to use shift+enter to add a newline, and it advanced. To answer the earlier question, I think x (n) n-x will work because it seems to follow  the patt ern for finding identity with the nonagon and hexagon. To answer the current question, I seemed to notice that if the number we are trying to determine is a generator is a factor of n or a product of a factor of n then it is not a generator. That is why 2, 3, 4, and 6 wer","For the previous question, I tried to use shift+enter to add a newline, and it advanced. To answer the earlier question, I think x (n) n-x will work because it seems to follow the pattern for finding identity with the nonagon and hexagon. To answer the current question, I seemed to notice that if the number we are trying to determine is a generator is a factor of n or a product of a factor of n then it is not a generator. That is why 2, 3, 4, and 6 we","For the previous question, I tried to use shift+enter to add a newline, and it advanced. To answer the earlier question, I think x (n) n-x will work because it seems to follow the pattern for finding identity with the nonagon and hexagon. To answer the cur rent que stion, I seemed to notice that if the number we are trying to determine is a generator is a factor of n or a product of a factor of n then it is not a generator. That is why 2, 3, 4, and 6 wa","For the previous question, I tried to use shift+enter to add a newline, and it advanced. To answer the earlier question, I think x (n) n-x will work because it seems to follow the pattern for finding identity with the nonagon and hexagon. To answer the current question, I seemed to notice that if the number we are trying to determine is a generator is a factor of n or a product of a factor of n then it is not a generator. That is why 2, 3, 4, and 6 w","For the previous question, I tried to use shift+enter to add a newline, and it advanced. To answer the earlier question, I think x (n) n-x will work because it seems to follow the pattern for finding identity with the nonagon and hexagon. To answer the current question, I seemed to notice that if the number we are trying to determine is  a gener ator is a factor of n or a product of a factor of n then it is not a generator. That is why 2, 3, 4, and 6 are not generators ","For the previous question, I tried to use shift+enter to add a newline, and it advanced. To answer the earlier question, I think x (n) n-x will work because it seems to follow the pattern for finding identity with the nonagon and hexagon. To answer the current question, I seemed to notice that if the number we are trying to determine is a generator is a factor of n or a product of a factor of n then it is not a generator. That is why 2, 3, 4, ","For the previous question, I tried to use shift+enter to add a newline, and it advanced. To answer the earlier question, I think x (n) n-x will work because it seems to follow the pattern for finding identity with the nonagon and hexagon. To answer the current question, I seemed to notice that if the number we are trying to determine is a generator is a factor of n or a product of a factor of n then it is n ot a gen erator. That is why 2, 3, 4,","For the previous question, I tried to use shift+enter to add a newline, and it advanced. To answer the earlier question, I think x (n) n-x will work because it seems to follow the pattern for finding identity with the nonagon and hexagon. To answer the current question, I seemed to notice that if the number we are trying to determine is a generator is a factor of n or a product of a factor of n then it is not a generator. That is why 2, 3, 4","For the previous question, I tried to use shift+enter to add a newline, and it advanced. To answer the earlier question, I think x (n) n-x will work because it seems to follow the pattern for finding identity with the nonagon and hexagon. To answer the current question, I seemed to notice that if the number we are trying to determine is a generator is a factor of n or a product of a factor of n then it is not a generator. That is why 2, 3,  4","For the previous question, I tried to use shift+enter to add  a newlin e, and it advanced. To answer the earlier question, I think x (n) n-x will work because it seems to follow the pattern for finding identity with the nonagon and hexagon. To answer the current question, I seemed to notice that if the number we are trying to determine is a generator is a factor of n or a product of a factor of n then it is not a generator. That is why 2, 3, a 4","For the previous question, I tried to use shift+enter to add a newline, and it advanced. To answer the earlier question, I think x (n) n-x will work because it seems to follow the pattern for finding identity with the nonagon and hexagon. To answer the current question, I seemed to notice that if the number we are trying to determine is a generator is a factor of n or a product of a factor of n then it is not a generator. That is why 2, 3, and 4 were not genet","For the previous question, I tried to use shift+enter to add a newline, and it advanced. To answer the earlier question, I think x (n) n-x wi ll work  because it seems to follow the pattern for finding identity with the nonagon and hexagon. To answer the current question, I seemed to notice that if the number we are trying to determine is a generator is a factor of n or a product of a factor of n then it is not a generator. That is why 2, 3, and 4 were not generators in the hexagon and why 3 and 5","For the previous question, I tried to use shift+enter to add a newline, and it advanced. To answer the earlier question, I think x (n) n-x will work because it seems to follow the pattern for finding identity with the nonagon and hexagon. To answer the current question, I seemed to notice that if the number we are trying to determine is a generator is a factor of n or a product of a factor of n then it is not a generator. That is why 2, 3, and 4 were not generators in the hexagon and why 3 and 4","For the previous question, I tried to use shift+enter to add a newline, and it advanced. To answer the earlier question, I think x ( n) n-x w ill work because it seems to follow the pattern for finding identity with the nonagon and hexagon. To answer the current question, I seemed to notice that if the number we are trying to determine is a generator is a factor of n or a product of a factor of n then it is not a generator. That is why 2, 3, and 4 were not generators in the hexagon and why 3 and 6 were not generators in the nonagon."],"rt":208711,"trial_type":"polygon-arrow-question","trial_index":0,"trial_index_global":67,"time_elapsed":1727335,"internal_chunk_id":"0-0.14-0"},{"nsides":"n","question":"True or false: If x is an odd number, it must be a generator under <img src=./images/ngon_symbol.png style=width:14px;height:14px>.","response_type":"multi","response_choices":["True","False"],"correct_response":"False","response":"False","orientation_history":[[0]],"response_history":["False"],"rt":20546,"trial_type":"polygon-arrow-question","trial_index":0,"trial_index_global":68,"time_elapsed":1747891,"internal_chunk_id":"0-0.14-0"},{"nsides":"n","question":"True or false: If x is an even number, it must not be a generator under <img src=./images/ngon_symbol.png style=width:14px;height:14px>.","response_type":"multi","response_choices":["True","False"],"correct_response":"False","response":"False","orientation_history":[[0]],"response_history":["False"],"rt":2764,"trial_type":"polygon-arrow-question","trial_index":0,"trial_index_global":69,"time_elapsed":1750657,"internal_chunk_id":"0-0.14-0"},{"nsides":"n","question":"True or false: If x is not a generator under <img src=./images/ngon_symbol.png style=width:14px;height:14px>, x must be a divisor of n, that is, x must divide n evenly, with no remainder.","response_type":"multi","response_choices":["True","False"],"correct_response":"False","response":"False","orientation_history":[[0]],"response_history":["False"],"rt":26338,"trial_type":"polygon-arrow-question","trial_index":0,"trial_index_global":70,"time_elapsed":1776996,"internal_chunk_id":"0-0.14-0"},{"nsides":"n","question":"True or false: If x is not a generator under <img src=./images/ngon_symbol.png style=width:14px;height:14px>, x must be a multiple of a divisor of n. Please explain in words why your answer is correct.","response_type":"free","response_choices":[],"correct_response":"True","response":"True, this was my explanation for knowing if a number is a generator, only I used the term product and not multiple. 2, 3, and 4 are multiples of a divisor of 6, and 3 and 6 are multiples of a divisor of 9. If n were 15 then 3, 5, 6, 9, 10, and 12 would not be generators.","orientation_history":[[0]],"response_history":["Yes, this was my ","es, this was my ","s, this was my ",", this was my ","T, this was my ","Tru, this was my ","True, this was my explanation for knowing if a number is a generator. ","True, this was my explanation for knowing if a number is a generator.","True, this was my explanation for knowing if a number is  a genera tor, only I used the term product and not multiple. 2, 3, and 5","True, this was my explanation for knowing if a number is a generator, only I used the term product and not multiple. 2, 3, and 4 were mut","True, this was my explanation for knowing if a number is a generator, only I used the term product and not multiple. 2, 3, and 4 were multiples of a divisor of 5","True, this was my explanation for knowing if a number is a generator, only I used the term product and not multiple. 2, 3, and 4 were multiples of a divisor of 6, and 3 and 6 ","True, this was my explanation for knowing if a number is a generator, only I used the term product and not multiple. 2, 3, and 4 ere multiples of a divisor of 6, and 3 and 6 ","True, this was my explanation for knowing if a number is a generator, only I used the term product and not multiple. 2, 3, and 4 re multiples of a divisor of 6, and 3 and 6 ","True, this was my explanation for knowing if a number is a generator, only I used the te rm produ ct and not multiple. 2, 3, and 4 are multiples of a divisor of 6, and 3 and 6 are multiples of a divisor of 9. If it were ","True, this was my explanation for knowing if a number is a generator, only I used the term product and not multiple. 2, 3, and 4 are multiples of a divisor of 6, and 3 and 6 are multiples of a divisor of 9. If n were 15 then 3, 5, 6, 9, 10, 12","True, this was my explanation for knowing if a number is a generator, only I used the term product and not multiple. 2, 3, and 4 are multiples of a divisor of 6, and 3 and 6 are multiples of a divisor of 9. If n were 15 then 3, 5, 6, 9, 10,  12","True, this was my explanation for knowing if a number is a generator, only I used the term product and not multiple. 2, 3, and 4 are multiples of a divisor of 6, and 3 and 6 are multiples of a divisor of 9. If n were 15 then 3, 5, 6, 9, 10, a 12","True, this was my explanation for knowing if a number is a generator, only I used the term product and not multiple. 2, 3,  and 4 ar e multiples of a divisor of 6, and 3 and 6 are multiples of a divisor of 9. If n were 15 then 3, 5, 6, 9, 10, and 12 would not be generators."],"rt":154747,"trial_type":"polygon-arrow-question","trial_index":0,"trial_index_global":71,"time_elapsed":1931744,"internal_chunk_id":"0-0.14-0"},{"nsides":"n","question":"If an element x is a generator under <img src=./images/ngon_symbol.png style=width:14px;height:14px>, is its inverse a generator under <img src=./images/ngon_symbol.png style=width:14px;height:14px> always, sometimes, or never?","response_type":"multi","response_choices":["Always","Sometimes","Never"],"correct_response":"Always","response":"Always","orientation_history":[[0]],"response_history":["Always"],"rt":16421,"trial_type":"polygon-arrow-question","trial_index":0,"trial_index_global":72,"time_elapsed":1948168,"internal_chunk_id":"0-0.14-0"},{"nsides":"n","question":"If an element x is a generator under <img src=./images/ngon_symbol.png styl e=widt h:14px;height:14px>, is x <img src=./images/ngon_symbol.png style=width:14px;height:14px> x a generator under <img src=./images/ngon_symbol.png style=width:14px;height:14px> always, sometimes, or never? Please explain in words why your answer is correct.","response_type":"free","response_choices":[],"correct_response":"Sometimes","response":"It could be sometimes. If n=3, then 1 (3) 1 would yield 2 and 1(3)1(3)1 would yield 0. 2(3)2 would yield 1 and 2(3)2(3)2 would yield 0. However, in the case of n=6, 1(6)1, or 2, and 5(6)5, or 4, are not generators.","orientation_history":[[0]],"response_history":["It could be sometimes. If n were 3, then 1 would ","It could be sometimes. If n were 3, then 1 would","It could be sometimes. If n were 3, then 1 woul","It could be sometimes. If n were 3, then 1 wou","It could be sometimes. If n were 3, then 1 wo","It could be sometimes. If n were 3, then 1 w","It could be sometimes. If n were 3, then 1 (3) 1 would you","It c ould be  sometimes. If n were 3, then 1 (3) 1 would yo","It could be sometimes. If n were 3, then 1 (3) 1 would yield 2 and (","It could be sometimes. If n were 3, then 1 (3) 1 would yield 2 and 1(3)1()3","It could be sometimes. If n were 3, then 1 (3) 1 would yield 2 and 1(3)1()","It could be sometimes. If n were 3, then 1 (3) 1 would yield 2 and 1(3)1(3(","It could be sometimes. If n were 3, then 1 (3) 1 would yield 2 and 1(3)1(3)(1","It could be sometimes. If n were 3, then 1 (3) 1 would yield 2 and 1(3)1(3)(","It could be sometimes. If n were 3, then 1 (3) 1 would yield 2 and 1(3)1(3)1 would yield 0. 2(3)2 would yield 1 and then ","It could be sometimes. If n were 3, then 1 (3) 1 would yield 2 and 1(3)1(3)1 would yield 0. 2(3)2 would yield 1 and then","It could be sometimes. If n were 3, then 1 (3) 1 would yield 2 and 1(3)1(3)1 would yield 0. 2(3)2 would yield 1 and the","It could be sometimes. If n were 3, then 1 (3) 1 would yield 2 and 1(3)1(3)1 would yield 0. 2(3)2 would yield  1 and t h","It could be sometimes. If n were 3, then 1 (3) 1 would yield 2 and 1(3)1(3)1 would yield 0. 2(3)2 would yield 1 and t","It could be sometimes. If n were 3, then 1 (3) 1 would yield 2 and 1(3)1(3)1 would yield 0. 2(3)2 would yield 1 and 2(3)(","It could be sometimes. If n were 3, then 1 (3) 1 would yield 2 and 1(3)1(3)1 would yield 0. 2(3)2 would yield 1 and 2(3)2(3)2 would yield 0. However, in the case of n = 0","It could be sometimes. If n were 3, then 1 (3) 1 would yield 2 and 1(3)1(3)1 would yield 0. 2(3)2 would yield 1 and 2(3)2(3)2 would yield 0. However, in the case of n = 6","It could be sometimes. If n ere 3, then 1 (3) 1 would yield 2 and 1(3)1(3)1 would yield 0. 2(3)2 would yield 1 and 2(3)2(3)2 would yield 0. However, in the case of n = 6","It could be sometimes. If n re 3, then 1 (3) 1 would yield 2 and 1(3)1(3)1 would yield 0. 2(3)2 would yield 1 and 2(3)2(3)2 would yield 0. However, in the case of n = 6","It could be sometimes. If n e 3, then 1 (3) 1 would  yield 2  and 1(3)1(3)1 would yield 0. 2(3)2 would yield 1 and 2(3)2(3)2 would yield 0. However, in the case of n = 6","It could be sometimes. If n  3, then 1 (3) 1 would yield 2 and 1(3)1(3)1 would yield 0. 2(3)2 would yield 1 and 2(3)2(3)2 would yield 0. However, in the case of n = 6","It could be sometimes. If n 3, then 1 (3) 1 would yield 2 and 1(3)1(3)1 would yield 0. 2(3)2 would yield 1 and 2(3)2(3)2 would yield 0. However, in the case of n = 6","It could be sometimes. If n3, then 1 (3) 1 would yield 2 and 1(3)1(3)1 would yield 0. 2(3)2 would yield 1 and 2(3)2(3)2 would yield 0. However, in the case of n = 6","It could be sometimes. If n=3, then 1 (3) 1 would yield 2 and 1(3)1(3)1 would yield 0. 2(3)2 would yield 1 and 2(3)2(3)2 would yield 0. However, in the case of n = 6","It could be sometimes. If n=3, then 1 (3) 1 would yield 2 and 1(3)1(3)1 would yield 0. 2(3)2 would yield 1 and 2(3)2(3)2 would yield 0. However, in the case of n =6","It could be sometimes. If n=3, then 1 (3 ) 1 woul d yield 2 and 1(3)1(3)1 would yield 0. 2(3)2 would yield 1 and 2(3)2(3)2 would yield 0. However, in the case of n=6 ","It could be sometimes. If n=3, then 1 (3) 1 would yield 2 and 1(3)1(3)1 would yield 0. 2(3)2 would yield 1 and 2(3)2(3)2 would yield 0. However, in the case of n=6, 1)","It could be sometimes. If n=3, then 1 (3) 1 would yield 2 and 1(3)1(3)1 would yield 0. 2(3)2 would yield 1 and 2(3)2(3)2 would yield 0. However, in the case of n=6, 1(6_","It could be sometimes. If n=3, then 1 (3) 1 would yield 2 and 1(3)1(3)1 would yield 0. 2(3)2 would yield 1 and 2(3)2(3)2 would yield 0. However, in the case of n=6, 1(6)1 y","It could be sometimes. If n=3, then 1 (3) 1 would yield 2 and 1(3)1(3)1 would yield 0. 2(3)2 would yield 1 and 2(3)2(3)2 would yield 0. However, in the case of n=6, 1(6)1 yieli","It could be sometimes. If n=3, then 1 (3) 1 would yield 2 and 1(3)1(3)1 would yield 0. 2(3)2 would yield 1 and 2(3)2(3)2 would yield 0. However, in the case of n=6, 1(6)1 yie l","It c ould be sometimes. If n=3, then 1 (3) 1 would yield 2 and 1(3)1(3)1 would yield 0. 2(3)2 would yield 1 and 2(3)2(3)2 would yield 0. However, in the case of n=6, 1(6)1 yie","It could be sometimes. If n=3, then 1 (3) 1 would yield 2 and 1(3)1(3)1 would yield 0. 2(3)2 would yield 1 and 2(3)2(3)2 would yield 0. However, in the case of n=6, 1(6)1 yi","It could be sometimes. If n=3, then 1 (3) 1 would yield 2 and 1(3)1(3)1 would yield 0. 2(3)2 would yield 1 and 2(3)2(3)2 would yield 0. However, in the case of n=6, 1(6)1 y","It could be sometimes. If n=3, then 1 (3) 1 would yield 2 and 1(3)1(3)1 would yield 0. 2(3)2 would yield 1 and 2(3)2(3)2 would yield 0. However, in the case of n=6, 1(6)1 = 2 ","It could be sometimes. If n=3, then 1 (3) 1 would yield 2 and 1(3)1(3)1 would yield 0. 2(3)2 would yield 1 and 2(3)2(3)2 would yield 0. However, in the case of n=6, 1(6) ","It could be sometimes. If n=3, then 1 (3) 1 would yield 2 and 1(3)1(3)1 would yield 0. 2(3)2 would yield 1 and 2(3 )2(3)2 w ould yield 0. However, in the case of n=6, 1(6)1, or 2, is not a generator. ","It could be sometimes. If n=3, then 1 (3) 1 would yield 2 and 1(3)1(3)1 would yield 0. 2(3)2 would yield 1 and 2(3)2(3)2 would yield 0. However, in the case of n=6, 1(6)1, or 2, is not a generator.","It could be sometimes. If n=3, then 1 (3) 1 would yield 2 and 1(3)1(3)1 would yield 0. 2(3)2 would yield 1 and 2(3)2(3)2 would yield 0. However, in the case of n=6, 1(6)1, or 2, is not a generator","It could be sometimes. If n=3, then 1 (3) 1 would yield 2 and 1(3)1(3)1 would yield 0. 2(3)2 would yield 1 and 2(3)2(3)2 would yield 0. However, in the case of n=6, 1(6)1, or 2,  is not a generator","It could be sometimes. If n=3, then 1 (3) 1 would yield 2 and 1(3)1(3)1 would yield 0. 2(3)2 would yield 1 and 2(3)2(3)2 would yield 0. However, in the case of n=6, 1(6)1, or 2, an is not a generator","It could be sometimes. If n=3, then 1 (3) 1 would yield 2 and 1(3)1(3)1 would yield 0. 2(3)2 would yield 1 an d 2(3)2( 3)2 would yield 0. However, in the case of n=6, 1(6)1, or 2, and  is not a generator","It could be sometimes. If n=3, then 1 (3) 1 would yield 2 and 1(3)1(3)1 would yield 0. 2(3)2 would yield 1 and 2(3)2(3)2 would yield 0. However, in the case of n=6, 1(6)1, or 2, and 5 is not a generator","It could be sometimes. If n=3, then 1 (3) 1 would yield 2 and 1(3)1(3)1 would yield 0. 2(3)2 would yield 1 and 2(3)2(3)2 would yield 0. However, in the case of n=6, 1(6)1, or 2, and 5( is not a generator","It could be sometimes. If n=3, then 1 (3) 1 would yield 2 and 1(3)1(3)1 would yield 0. 2(3)2 would yield 1 and 2(3)2(3)2 would yield 0. However, in the case of n=6, 1(6)1, or 2, and 5(6 is not a generator","It could be sometimes. If n=3, then 1 (3) 1 would yield 2 and 1(3)1(3)1 would yield 0. 2(3)2 would yield 1 and 2(3)2(3)2 would yield 0. However, in the case of n=6, 1(6)1, or 2, and 5(6) is not a generator","It could be sometimes. If n=3, then 1 (3) 1 would yield 2 and 1(3)1(3)1 woul d yield  0. 2(3)2 would yield 1 and 2(3)2(3)2 would yield 0. However, in the case of n=6, 1(6)1, or 2, and 5(6)5 is not a generator","It could be sometimes. If n=3, then 1 (3) 1 would yield 2 and 1(3)1(3)1 would yield 0. 2(3)2 would yield 1 and 2(3)2(3)2 would yield 0. However, in the case of n=6, 1(6)1, or 2, and 5(6)5,  is not a generator","It could be sometimes. If n=3, then 1 (3) 1 would yield 2 and 1(3)1(3)1 would yield 0. 2(3)2 would yield 1 and 2(3)2(3)2 would yield 0. However, in the case of n=6, 1(6)1, or 2, and 5(6)5, o is not a generator","It could be sometimes. If n=3, then 1 (3) 1 would yield 2 and 1(3)1(3)1 would yield 0. 2(3)2 would yield 1 and 2(3)2(3)2 would yield 0. However, in the case of n=6, 1(6)1, or 2, and 5(6)5, or is not a generator","It could be sometimes. If n=3, then 1 (3) 1 would yield 2 and 1(3)1(3)1 would yield 0. 2(3)2 would yield 1 and 2(3)2(3)2 would yield 0. However, in the case of n=6, 1(6)1, or 2, and 5(6)5, or  is not a generator","It could be so metimes.  If n=3, then 1 (3) 1 would yield 2 and 1(3)1(3)1 would yield 0. 2(3)2 would yield 1 and 2(3)2(3)2 would yield 0. However, in the case of n=6, 1(6)1, or 2, and 5(6)5, or 3 is not a generator","It could be sometimes. If n=3, then 1 (3) 1 would yield 2 and 1(3)1(3)1 would yield 0. 2(3)2 would yield 1 and 2(3)2(3)2 would yield 0. However, in the case of n=6, 1(6)1, or 2, and 5(6)5, or  is not a generator","It could be sometimes. If n=3, then 1 (3) 1 would yield 2 and 1(3)1(3)1 would yield 0. 2(3)2 would yield 1 and 2(3)2(3)2 would yield 0. However, in the case of n=6, 1(6)1, or 2, and 5(6)5, or 4 is not a generator","It could be sometimes. If n=3, then 1 (3) 1 would yield 2 and 1(3)1(3)1 would yield 0. 2(3)2 would yield 1 and 2(3)2(3)2 would yield 0. However, in the case of n=6, 1(6)1, or 2, and 5(6)5, or 4, is not a generator","It could be sometimes. If n=3, then 1 (3) 1 would yield 2 and 1(3)1(3)1 would yield 0. 2(3)2 would yield 1 and 2(3)2(3)2 would yield 0. However, in the  case of  n=6, 1(6)1, or 2, and 5(6)5, or 4, i not a generator","It could be sometimes. If n=3, then 1 (3) 1 would yield 2 and 1(3)1(3)1 would yield 0. 2(3)2 would yield 1 and 2(3)2(3)2 would yield 0. However, in the case of n=6, 1(6)1, or 2, and 5(6)5, or 4, a not a generator","It could be sometimes. If n=3, then 1 (3) 1 would yield 2 and 1(3)1(3)1 would yield 0. 2(3)2 would yield 1 and 2(3)2(3)2 would yield 0. However, in the case of n=6, 1(6)1, or 2, and 5(6)5, or 4, ar not a generator","It could be sometimes. If n=3, then 1 (3) 1 would yield 2 and 1(3)1(3)1 would yield 0. 2(3)2 would yield 1 and 2(3)2(3)2 would yield 0. However, in the case of n=6, 1(6)1, or 2, and 5(6)5, or 4, are not a generator","It could be sometimes. If n=3, then 1 (3) 1 would yield 2 and 1(3)1(3)1 would yield 0. 2(3)2 would yield 1 and 2(3)2(3)2 would yield 0. However, in the case of n=6, 1(6)1, or 2, and 5(6)5, or 4, are not  generator","It could be sometimes. If n=3, then 1 (3) 1 would yield 2 and 1(3)1(3 )1 would  yield 0. 2(3)2 would yield 1 and 2(3)2(3)2 would yield 0. However, in the case of n=6, 1(6)1, or 2, and 5(6)5, or 4, are not generators."],"rt":186858,"trial_type":"polygon-arrow-question","trial_index":0,"trial_index_global":73,"time_elapsed":2135028,"internal_chunk_id":"0-0.14-0"},{"nsides":"n","question":"If an element x is not a generator under <img src=./images/ngon_symbol.png style=width:14px;height:14px>, is x <img src=./images/ngon_symbol.png style=width:14px;height:14px> x a generator under <img src=./images/ngon_symbol.png style=width:14px;height:14px> always, sometimes, or never?","response_type":"multi","response_choices":["Always","Sometimes","Never"],"correct_response":"Never","response":"Never","orientation_history":[[0]],"response_history":["Sometimes","Never"],"rt":1497275,"trial_type":"polygon-arrow-question","trial_index":0,"trial_index_global":74,"time_elapsed":3632305,"internal_chunk_id":"0-0.14-0"},{"instructions":"We would like  to ask  you some questions about your background. Please press Continue to continue.","rt":2702,"trial_type":"instructions","trial_index":0,"trial_index_global":75,"time_elapsed":3635015,"internal_chunk_id":"0-0.15-0"},{"question":"What is your age?","response_type":"free","response_choices":[],"correct_response":"","response":"24","response_history":["24"],"rt":2434,"trial_type":"question","trial_index":0,"trial_index_global":76,"time_elapsed":3637451,"internal_chunk_id":"0-0.15-0"},{"question":"What is your level of education?","response_type":"multi","response_choices":["Did not graduate high school","High school diploma","Some college, no degree","Associates Degree","Bachelors Degree","Some graduate school, no degree","Masters Degree","Doctorate, M.D., etc."],"correct_response":"","response":"Some college, no degree","response_history":["Some college, no degree"],"rt":4919,"trial_type":"question","trial_index":0,"trial_index_global":77,"time_elapsed":3642372,"internal_chunk_id":"0-0 .15-0"},{"question":"What is the most advanced math class you've completed? If you have multiple classes and you're not sure which one is most advanced, please list them.","response_type":"free","response_choices":[],"correct_response":"","response":"AP Calculus A & B","response_history":["AP Cal","AP Cak","AP Calculus A a","AP Calculus A & B"],"rt":19518,"trial_type":"question","trial_index":0,"trial_index_global":78,"time_elapsed":3661891,"internal_chunk_id":"0-0.15-0"},{"question":"How familiar are you with the concept of modular arithmetic?","response_type":"multi","response_choices":["1 - never heard of it","2 - heard of it but didn't know what it was","3 - seen it used or explained","4 - used it but not often or recently","5 - used it, remember and understand it"],"correct_response":"1","response":"1 - never heard of it","response_history":["1 - never heard of it"],"rt":5670,"trial_type":"question","trial_index":0,"trial_index_global":79,"time_elapsed":3667562,"internal_chunk_id":"0-0.15-0"},{"question":"How familiar are you with the concept of a mathematical group?","response_type":"multi","response_choices":["1 - never heard of it","2 - heard of it but didn't know what it was","3 - seen it used or explained","4 - used it but not often or recently","5 - used it, remember and understand it"],"correct_response":"1","response":"1 - never heard of it","response_history":["1 - never heard of it"],"rt":5335,"trial_type":"question","trial_index":0,"trial_index_global":80,"time_elapsed":3672898,"internal_chunk_id":"0-0.15-0"},{"question":"Do you feel you learned something from this HIT?","response_type":"multi","response_choices":["1 - not at all","2 - somewhat","3 - definitely"],"correct_response":"1","response":"3 - definitely","response_history":["3 - definitely"],"rt":3680,"trial_type":"question","trial_index":0,"trial_index_global":81,"time_elapsed":3676579,"internal_chunk_id":"0-0.15-0"},{"question":"Do you feel you understood the concepts in this  HIT?","response_type":"multi","response_choices":["1 - not at all","2 - somewhat","3 - definitely"],"correct_response":"1","response":"3 - definitely","response_history":["3 - definitely"],"rt":4781,"trial_type":"question","trial_index":0,"trial_index_global":82,"time_elapsed":3681361,"internal_chunk_id":"0-0.15-0"},{"question":"Did you enjoy this HIT?","response_type":"multi","response_choices":["1 - not at all","2 - somewhat","3 - definitely"],"correct_response":"1","response":"3 - definitely","response_history":["3 - definitely"],"rt":2600,"trial_type":"question","trial_index":0,"trial_index_global":83,"time_elapsed":3683963,"internal_chunk_id":"0-0.15-0"},{"question":"What is your gender?","response_type":"multi","response_choices":["Female","Male","Other"],"correct_response":"","response":"Male","response_history":["Male"],"rt":3200,"trial_type":"question","trial_index":0,"trial_index_global":84,"time_elapsed":3687164,"internal_chunk_id":"0-0.15-0"},{"question":"What is/are yo ur nativ e language(s)? (The languages spoken in your household when you were a child.)","response_type":"free","response_choices":[],"correct_response":"","response":"English","response_history":["English"],"rt":3438,"trial_type":"question","trial_index":0,"trial_index_global":85,"time_elapsed":3690603,"internal_chunk_id":"0-0.15-0"},{"question":"Did you use pen and paper at any point on this HIT?","response_type":"free","response_choices":[],"correct_response":"","response":"Nope.","response_history":["Nope.","Nope."],"rt":5663,"trial_type":"question","trial_index":0,"trial_index_global":86,"time_elapsed":3696267,"internal_chunk_id":"0-0.15-0"},{"question":"Do you have any comments on this HIT?","response_type":"free","response_choices":[],"correct_response":"","response":"I had so much fun! And this was interesting.","response_history":["Very very f","Very ","Very","Ver","Ve","V","I had so much fun! And this was interesting."],"rt":13349,"trial_type":"question","trial_index":0,"trial_index_global":87,"time_elapsed":3709618,"internal_chunk_id":"0-0.15-0"}]